time,seconds_elapsed,z,y,x
1733902767839735600,0.030735595703125,0.3931318873465061,-0.23990005848705767,0.011404971915856004
1733902767849761500,0.040761474609375,0.2789608798958361,-0.21436580425798893,0.06006970716789364
1733902767859788500,0.05078857421875,0.11133373819813132,-0.14112638052403925,0.06159516316950321
1733902767869815600,0.060815673828125,-0.05970540390014648,-0.024175240835547444,0.057271308621019125
1733902767879841500,0.070841552734375,-0.12958148868083952,0.0445768083512783,0.05956015021055937
1733902767889868500,0.08086865234375,-0.17935338145717977,0.10623568440675735,0.07053951712548732
1733902767899895600,0.0908955078125,-0.15834800282940267,0.1274836396187544,0.0759049896813929
1733902767909921300,0.10092138671875,-0.11399828123226761,0.16553893724679947,0.1608089130502194
1733902767919948500,0.110948486328125,-0.033656770408153534,0.2086409968703985,0.2484934801135212
1733902767929975600,0.1209755859375,0.10071297546252608,0.21473639113605023,0.28990934021584686
1733902767940002600,0.13100244140625,0.17493205788359045,0.24392156908810136,0.38777883588075635
1733902767950028500,0.141028564453125,0.23151377680525181,0.33575229604542256,0.49202276194840666
1733902767960055600,0.1510556640625,0.22297055099606514,0.40886780113875865,0.5865623825382441
1733902767970082600,0.16108251953125,0.13491335122808815,0.4154530247479677,0.6142753690458834
1733902767980108500,0.171108642578125,0.03331891675591469,0.4761906943053007,0.6411781351491809
1733902767990135600,0.181135498046875,-0.045440877834707495,0.5491688367545604,0.5862826888140291
1733902768000162300,0.191162353515625,-0.0446598104596138,0.5380646744161844,0.4671366694297641
1733902768010188500,0.2011884765625,0.05270516974925995,0.5634323399066925,0.4598465854868293
1733902768020215600,0.211215576171875,0.039237493149936194,0.5579337424904107,0.5074122003905475
1733902768030242600,0.22124267578125,0.05735007294565439,0.5106055896043777,0.3940649304129183
1733902768040268500,0.2312685546875,0.08781710740178823,0.5478969171226025,0.3056829556699842
1733902768050295300,0.24129541015625,0.11771247944980859,0.39671909818351264,0.3512770513050258
1733902768060322600,0.251322509765625,0.331320158816874,0.3061176207602024,0.24063911335133015
1733902768070348500,0.2613486328125,0.3690124683514237,0.3169213388472795,0.3189324594739824
1733902768080375600,0.27137548828125,0.2929650014594197,0.19284604636728764,0.2693720174912363
1733902768090402300,0.28140234375,0.40199528502076864,0.2833744585543871,0.08108794527724385
1733902768100429600,0.2914296875,0.16240093148201704,0.42903205276727674,-0.09075330698415636
1733902768110455600,0.30145556640625,-0.16199351972490547,0.5411252310305833,-0.07856719462797045
1733902768120482600,0.311482666015625,-0.2772036609649658,0.39867724651396275,0.15651428459621966
1733902768130509300,0.32150927734375,-0.04397445854395628,0.15050152711272238,0.3325543767869472
1733902768140535300,0.331535400390625,0.2991305383518338,0.04318389268815517,0.3871074394252151
1733902768150562600,0.3415625,0.5878036878362297,-0.18583938247561455,0.8627394038692117
1733902768160589600,0.351589599609375,0.6629436844944954,-0.1540297012388706,0.9104715344462543
1733902768170615600,0.361615478515625,0.5929965803042054,0.10864508363604546,0.7911817957423627
1733902768180642300,0.371642333984375,0.2652919816359877,0.1916056909173727,0.8724176250576973
1733902768190669600,0.381669677734375,0.06743979754447936,0.3704764034241438,0.9089589379262178
1733902768200695600,0.391695556640625,-0.032517244984209534,0.3550841885030269,0.9020154023986309
1733902768210722600,0.40172265625,0.03990969332307577,0.29943244390785695,0.7013234648365527
1733902768220749300,0.411749267578125,0.06380173330307007,0.44315760875344273,0.6585083323955535
1733902768230776600,0.421776611328125,0.2463277534469962,0.552560232758522,0.8403419863611459
1733902768240802600,0.431802490234375,0.8012225666329265,0.5510866530746221,1.3503262291967868
1733902768250829600,0.44182958984375,1.4464230891659855,0.380880893060565,2.020909907050431
1733902768260856300,0.451856201171875,1.4811819755971432,0.3477081067770719,2.1220349704451857
1733902768270882300,0.46188232421875,0.8579813956871628,0.4236632192105055,1.7709065338306127
1733902768280909600,0.47190966796875,0.4089861668214202,0.44684652639925476,1.4783943907052277
1733902768290936600,0.4819365234375,0.2859291114732623,0.6140051738023757,1.3938454913191496
1733902768300962600,0.491962646484375,0.18807868583500384,0.7855664400786161,1.5828322319097816
1733902768310989300,0.5019892578125,0.2433607203349471,0.8775918128252029,1.82585509859249
1733902768321016600,0.5120166015625,0.39456133562773466,1.0709861407250165,1.7244443501241504
1733902768331042600,0.52204248046875,0.23107903864979742,1.1589736362576484,1.8918015888392925
1733902768341069600,0.532069580078125,0.01720686312764883,1.0320786101818085,2.2783941375449297
1733902768351096600,0.5420966796875,-0.19649258617609738,0.9455161790162324,2.2204808777585625
1733902768361122600,0.55212255859375,-0.08355418926030397,0.9280348828613758,1.8257083835981784
1733902768371149800,0.56214990234375,-0.184117088727653,0.9363801018804311,1.635479680122435
1733902768381176800,0.5721767578125,-0.3095180768534541,0.8915706538170576,1.4169197851754725
1733902768391203600,0.58220361328125,-0.2735635508969426,0.9302654183924197,1.429354319334775
1733902768401229600,0.5922294921875,-0.19253771107047796,1.0511872152775525,1.2831865836426615
1733902768411256800,0.6022568359375,0.035928514732420445,1.0717606322288513,1.2478433214522897
1733902768421283800,0.612283935546875,0.4056590682253241,0.9041443041861057,1.338032710943371
1733902768431309800,0.622309814453125,0.6236904092535376,0.8600561561346054,1.0190132307730615
1733902768441336600,0.632336669921875,0.9285445859491824,0.9023983373016119,0.6557851910419762
1733902768451363800,0.64236376953125,1.0083271477162838,0.7803770547419786,0.5989953823275864
1733902768461389800,0.652389892578125,0.5327129381246865,0.4820692309498787,0.5847748415343463
1733902768471416800,0.662416748046875,-0.188982941198349,0.17360358575880527,0.14137334102243185
1733902768481443600,0.672443603515625,-1.3119548513568937,0.10238660776317118,0.09444470884799956
1733902768491469600,0.682469482421875,-1.6780504093483088,0.3199088302254677,0.19711597877144812
1733902768501496800,0.692496826171875,-1.3047308914527296,0.7295616442620754,0.045321781499683855
1733902768511523800,0.70252392578125,-1.0042837175443768,1.2419792517244814,0.381615637075901
1733902768521549800,0.7125498046875,-1.1914147472657262,1.556145738905668,0.8916726528868079
1733902768531576600,0.72257666015625,-1.6434885067939757,1.6720365558862684,0.7067413251668214
1733902768541603800,0.732603759765625,-1.9133502805635332,1.7022224353134632,-0.28453794937580823
1733902768551630800,0.742630859375,-1.9637056723162531,1.4201093749970197,-1.277107555989921
1733902768561656800,0.75265673828125,-1.8659864718422292,0.8994248744487762,-1.63361476303339
1733902768571683600,0.76268359375,-2.535809686717391,0.5351385578364134,-1.5887679055690764
1733902768581710800,0.7727109375,-3.1155607087403534,0.6492565199255943,-1.4128022668540476
1733902768591736800,0.78273681640625,-2.848865874569118,0.8537281221568584,-1.2732362675145268
1733902768601763800,0.792763916015625,-2.0990049541220066,1.02590255189538,-0.9339078665480017
1733902768611790600,0.80279052734375,-1.6640376660868526,1.2337316478610039,-0.7175543956041336
1733902768621816600,0.812816650390625,-1.6264926560685038,1.4275737195283174,-0.6356243004143237
1733902768631843800,0.82284375,-1.5749872174978254,1.3671528608351946,-0.4701321249186992
1733902768641870800,0.832870849609375,-1.4938339518994093,1.4459797293126582,-0.42930356318503615
1733902768651897600,0.842897705078125,-1.5563544132202862,1.5648340722739695,-0.7872995474815369
1733902768661923600,0.852923583984375,-1.7505232326239346,1.5528373450100421,-1.6127911707133054
1733902768671950800,0.862950927734375,-1.860354311174154,1.6445190188854932,-2.3212936603337524
1733902768681977900,0.872977783203125,-1.8752678026676177,1.6172358751624822,-2.0105068787187337
1733902768692003800,0.88300390625,-1.826609277960658,1.237410628634691,-1.3637550350904464
1733902768702030600,0.893030517578125,-1.4612924492567776,1.151295941236615,-1.3162836743414401
1733902768712057900,0.903057861328125,-0.9638374331265688,1.2228934429824352,-0.8301222056418657
1733902768722083800,0.913083740234375,0.17927753974199295,1.0280524234056472,-1.1065817702412604
1733902768732110800,0.92311083984375,2.606035900110006,0.12899579774737358,-1.2459206828266383
1733902768742137600,0.9331376953125,4.48617861533761,0.5967156008273363,-0.20180676693618296
1733902768752163600,0.94316357421875,5.114701559314131,1.1200509081453085,-0.34025253007411954
1733902768762190800,0.95319091796875,5.228103482088446,1.5122741562142967,-0.636636692327261
1733902768772217900,0.9632177734375,4.429694511571526,1.4842340566441417,-1.1986176643818616
1733902768782244600,0.97324462890625,5.11410651603043,0.5172437124446034,-2.875211152920127
1733902768792270600,0.9832705078125,4.865785250678658,-0.015260697495937347,-3.2592297594845294
1733902768802297900,0.9932978515625,4.216154052221775,-0.31783085490763185,-2.1847452552497386
1733902768812324900,1.003324951171875,2.3837597611188888,-0.25385522634238006,-0.8251508469700812
1733902768822350800,1.013350830078125,-0.7935977708429097,-2.9264935963898897,-2.5943904705017804
1733902768832377600,1.023377685546875,-0.12973755602538584,-3.2621912396386263,-3.742622932514548
1733902768842404600,1.033404541015625,-0.23758359823822975,-1.5336910382524132,-1.731630316105485
1733902768852430800,1.043430908203125,0.6581202098608017,-0.1412839091733098,-1.6315402948468922
1733902768862457900,1.053457763671875,0.9808423439413309,0.45007805566638703,-1.893523590326309
1733902768872484600,1.063484619140625,0.889732916995883,-0.1699380489885807,-1.5469149692237376
1733902768882511600,1.07351171875,0.16163725363314152,-1.5651199034780263,-0.8415741585046053
1733902768892537900,1.083537841796875,-0.13584580977261065,-1.8274480668723583,-0.6725690064519644
1733902768902564900,1.09356494140625,-0.9661112232774496,-0.8970157674804329,-1.432666074231267
1733902768912591600,1.103591552734375,-2.8152777854830027,0.09303221170157193,-2.864037432476878
1733902768922617600,1.11361767578125,-1.9812451283991335,0.3131318834364414,-2.513610129868984
1733902768932644600,1.12364453125,-1.6986048293381928,-0.637680940683186,0.7512193493187427
1733902768942672000,1.133671875,2.5985101807802913,-1.264225862585008,0.08501812433302403
1733902768952698600,1.14369873046875,3.493932249328494,-1.6697729948684572,-0.4284153821736574
1733902768962724600,1.153724609375,3.669803780019283,-2.43219149133265,0.4421218359649181
1733902768972751600,1.163751708984375,3.565833702456951,-3.7814673346936702,1.2593500732421874
1733902768982779000,1.17377880859375,2.9236119034737347,-4.838212184098363,1.738267562162876
1733902768992804900,1.183804931640625,2.285923071745038,-5.179885102364421,1.8283675198048353
1733902769002831600,1.19383154296875,1.7714210592240094,-4.995916774457693,1.2909838133901357
1733902769012858600,1.203858642578125,0.483381482592225,-3.9193843977823852,0.10295827017128467
1733902769022884600,1.213884521484375,-0.2920359039157629,-2.4754139624655247,-0.6321423035174608
1733902769032912000,1.223911865234375,0.7359843707859516,-1.4167027814239264,-1.9191069443941116
1733902769042938600,1.233938720703125,1.6994710907787083,0.11164470384344458,-2.8302257637679573
1733902769052965600,1.243965576171875,1.1871329782932996,1.0568512323886154,-1.8256699512839316
1733902769062991600,1.25399169921875,0.9807944131463765,0.9043928721196949,-1.050022847673297
1733902769073019000,1.264018798828125,0.9391185869336127,1.1522900668404996,-0.38149054939150806
1733902769083045600,1.274045654296875,0.9740805947214365,1.703954227542132,-0.04238602030873299
1733902769093071600,1.284071533203125,0.2700625570386648,1.7686505715973675,0.26576193723529573
1733902769103098600,1.2940986328125,-0.5026970084369182,1.7599011556915938,0.5662964971661567
1733902769113126000,1.3041259765625,-1.005695045647025,1.6553206911459564,0.8272273609831928
1733902769123152600,1.314152587890625,-1.3364824127614496,1.5390858830332754,0.9894649185970426
1733902769133178600,1.3241787109375,-1.5319734206795692,1.7352778788276015,0.8620140122041106
1733902769143205600,1.33420556640625,-1.4675205299913883,2.101689955422282,0.20983838996142148
1733902769153233000,1.34423291015625,-1.5096774177193641,2.4221637260541318,-0.2823410238534212
1733902769163259000,1.3542587890625,-1.3079659278512,2.685750072816014,-0.1750119912520051
1733902769173285600,1.36428564453125,-1.1886696863412856,2.9530305979207156,0.21443565462380645
1733902769183312600,1.374312744140625,-1.2231301743477583,3.0628467711627483,0.5344613892272114
1733902769193340000,1.38433984375,-1.143802955132723,3.1629619268625975,0.40812545833885666
1733902769203366000,1.394365966796875,-1.0536503905206918,3.2106162429630754,-0.02263444113433361
1733902769213392600,1.404392578125,-1.1659048968255519,3.077618223837018,-0.684216774147749
1733902769223419600,1.414419677734375,-0.9527075518250465,2.745559521612525,-1.0468579539015888
1733902769233445600,1.424445556640625,-1.031294181805849,2.337636015586555,-0.7969242849171161
1733902769243473000,1.434472900390625,-1.754228516882658,2.3687713046930727,-0.706762660215795
1733902769253499600,1.444499755859375,-2.158722340720892,2.3240568414367733,-0.7169631517127156
1733902769263526700,1.454526611328125,-2.0103040496230125,2.0602776024512943,-1.0695984857589005
1733902769273552600,1.464552734375,-1.6493968540549278,1.9947540137916802,-1.197326163266599
1733902769283580000,1.474579833984375,-1.4005834212720394,1.8521863484181462,-1.3451073255047201
1733902769293606700,1.484606689453125,-1.2968611809909343,1.7437477471396325,-1.5845784910552203
1733902769303633700,1.494633544921875,-1.1602362035393714,1.4052210179448128,-1.2960340825170278
1733902769313659600,1.50465966796875,-0.3309083631455898,1.2443005342788993,-1.2410238506957887
1733902769323687000,1.51468701171875,0.17429215254485605,1.0862874624922871,-1.4002483440987765
1733902769333713700,1.524713623046875,-0.8855968401044607,1.086899456910789,-1.494705181775987
1733902769343740700,1.53474072265625,-1.0843664313018322,1.3436676480904222,-2.027907218591869
1733902769353767000,1.544766845703125,-0.2376952419191599,1.3320146196976304,-1.8822700826451182
1733902769363794000,1.5547939453125,0.3712655079752207,1.00193233211264,-1.8277686771288513
1733902769373820700,1.564820556640625,0.8268155653119087,0.6012820319600403,-2.299692507769912
1733902769383848000,1.574847900390625,1.761128797790408,0.15818448283076286,-2.6233102755159137
1733902769393874000,1.5848740234375,1.6856886491417884,-0.32927959289997816,-2.1906498031184074
1733902769403901000,1.59490087890625,1.5802058289289473,-0.35125958871357144,-2.209672921887785
1733902769413927700,1.604927734375,1.4379320319354534,-0.553368115075305,-2.0077064343452453
1733902769423953700,1.61495361328125,0.9908253932952881,-1.2279071794912217,-0.9146842567704617
1733902769433981000,1.62498095703125,0.7987579300850629,-1.2566359919779002,-0.3236922942869365
1733902769444008000,1.635008056640625,1.2670973263680934,-1.4823118564099071,0.16370825122091917
1733902769454034700,1.64503466796875,1.5501929679811,-1.9385865747593343,0.9362932273145764
1733902769464060700,1.655060791015625,1.7572610164463518,-1.4234572241201997,0.9773669229157268
1733902769474088000,1.665087890625,2.302435230606794,-0.9175474641818553,0.7332833681989461
1733902769484115000,1.675114990234375,3.029526685363054,-0.9906742213215678,0.6563970393300056
1733902769494141700,1.6851416015625,3.0913527346789835,-1.0140415798403322,0.8145826912045478
1733902769504167700,1.695167724609375,2.6846669537544248,-1.0720903025746344,0.8440693363212048
1733902769514194700,1.705194580078125,1.6481050606787204,-1.0580408805646002,0.5242433986062184
1733902769524222000,1.715221923828125,1.3474620719373225,-1.0321087130591273,-0.2888528716991655
1733902769534248700,1.725248779296875,1.0990811853528022,-1.3529456179149448,-0.2699942045101896
1733902769544274700,1.735274658203125,-0.13608955540060996,-0.8166429847352206,-0.6415412693731486
1733902769554301700,1.7453017578125,-0.6707020435363054,-0.17889131690338253,-0.9252327579874545
1733902769564329000,1.755328857421875,-1.0340420192092656,-0.5859131979145109,-0.6332455885842442
1733902769574356000,1.76535595703125,-1.0459539907991886,-0.6704290718138217,-1.3557367099381983
1733902769584381700,1.775381591796875,-1.2988193293213843,0.41009325128048657,-1.128475549076125
1733902769594408700,1.78540869140625,-2.3018565539360045,0.029938334406912324,0.19132343990989029
1733902769604436000,1.79543603515625,-2.4725065505862234,0.18935995781719683,-1.5512904078289866
1733902769614463000,1.805462890625,-2.2401216900348664,0.4941849084183573,0.009556457972340286
1733902769624488700,1.81548876953125,-1.3485136268168687,0.1824041473299265,-0.3607575214317068
1733902769634515700,1.825515625,-0.8896130900084972,0.9456260691314935,0.13547452877480537
1733902769644543000,1.83554296875,-0.81237787463665,0.8133502268001437,1.1578643598414957
1733902769654570000,1.845570068359375,-0.19856150140464304,0.816231042933464,1.2901593452647329
1733902769664596700,1.8555966796875,0.4305360275894403,0.5179278953164815,1.5954980906069278
1733902769674622700,1.865622802734375,0.7751865003615618,0.42470016104280944,1.406897134463489
1733902769684650000,1.87564990234375,1.444622469484806,0.23167408193349837,1.0613025127090514
1733902769694677000,1.885677001953125,2.157388461768627,0.41907589142024515,1.2299924613326787
1733902769704703700,1.895703857421875,2.234633029490709,0.6888412190780043,1.2324608972728253
1733902769714729700,1.905729736328125,2.0230138935923576,1.064397994506359,1.1225349069807677
1733902769724757000,1.915757080078125,1.9966133779227733,1.1625322055220604,0.6413239002954214
1733902769734784000,1.925783935546875,1.827181524890661,0.321219328302145,1.2234382173836231
1733902769744810800,1.935810791015625,1.1868202590823174,0.26818770307749507,1.219298779491335
1733902769754836700,1.945836669921875,0.7461287481814622,0.4322296797648072,0.9143976949140429
1733902769764863700,1.95586376953125,0.5149544324636459,0.22337504014372825,1.5673182903051375
1733902769774891000,1.96589111328125,0.7904781775176525,-0.3854153216198086,1.1932545299135149
1733902769784917800,1.975917724609375,0.9684113169133662,-0.17510083857923744,0.3437587846294045
1733902769794943700,1.98594384765625,0.9420634082138538,-0.3180135179981589,1.5301622796043752
1733902769804970800,1.995970703125,0.25052257478833195,-0.7353975108087062,0.839347714626789
1733902769814998000,2.005998046875,-0.6873205853819847,-0.6695046504452824,1.1570111770782618
1733902769825024800,2.016024658203125,-1.4506734400868415,-0.9388128819853067,-0.8686765388332307
1733902769835050800,2.02605078125,-2.1815338919878005,-0.7294944242447614,-0.3123953127902001
1733902769845077800,2.036077880859375,-3.059926499801874,-0.0037806875824928283,-0.4548956850811839
1733902769855105000,2.04610498046875,-4.171725127908587,0.628133944658935,-0.7181673398707061
1733902769865131800,2.0561318359375,-5.030329916191101,1.337865683813393,-1.2365253702327608
1733902769875157800,2.06615771484375,-4.942707746839523,1.514585940288007,-1.5669437579043208
1733902769885184800,2.076184814453125,-4.075761246669292,1.2791864080905913,-0.38565672916024923
1733902769895212000,2.0862119140625,-3.5961966920167208,0.2791331677228212,-0.869013515702635
1733902769905238800,2.09623876953125,-2.883575076639652,-0.3489692127540707,-0.4963693397853523
1733902769915264800,2.1062646484375,-0.9329828606575727,-1.0497811478719115,-0.7947299897432327
1733902769925291800,2.116291748046875,0.10266308661699294,-1.773954669354856,-1.8204473943300543
1733902769935319000,2.126319091796875,-0.3884054433465004,-2.399244038237631,-2.745961672672629
1733902769945345800,2.136345703125,-0.4201403057813644,-2.088994432239234,-1.4456515202715992
1733902769955371800,2.146371826171875,0.759120916223526,-1.7643918912395833,-1.1151608710814267
1733902769965398800,2.156398681640625,3.3223721520960328,-1.9096189850807188,-1.2102401515059173
1733902769975426000,2.166426025390625,6.336682563626765,-1.9589988097995519,-1.2267540639333425
1733902769985452800,2.176452880859375,7.180933247864246,-2.1118957076162097,-0.7646938940502703
1733902769995479800,2.186479736328125,5.886392618775368,-1.6863076578229665,0.3724511375632137
1733902770005505800,2.196505859375,3.198967890745401,-0.8541264738246798,0.6024182329157367
1733902770015532800,2.20653271484375,0.30015608200728894,-0.21844138313382863,-1.3947498928129671
1733902770025559800,2.216559814453125,-1.1097276670515537,-0.9036313862279057,-2.3086384691610933
1733902770035586800,2.2265869140625,-2.270109416541457,-1.983668848414719,-0.814292329955846
1733902770045612800,2.23661279296875,-1.339434248304367,-1.9159853052422404,-0.5616449450332671
1733902770055639800,2.246639892578125,-0.1776461391478777,-2.5196421035096046,-0.4677690490491688
1733902770065666800,2.256666748046875,-0.07890928606390953,-2.7647581430792805,-0.07244052844122052
1733902770075693800,2.26669384765625,-0.3965443261384964,-2.062187089334428,0.5436972734756768
1733902770085719800,2.2767197265625,0.48481005409061906,-1.5115157390624283,0.6225916542313993
1733902770095746800,2.286746826171875,1.5093360569357872,-1.073108685836941,0.7726262944847345
1733902770105773800,2.29677392578125,1.0323790544331073,-1.3375703541286288,0.516067289076373
1733902770115800800,2.30680078125,0.8811053739041089,-1.7158882648333906,-0.09671974110789597
1733902770125826800,2.316826904296875,0.7905670248448848,-1.8511692803300916,-0.7589401528291404
1733902770135853800,2.326853759765625,0.5505108990132809,-1.6608302483476698,-1.3928800072878598
1733902770145880800,2.336880859375,0.6501040766656399,-1.3174836977809667,-1.3981509334281086
1733902770155907800,2.346907958984375,0.6157078860670328,-1.019392585479468,-1.0065784043528139
1733902770165934800,2.356934814453125,-0.09877133987545966,-0.6423422104924917,-0.7943846834369004
1733902770175960800,2.3669609375,-0.5494505763053894,-0.12154665078520774,-0.41558381152078505
1733902770185987800,2.37698779296875,0.08807458929419518,0.4759212297141552,0.3690060386106372
1733902770196014800,2.387014892578125,0.8834078056275844,0.9356377590805292,0.7713238335840403
1733902770206041900,2.397041748046875,1.8144331024765967,0.9340241133388131,1.172253096808493
1733902770216067800,2.40706787109375,1.9114877015620468,0.45924847346320746,0.8543664200603961
1733902770226094800,2.4170947265625,1.3138421264082192,0.06034355567321181,0.4214756460383534
1733902770236121900,2.427121826171875,0.8343757714331149,-0.021627309918403625,0.2315439527478069
1733902770246148900,2.43714892578125,0.6077250706195831,-0.07404905961640179,-0.02422112580388784
1733902770256174800,2.4471748046875,0.6011030221313238,-0.03524411266483366,-0.09203238700926303
1733902770266201900,2.457201904296875,0.27375030564069747,-0.035122824372723696,-0.19114092294983565
1733902770276228900,2.467228759765625,0.07576689638495444,-0.1414433009861037,-0.516379569895938
1733902770286255900,2.477255859375,-0.14144611399769783,-0.2592212103549391,-0.6728140672542154
1733902770296281900,2.48728173828125,-1.4519476978063584,-0.30811518778558816,-1.3123803832925856
1733902770306308900,2.497308837890625,-2.892681927680969,0.05502367582470178,-1.4205109415352344
1733902770316335900,2.5073359375,-2.905723780083656,0.5714765301525593,-0.47911768766790624
1733902770326363000,2.51736279296875,-1.7940175064355135,-0.030818039850890634,-0.528131820879504
1733902770336390000,2.527389892578125,-1.5841934372603892,-1.2391412518195808,-1.500527604319155
1733902770346416000,2.537416015625,-1.3756290127575397,-1.566576093635708,-0.6196829271778463
1733902770356443100,2.547443115234375,-1.2056477091491222,-1.2683797673940658,0.6144800978377462
1733902770366470400,2.557470458984375,-1.8844447963356972,-1.0991937058165668,0.47921544895395635
1733902770376497200,2.5674970703125,-2.3482255064010618,-1.0158791705310344,-0.7626536203943193
1733902770386523100,2.577523193359375,-2.0327882686316965,-0.6550301348909735,-1.6290765350818632
1733902770396550100,2.587550048828125,-0.5965162788629531,0.05121989962756633,-1.9017592114910482
1733902770406577200,2.5975771484375,0.08498714467287063,0.05828939962238073,-1.5616151102274656
1733902770416604200,2.607604248046875,0.10711129819750785,-0.35680560546815393,-1.387900903701037
1733902770426630100,2.617630126953125,0.4737584987223148,-0.3977095705255866,-2.2726846738569435
1733902770436657200,2.6276572265625,0.7699556139707565,-0.4447682588204741,-2.355153113707155
1733902770446684200,2.63768408203125,0.7326467507958412,-0.10797755963802337,-0.9451512912265956
1733902770456711200,2.647711181640625,1.128979480010271,0.6841781957030296,0.14255535388123244
1733902770466737200,2.657737060546875,1.1486427963793278,0.9971014048248529,0.6658508771780878
1733902770476764200,2.66776416015625,1.6477157691001891,0.9224737416028976,0.7776201572492718
1733902770486791200,2.677791259765625,2.0089982277214524,0.8680325418412684,0.7493305398974567
1733902770496818400,2.687818359375,0.3272428263753652,0.7796843963027,0.6565997222952544
1733902770506844200,2.69784423828125,-1.1720154886603356,0.7650181575685739,0.7398368084304034
1733902770516871200,2.70787109375,-1.5060288320839403,0.526735471150279,0.7902969757318496
1733902770526898200,2.717898193359375,-1.374395671570301,0.6232037947803736,0.327550832878612
1733902770536925400,2.727925537109375,-0.7255892334997653,1.083206739872694,-0.5922763032056391
1733902770546951200,2.737951171875,-0.1937228292018175,1.6267705962270498,-0.7425901987917721
1733902770556978200,2.747978271484375,-0.09829378549158573,2.9561697727292775,0.11232654862776398
1733902770567005200,2.758005126953125,-0.7795733371436595,3.4095413169831037,0.3713976099222898
1733902770577032400,2.768032470703125,-1.4106822059601545,3.593346563282609,0.15103651077225805
1733902770587058400,2.778058349609375,-1.7169459571927785,3.479160796654224,0.15700915544107555
1733902770597085200,2.788085205078125,-1.7883879761159418,3.298291603806615,0.4779163490541279
1733902770607112200,2.7981123046875,-1.838375703600049,3.1000603572696446,0.09686536012366413
1733902770617139500,2.808139404296875,-1.9777923575967549,3.3857968687802553,-0.02095306391865015
1733902770627166200,2.818166259765625,-1.9490666138499975,3.3899048886209724,1.105793542473018
1733902770637192200,2.828192138671875,-1.6476351050794125,2.7841321211129424,2.3999334818065163
1733902770647219200,2.83821923828125,-1.2985849360436201,1.7252707179456948,3.1978970466434955
1733902770657246200,2.84824609375,-1.0305793115347623,0.2894797896921634,3.016639439000189
1733902770667273200,2.858273193359375,-0.758005648458004,-0.8035849118500947,2.5504300404831763
1733902770677299200,2.86829931640625,-0.3359370049625635,-1.3952572578132152,1.8304831967845558
1733902770687326200,2.878326171875,0.22723931435644626,-1.444154267451167,1.1452733199462295
1733902770697353200,2.888353271484375,0.6842886703401804,-1.1035060160577297,0.35915479894280433
1733902770707380200,2.898380126953125,1.0905383979350327,-0.36016952894330023,0.013814298079907894
1733902770717406200,2.90840625,1.8014561320036648,-0.06890402487814426,0.25193653323948384
1733902770727433200,2.91843310546875,1.5905390068948269,-0.31776012775897977,-0.09059504768252372
1733902770737460200,2.928460205078125,1.0004273343771695,-0.6246545781105757,-0.49560471208840606
1733902770747487200,2.9384873046875,0.5049760592848063,-1.1976625556141138,-0.5367781417369842
1733902770757513200,2.94851318359375,0.2579571087032556,-2.459059039992094,-0.33092736010700463
1733902770767540200,2.958540283203125,-0.21787761177122592,-2.9229426259100437,-0.3395987423405051
1733902770777567200,2.968567138671875,-0.8573428055226803,-3.176424050503969,-0.27696488377302886
1733902770787594200,2.97859423828125,-0.8889782992362976,-3.352866659080982,-0.15051058720201252
1733902770797620200,2.9886201171875,-0.8227718428790569,-2.778741660246253,-1.0695376954823732
1733902770807647200,2.998647216796875,-0.3862999954998493,-0.6949462579548359,-0.9476981992304324
1733902770817674200,3.00867431640625,0.8112474093019962,-0.5098194076627492,-0.8852043336555361
1733902770827701200,3.018701171875,2.165471230459213,-1.1620277631312608,-1.7369909663558005
1733902770837727200,3.028727294921875,1.4505880998909473,-1.4438304423242807,-1.5188380447745322
1733902770847754200,3.038754150390625,0.1353033734589815,-1.2627630965560674,-0.3096343967095017
1733902770857781200,3.04878125,-1.1683826851159334,-1.2601590515375136,-0.0673604486979544
1733902770867808000,3.05880810546875,-1.507996917286515,-1.8552759849965572,-2.3590061358734964
1733902770877834200,3.068834228515625,0.4745166236132383,-1.3807652066022156,-4.197229571521282
1733902770887861200,3.078861328125,3.950916138860583,-0.1048345854371786,-2.5260475866377354
1733902770897888300,3.08888818359375,3.22867972292006,2.243421900624037,-0.16305596132464706
1733902770907915000,3.0989150390625,0.9914876565963029,4.099526737660169,1.0226273296169937
1733902770917941200,3.108941162109375,-0.03910392989814281,2.8941122527450323,0.43265711139664054
1733902770927968300,3.11896826171875,-0.9049369158685207,1.1752566625386476,-0.24122423802921547
1733902770937995300,3.128995361328125,-1.5535808568537235,-0.3748877901256084,-0.873383766676113
1733902770948022000,3.13902197265625,-0.4174491670012474,-1.17176472876966,-0.6871457402717321
1733902770958048000,3.149048095703125,0.5068354234158993,-0.5968412730336189,0.19483378611840307
1733902770968075300,3.1590751953125,0.5822247186601162,0.1804606120467186,0.8409650866955518
1733902770978102300,3.169102294921875,1.3602952500253915,0.533904632127285,1.1755101989082992
1733902770988129000,3.17912890625,1.2978081064522267,0.7306283967107534,1.766602553026378
1733902770998155000,3.189155029296875,0.5281295558571815,0.8690683146297932,2.2242210872001946
1733902771008182300,3.199182373046875,-0.15828209798634052,0.6274824950128793,2.3803584282428023
1733902771018209300,3.209209228515625,-0.8735217869073152,0.34476679262816906,2.3399627049684524
1733902771028236000,3.219236083984375,-1.142795239394903,0.29614158566892146,2.490931849592924
1733902771038262000,3.229261962890625,-2.346217089188099,0.1251513972789049,1.664142149374634
1733902771048289300,3.239289306640625,0.5240490085452795,0.48802550900578495,-0.678897624951601
1733902771058316300,3.24931640625,1.3781062165260314,0.5326560933709145,-1.3312845518574117
1733902771068343000,3.259343017578125,-1.5896692383229731,0.21847557766437528,-0.925508798449859
1733902771078369000,3.269369140625,-2.194382852166891,0.008614099088311195,-0.24602906276136635
1733902771088396300,3.279396240234375,-1.0374012665092944,0.3292722863763571,-0.4258902476102113
1733902771098423300,3.28942333984375,-0.484573322725296,0.45082536690235137,0.026744287605956197
1733902771108450000,3.299449951171875,-0.5555307730019092,0.23800971469581125,0.08538505794927477
1733902771118476000,3.30947607421875,-0.2296720944613218,0.10088672459423541,-0.2543761814765632
1733902771128503300,3.31950341796875,0.7792547727137804,0.12845686856508254,-0.17574604114759712
1733902771138530300,3.3295302734375,1.2233061154365539,-0.07706862663328647,-0.023048721023648976
1733902771148557300,3.339557373046875,0.06901449951529502,0.08414367958605289,2.0697372124530373
1733902771158583000,3.3495830078125,-0.22185411418676376,0.37544834661781784,6.501102725976705
1733902771168610300,3.3596103515625,0.8454752575963735,-1.5753542972445487,0.30831728622894733
1733902771178637300,3.36963720703125,0.06714870564341545,-2.0302461829334497,-3.238325210882723
1733902771188663300,3.379663330078125,-1.4571698163688183,4.1617397404670715,-6.401496104320883
1733902771198690300,3.389690185546875,-0.2708271116703749,4.428924696242809,0.22285664229281246
1733902771208717000,3.399717041015625,-0.2927244707018137,1.1367524520993233,0.889912803607434
1733902771218744300,3.409744384765625,-0.09524258122742175,1.1649229000508785,-0.40296559135764837
1733902771228770300,3.419770263671875,0.014562193837761878,0.6534902119725943,-0.13786573476027697
1733902771238797300,3.42979736328125,0.26365210547447204,0.26850889785587784,-0.7114389814637601
1733902771248824000,3.439823974609375,1.0741548338890075,0.8052589825421571,0.3164061193341389
1733902771258851300,3.449851318359375,1.5480699844777583,1.3561878147065638,-3.031789077337086
1733902771268877300,3.459877197265625,0.2668202141165733,1.1064940919578075,-2.7547055356204506
1733902771278904300,3.469904296875,-1.0100625932067633,1.5565999124139547,-0.5047011878661811
1733902771288931000,3.47993115234375,-0.7120861933261156,1.615499845150113,-0.2177384955614805
1733902771298958300,3.489958251953125,-0.6451578524351119,1.443441735267639,-0.7004353568904101
1733902771308984300,3.499984375,-0.97278704777956,0.3291489522576332,-0.7418295896828174
1733902771319011300,3.51001123046875,-0.7515653862774372,-1.0065618916094303,-0.5134081894023343
1733902771329038000,3.5200380859375,-1.1254109738737343,-1.0059031354397534,-0.3975601521175354
1733902771339065300,3.5300654296875,-1.4781009607166051,-0.46277299432754515,-0.2870155550030991
1733902771349091300,3.54009130859375,-0.25493396148979663,0.4579804993540048,0.26242614387609065
1733902771359118300,3.550118408203125,1.1667080299019812,0.7532809580236673,0.6648587974008172
1733902771369145000,3.56014501953125,1.339460551789403,0.7311416069298983,0.4036620126565918
1733902771379172400,3.57017236328125,0.4993722479283809,0.7883283060073852,0.4120891012728214
1733902771389198300,3.5801982421875,-0.8260399047642946,-1.0629887122303248,-0.7695094776384532
1733902771399225300,3.590225341796875,-0.2252285590559244,-1.036836618363857,-0.47848980156052856
1733902771409252000,3.600252197265625,0.13354863874614237,0.34776714348793025,0.05512262442084029
1733902771419279400,3.610279296875,0.3269365369051695,0.6242068343430757,-0.8759378350730985
1733902771429305300,3.620305419921875,-0.30037936936914916,-0.2584773331850767,-1.8178087163895367
1733902771439332400,3.630332275390625,-0.827747293204069,-1.8057804249435663,-0.9468776035625487
1733902771449359000,3.640359130859375,-1.455704419991374,-1.783227232351899,1.708410037907213
1733902771459385000,3.650385009765625,-2.663090497240424,0.6838625538825989,0.415519660243392
1733902771469412400,3.660412353515625,0.19339082076847552,0.6390197880715132,1.785329903719574
1733902771479439400,3.670439453125,1.7544921362549066,-1.221998539969325,2.0247195284664627
1733902771489466000,3.680466064453125,0.5819663599848747,-1.9558394689857959,2.5517975294440984
1733902771499492000,3.6904921875,-0.14639058466255664,-2.5582833843320607,3.3272850585788487
1733902771509519400,3.700519287109375,1.006793362277746,-2.687445770817995,2.593697812062502
1733902771519546400,3.71054638671875,0.9573246902316808,-2.3979057753711936,1.838198301206529
1733902771529573000,3.720572998046875,0.15544541325569153,-1.091229887330532,2.3926456628859043
1733902771539599000,3.73059912109375,0.43796296271979807,-0.43630701220631596,2.522534902341664
1733902771549626400,3.74062646484375,0.9398615142554044,-0.4303443044096231,2.0293863512337205
1733902771559653400,3.7506533203125,1.2076911976754665,-1.0182307020932435,1.313965460526943
1733902771569680100,3.76068017578125,0.7601099272608757,-1.4840975707828998,0.8073640650626271
1733902771579706000,3.7707060546875,0.524419010901451,-1.5360849476516245,0.6481011393453926
1733902771589733400,3.7807333984375,0.41419454911947245,-1.3774527210533618,-0.02920920271503273
1733902771599760400,3.790760498046875,0.01692541583776474,-0.7079565461754799,-0.8683389043767005
1733902771609786400,3.800786376953125,-0.23365736470520496,0.17759937739670276,-0.7590586646422743
1733902771619813000,3.810813232421875,-0.3224433171391487,0.816777570900321,-0.3613689678609371
1733902771629840400,3.82084033203125,-0.7722270660340785,1.3110855211764574,-0.029014698489662257
1733902771639867400,3.830867431640625,-0.8196306222438812,1.582498323780298,-0.06295884360498748
1733902771649893400,3.840893310546875,-0.5472527740001678,1.6624655944645403,-0.3817455470658839
1733902771659920100,3.850920166015625,-0.036466567131876945,1.7724889807164668,-0.2955811753071844
1733902771669947100,3.860947021484375,-0.13725041587352751,1.4193921666383742,0.009225719047477468
1733902771679974400,3.870974365234375,-0.27552783670723435,0.855987299260497,-0.3909154534060508
1733902771690000400,3.88100048828125,-0.2602496035546064,0.5698457140803337,-0.3855435145767405
1733902771700027100,3.891027099609375,-0.3828793734014034,0.5396908143132925,-0.3988380630988627
1733902771710054100,3.90105419921875,-0.26292496024370193,0.41510172709226606,-0.3586917845409363
1733902771720080400,3.911080322265625,-0.17340367927253245,0.21577684009969234,-0.022338412763248196
1733902771730107400,3.921107421875,-0.14674655849337576,0.0464373415261507,0.12066636081933975
1733902771740134100,3.931134033203125,-0.05122399128079414,0.012525719574093819,0.3247527265926823
1733902771750161200,3.9411611328125,-0.0664794280797243,0.03307224851846695,0.4511719153176993
1733902771760187100,3.951187255859375,0.05045768308341503,0.10213409430682659,-0.04571378562510944
1733902771770214400,3.96121435546875,0.6116881290316581,0.7923702748745679,-1.1758416228197515
1733902771780241200,3.9712412109375,1.0480109233289956,1.0275503191024065,0.24745617295503614
1733902771790268200,3.98126806640625,-0.8116004605233669,-0.2912105590075254,0.36439511074908076
1733902771800294100,3.991294189453125,-1.3362497730493546,-0.7067068383753299,-0.067711381027475
1733902771810321400,4.0013212890625,-1.0795768589377404,-0.5618827723771334,-0.4046557729342952
1733902771820348200,4.01134814453125,-0.34317572404444213,-0.165633045271039,-0.4980876514779404
1733902771830374100,4.0213740234375,0.30738720230460165,0.034087563040852545,-0.20297307076919824
1733902771840401200,4.031401123046875,0.3172439949303865,-0.10650222638845443,0.06502605093363673
1733902771850428400,4.041428466796875,0.16140402939915657,-0.2156084977954626,-0.040626390225067734
1733902771860455200,4.051455078125,0.08885551053881645,-0.1742687716692686,-0.09894651377927512
1733902771870481200,4.061481201171875,0.06199439162015914,-0.058063481912016865,-0.008317125435732304
1733902771880508200,4.071508056640625,0.030227965003252026,0.012683540484309195,0.03456650566421449
1733902771890535400,4.081535400390625,0.060818918099999425,0.05458674571216106,-0.0016062296202406286
1733902771900562200,4.091562255859375,0.00265606746673584,0.055364744347333905,-0.0004103708991780877
1733902771910588200,4.101588134765625,-0.07156769112944603,0.01993862617909908,-0.11029453134350478
1733902771920615200,4.111615234375,-0.08873276094198226,-0.017667758637666703,-0.20506127522010356
1733902771930642400,4.121642333984375,-0.08481295714974403,-0.042892216265201566,-0.2780745620479807
1733902771940668400,4.13166845703125,-0.11732172656655311,-0.064279287686944,-0.3180343781230971
1733902771950695200,4.141695068359375,-0.1498772577345371,-0.07832651773989201,-0.26421989542506635
1733902771960722200,4.15172216796875,-0.17331950812041758,-0.06548749443292617,-0.1988958844581619
1733902771970749400,4.16174951171875,-0.1087082120001316,-0.06379354999661445,-0.1764060759589076
1733902771980775400,4.171775390625,-0.11258768378198146,-0.043217210435867306,-0.07787501111272722
1733902771990802200,4.18180224609375,-0.11982932547330856,-0.017679449075460433,0.017353139730542897
1733902772000829200,4.1918291015625,-0.10717851821482181,0.04540975204408169,0.11996098902896046
1733902772010855200,4.201855224609375,-0.0962298386991024,0.11320844602882861,0.26065957259498534
1733902772020882400,4.21188232421875,-0.044759763702750206,0.16215806263685226,0.3157465594468638
1733902772030909200,4.2219091796875,0.0211316353559494,0.1882324150919914,0.31866427352447063
1733902772040936200,4.231936279296875,0.06918751799464225,0.1774187601327896,0.26819687276463955
1733902772050962200,4.241962158203125,0.07171966682076454,0.1605699166625738,0.18563342984104528
1733902772060989400,4.251989501953125,0.11349895340800285,0.13077040620446204,0.12466094688083976
1733902772071016200,4.26201611328125,0.0684060122281313,0.14208032024800776,0.05343006822401657
1733902772081042200,4.272042236328125,0.010077157378196715,0.1346416946798563,-0.046750590460095554
1733902772091069200,4.282069091796875,-0.02744680985212326,0.09730652801990508,-0.13131622178526595
1733902772101096200,4.29209619140625,-0.16327274588048457,0.08082944047152996,-0.13077120992206037
1733902772111123200,4.302123291015625,-0.18582652299404143,0.030830607071518898,-0.12531053336337208
1733902772121149200,4.312149169921875,-0.21083120039105413,-0.010529577320814132,-0.05613713522562757
1733902772131176200,4.32217626953125,-0.22199790657162666,-0.040460605204105375,0.012536734158452599
1733902772141203200,4.332203125,-0.24951252096295357,-0.08876081799268722,0.07591267979750409
1733902772151230200,4.342230224609375,-0.23102234002649782,-0.11357844838500022,0.1598245781879872
1733902772161256200,4.352256103515625,-0.1762824495792389,-0.15040741908848285,0.24504220714848488
1733902772171283200,4.362283203125,-0.11754501392841338,-0.1995049197345972,0.3463707937587052
1733902772181310200,4.372310302734375,-0.07977204037308692,-0.22215280487239358,0.429065772373788
1733902772191336200,4.382336181640625,-0.04797697218358517,-0.23236089515388011,0.44421544724330303
1733902772201363200,4.39236328125,-0.03499240292608738,-0.21587971595227717,0.4667681283783167
1733902772211390200,4.40239013671875,-0.04561959540247917,-0.14793138436377049,0.4519566359546035
1733902772221417200,4.412417236328125,-0.02609481072127819,-0.061363107979297636,0.3804197783548385
1733902772231443200,4.422443115234375,-0.01029226143360138,-0.001838321343064308,0.2944051537977531
1733902772241470500,4.432470458984375,-0.03363806570768356,0.0440408017784357,0.19205705141406504
1733902772251497200,4.442497314453125,-0.05659224031567573,0.04018529539406299,0.08549721308685838
1733902772261523200,4.452523193359375,-0.07649521065950393,0.04901099140644073,-0.041015910132462155
1733902772271550200,4.46255029296875,-0.1272252809435129,0.08741641764640808,-0.11988743060240521
1733902772281577500,4.472577392578125,-0.15213234318494795,0.11165186423659323,-0.15963479123692959
1733902772291604200,4.482604248046875,-0.10906769296228885,0.15900690512955187,-0.16265428518857805
1733902772301630200,4.492630126953125,-0.12023732175230979,0.15706336984634398,-0.1700889835002832
1733902772311657200,4.5026572265625,-0.10963000302016734,0.13509762175381182,-0.18053681908808647
1733902772321684500,4.5126845703125,-0.12400222724378109,0.03814648304283619,-0.1676893932789564
1733902772331710500,4.52271044921875,-0.10468202522397041,-0.04735387184917927,-0.14289424871308729
1733902772341737200,4.5327373046875,-0.06637304509580134,-0.10639935053586959,-0.12385273577049374
1733902772351764000,4.542763916015625,-0.052474868124723434,-0.11062661284208297,-0.1197666446337942
1733902772361791000,4.552791015625,-0.0646890375316143,-0.05322480970919132,-0.10238341115908697
1733902772371817000,4.56281689453125,-0.07668342670798302,0.028707039046287536,-0.06930644993288441
1733902772381843700,4.57284375,-0.04351882373094559,0.10564823990762233,-0.04572310144272632
1733902772391870700,4.58287060546875,-0.042618660020828245,0.19586568644940852,-0.032874972380697726
1733902772401897000,4.59289697265625,-0.07925006232559681,0.2581359724014997,-0.0337674185752403
1733902772411924000,4.602924072265625,-0.10544541081190109,0.2982259907275438,-0.08180536369844339
1733902772421950700,4.61295068359375,-0.1926642600595951,0.3752548698723316,-0.16209062342382966
1733902772431977700,4.622977783203125,-0.1979582748144865,0.3941016091614961,-0.20039414192559196
1733902772442003700,4.633003662109375,-0.1583919881016016,0.3663105159163475,-0.1807013437337242
1733902772452031000,4.643031005859375,-0.08610708861351013,0.28700609305500985,-0.13280083431983367
1733902772462057700,4.6530576171875,-0.03101297790110111,0.17873334986269473,-0.09320442646332085
1733902772472084700,4.663084716796875,-0.032115386185050006,0.10621931779384612,-0.09900278314431198
1733902772482110700,4.67311083984375,-0.011401683980226516,0.08947685730755328,-0.09295699104089289
1733902772492138000,4.683137939453125,-0.015253098711371421,0.06535013178884982,-0.09379880302674136
1733902772502164700,4.693164794921875,-0.010247837769985198,0.04470248055756092,-0.12498835220430046
1733902772512190700,4.703190673828125,-0.040431379109621045,0.011067921981215477,-0.17408461074139922
1733902772522217700,4.7132177734375,-0.07120937921106815,-0.029898294657468794,-0.18935856957770883
1733902772532245000,4.723244873046875,-0.07769348053336143,-0.011333294919133185,-0.2223273394553922
1733902772542271700,4.733271728515625,-0.08872808476686476,0.008547463592886924,-0.22831256961114704
1733902772552297700,4.743297607421875,-0.08674597103893757,0.06969722108244895,-0.24332667193487284
1733902772562324700,4.75332470703125,-0.06759878749847412,0.13782792350053785,-0.28020556446099654
1733902772572352000,4.76335205078125,-0.058577276653051374,0.18308394628763197,-0.2807734457431361
1733902772582378000,4.7733779296875,-0.08134440425634383,0.21421207500100134,-0.3221348722444847
1733902772592404700,4.78340478515625,-0.12582768910527228,0.26171616897583005,-0.40914731219988315
1733902772602431700,4.793431640625,-0.18413257855772971,0.2781739673018455,-0.420975733692199
1733902772612459000,4.803458984375,-0.31605858453810215,0.2588262927532196,-0.4122505023796111
1733902772622485000,4.813485107421875,-0.2813222021996975,0.24539105711877346,-0.4013223176626488
1733902772632511700,4.82351171875,-0.1785340278983116,0.19486732306182383,-0.3077392671452835
1733902772642538800,4.833538818359375,-0.1770183626383543,0.1220277123004198,-0.2566991993303411
1733902772652564700,4.843564697265625,-0.17652970233857632,0.08366787876784801,-0.2097879018831998
1733902772662592000,4.853592041015625,-0.11164543449580669,0.07839841393232345,-0.14731281407400965
1733902772672618800,4.86361865234375,-0.10295125590860843,0.07708090159296989,-0.0885233742413111
1733902772682645800,4.873645751953125,-0.10365151313245295,0.10108487751483916,-0.03231447982056997
1733902772692671700,4.883671630859375,-0.07004910326004028,0.1300970369875431,0.02583261612113565
1733902772702699000,4.893698974609375,-0.01781739624142647,0.1427542739868164,0.04599499545297585
1733902772712725800,4.903725830078125,0.0017079729616641998,0.12803601280450821,0.02378582139285281
1733902772722751700,4.913751708984375,0.02076338656544685,0.11384732845425605,0.01640171162406914
1733902772732778800,4.92377880859375,0.010917115333676338,0.07287585111856461,0.018056228232290594
1733902772742806000,4.933805908203125,0.021351415586471557,0.020215105032920837,-0.008071763239381835
1733902772752832800,4.943832763671875,0.01852700581550598,-0.023573183289170265,-0.021352575497096404
1733902772762858800,4.953858642578125,0.021325696623325348,-0.04475508752763271,-0.010040350765455513
1733902772772885800,4.9638857421875,-0.02026537391543388,-0.061061494684219356,-0.029064775575930252
1733902772782912800,4.973912841796875,-0.05628770441114902,-0.07361936296224594,-0.0470272063112352
1733902772792939000,4.98393896484375,-0.05521510674357414,-0.08301789042651653,-0.02342120759785175
1733902772802965800,4.9939658203125,-0.06449672982990741,-0.08738952963948249,0.0044992019822355355
1733902772812992800,5.00399267578125,-0.10715513733923435,-0.06688742435872555,0.037749939739611
1733902772823019800,5.014019775390625,-0.09975684378147125,-0.022858897539973257,0.07775333922812715
1733902772833046000,5.0240458984375,-0.0717734428346157,0.008126023310422897,0.11357738893907517
1733902772843072800,5.03407275390625,-0.04700958845615387,0.03560907351970673,0.15004633069112897
1733902772853099800,5.044099853515625,-0.02088204450905323,0.05447217942178249,0.15945203681485726
1733902772863125800,5.054125732421875,-0.04859598086476326,0.046534372159838674,0.1342536817429587
1733902772873152800,5.06415283203125,-0.06624386575818061,0.01198269873857498,0.1032274242351763
1733902772883179800,5.0741796875,-0.07837678662240505,-0.07887596831619739,0.08831446246467531
1733902772893205800,5.084205810546875,-0.09295885420441627,-0.1372241123884916,0.08995475875129923
1733902772903232800,5.094232666015625,-0.08206687331199645,-0.173527597913146,0.08086299568125978
1733902772913259800,5.104259765625,-0.10176935264766215,-0.1720639551013708,0.08042356308437884
1733902772923287000,5.114287109375,-0.09078969347178935,-0.14661971724331377,0.02005399618707597
1733902772933312800,5.124312744140625,-0.09640285717844962,-0.10664426520764828,0.0057697790404781695
1733902772943339800,5.13433984375,-0.0763525873184204,-0.08796586822271346,-0.013545965999923646
1733902772953366800,5.14436669921875,-0.023840309792757034,-0.043026071777939795,-0.012047781597729772
1733902772963392800,5.154392822265625,0.010024550408124923,0.011641337954998016,-0.009216905553359538
1733902772973420000,5.164419921875,-0.013541034096479415,0.04483049085140228,-0.015793543997313825
1733902772983446800,5.17444677734375,-0.04031798186302185,0.04317278677225113,-0.027475323560554533
1733902772993473800,5.184473876953125,-0.10589958432018756,0.018398410999774933,-0.01229444983517751
1733902773003499800,5.194499755859375,-0.1431640238314867,-0.006532616639137268,-0.016954422736540437
1733902773013527000,5.204527099609375,-0.1782376753002405,-0.01775485239923,0.0035933665831573303
1733902773023553800,5.2145537109375,-0.17979191900491714,-0.03827800046801567,0.034150837535411115
1733902773033579800,5.224579833984375,-0.16917466340065002,-0.06001636954545975,0.07883128892425448
1733902773043606800,5.234606689453125,-0.16229776336848734,-0.05519114134609699,0.08112301659062504
1733902773053634000,5.244634033203125,-0.14494681559503078,-0.024567455023527144,0.09521249661641194
1733902773063660800,5.254660888671875,-0.1387234110355377,0.014746902754902839,0.10006137968599796
1733902773073686800,5.264686767578125,-0.10621697970628738,0.04746960718333721,0.11377517653349786
1733902773083713800,5.2747138671875,-0.08039514070749282,0.09221592688262462,0.11339447012022137
1733902773093741000,5.284740966796875,-0.0667979925096035,0.10768471417129039,0.1154047322303988
1733902773103767000,5.29476708984375,-0.06776011554002762,0.13425240310132502,0.10554415847864002
1733902773113793800,5.304793701171875,-0.10232815557420254,0.13959201056361198,0.08375789513885974
1733902773123820800,5.31482080078125,-0.05875497130751609,0.12420038016438484,0.05343792273690924
1733902773133846800,5.3248466796875,-0.06805179196298122,0.11047113001942634,0.01605528193973005
1733902773143874000,5.3348740234375,-0.08297872745990753,0.10952771168947219,-0.00850051917862147
1733902773153900800,5.34490087890625,-0.11774492041468619,0.11358254003822803,-0.0507015200429596
1733902773163927800,5.354927734375,-0.15606617550253868,0.11160451796352863,-0.07538317603068426
1733902773173953800,5.364953857421875,-0.16143559358119963,0.12341419822275637,-0.09173667373200878
1733902773183981000,5.37498095703125,-0.16829788056612013,0.08545651575028895,-0.08369575315546243
1733902773194007800,5.3850078125,-0.16488076559901235,0.08533551971912383,-0.06353577584326267
1733902773204033800,5.39503369140625,-0.15715689334869384,0.08011573924422263,-0.04336867467053234
1733902773214060800,5.405060791015625,-0.12928455156087876,0.0612426964700222,-0.013014197210781276
1733902773224088000,5.415088134765625,-0.11924597262740134,0.03371405355334282,0.003077580814436078
1733902773234114800,5.42511474609375,-0.10441197611093521,0.03604746493697166,0.004857924892567098
1733902773244140800,5.435140869140625,-0.09146247816681861,0.04408873257339001,0.010044168424047529
1733902773254167800,5.445167724609375,-0.10556932945251464,0.02029284644424915,0.02476524261794984
1733902773264194800,5.45519482421875,-0.09927285965681075,0.02767769599854946,0.03763853352069855
1733902773274221000,5.465220947265625,-0.1022118357181549,0.021656536012887955,0.041929472180269656
1733902773284247800,5.475247802734375,-0.08945639904141425,0.003035422173142433,0.048043425015918906
1733902773294274800,5.48527490234375,-0.09441782084107399,-0.02046469587981701,0.05480608755126595
1733902773304301800,5.4953017578125,-0.06744447371959686,-0.021864625805616378,0.06265753170400858
1733902773314328000,5.505328125,-0.046452539095282554,-0.035165421405434605,0.04653218020275235
1733902773324354800,5.515354736328125,-0.007982230925559997,-0.029529461345076558,0.031906017750687896
1733902773334381800,5.5253818359375,0.009279869520664214,-0.022251579296588896,0.014679828868061304
1733902773344407800,5.53540771484375,0.027218261793255805,-0.006197685596346855,-0.011447788144275545
1733902773354434600,5.5454345703125,0.04736380872130394,0.010204583150148392,-0.052679779579676685
1733902773364461600,5.555461669921875,0.04783960953950882,0.017365560820698737,-0.07734002745319157
1733902773374487600,5.565487548828125,0.042272623062133786,0.006744798085093498,-0.09622676995918154
1733902773384514600,5.5755146484375,0.029297406154870986,-0.020013444980978963,-0.10010441511012613
1733902773394541600,5.58554150390625,-0.005695581293106078,-0.07389934894740581,-0.08345931405108421
1733902773404568600,5.595568603515625,-0.046773441612720484,-0.10006488681733608,-0.084469842800498
1733902773414594600,5.605594482421875,-0.06794423993527889,-0.09257482332289219,-0.06422719217352568
1733902773424621600,5.61562158203125,-0.10086392824053764,-0.1047346321940422,-0.06003792379014194
1733902773434648600,5.625648681640625,-0.11873977667093276,-0.06978139223456382,-0.07292568160966038
1733902773444674600,5.635674560546875,-0.14634791456460952,-0.02172200246453285,-0.05061455414555967
1733902773454701600,5.64570166015625,-0.14729542454779146,0.023351064971089363,-0.06024539252836257
1733902773464728600,5.655728515625,-0.15196809253394603,0.05516133072972297,-0.04151000465918332
1733902773474755600,5.665755615234375,-0.16074702679514885,0.07777122194468974,-0.04522708895355463
1733902773484781600,5.675781494140625,-0.14645897372364997,0.07459726808369159,-0.03293989084307104
1733902773494808600,5.68580859375,-0.12066168464422225,0.08859422925412655,-0.019846965840272603
1733902773504835600,5.695835693359375,-0.11517185505628585,0.08652852889597415,0.0012883593101054428
1733902773514861600,5.705861572265625,-0.1317909814238548,0.0971054524898529,-0.021343707204051314
1733902773524888600,5.715888671875,-0.1542483124256134,0.11207973425984381,-0.029603220701031385
1733902773534915600,5.72591552734375,-0.1452162801861763,0.12704641724526883,-0.0571118802756071
1733902773544941600,5.735941650390625,-0.17954408172369002,0.13709201044142244,-0.06701576344612986
1733902773554968600,5.745968505859375,-0.22662848898172377,0.1350683956593275,-0.09587105185668915
1733902773564995600,5.75599560546875,-0.21983166844844818,0.13750935907065867,-0.08128657312188298
1733902773575022600,5.766022705078125,-0.18886720586419103,0.15982815838456152,-0.06728460698276757
1733902773585048600,5.776048583984375,-0.13143617663681506,0.19910744484961032,-0.055110586923174554
1733902773595075600,5.78607568359375,-0.06559738454818725,0.21793255682885646,-0.045536483696289355
1733902773605102600,5.7961025390625,-0.04508475787341595,0.20588672972619532,-0.042926776121929286
1733902773615128600,5.806128662109375,0.03074117522239685,0.17870061663687228,-0.010882592009566724
1733902773625155600,5.816155517578125,0.08512216922938823,0.13741817365586756,-0.009866948693618177
1733902773635182600,5.8261826171875,0.13431319337785244,0.08826046725511551,0.009628463762626051
1733902773645209600,5.836209716796875,0.1242623394846916,0.06103694476485252,0.024198073721863327
1733902773655235600,5.846235595703125,0.0875327375024557,0.017234627917408943,0.02858238975331187
1733902773665262600,5.8562626953125,0.03230184866786003,-0.015683891344070434,-0.019689765984565018
1733902773675289600,5.86628955078125,-0.042919688794016836,-0.0190185887247324,-0.0618820172868669
1733902773685315600,5.876315673828125,-0.1101987428188324,-0.018459785798192022,-0.07618830013480037
1733902773695342600,5.886342529296875,-0.14505845927596092,-0.017261515924334524,-0.0931440380455926
1733902773705369600,5.89636962890625,-0.1454652865111828,-0.03256079186499119,-0.105023605203256
1733902773715395600,5.9063955078125,-0.12735329123735428,-0.038970074385404584,-0.11786657403297722
1733902773725422600,5.916422607421875,-0.12100187638401984,-0.041326866644620895,-0.11185012675505131
1733902773735449600,5.92644970703125,-0.12165069568157195,-0.03013210341334343,-0.08334047344438732
1733902773745476600,5.9364765625,-0.1468622938275337,0.012450900772213934,-0.07503123905416578
1733902773755502600,5.946502685546875,-0.12907996889948845,0.07973229288458823,-0.07372209268435835
1733902773765529600,5.956529541015625,-0.09100713561475277,0.154843940231204,-0.049388336818851526
1733902773775556600,5.966556640625,-0.011774608945846556,0.18230594765245914,-0.025415304024517534
1733902773785582600,5.97658251953125,0.06863222219944,0.17566519446372986,-0.003072904639318585
1733902773795609600,5.986609619140625,0.09863339270949363,0.1446539701282978,-0.0160549531461671
1733902773805636600,5.99663671875,0.10341244367957114,0.10567454339265822,-0.007829305386170745
1733902773815662600,6.00666259765625,0.07072130343317985,0.06273965702950954,0.016554792427085338
1733902773825689600,6.016689697265625,-0.013682488393783568,-0.009728782331943511,0.007019340710155666
1733902773835716600,6.026716552734375,-0.14067922127842902,-0.07156769112944603,-0.01225461101513356
1733902773845743600,6.03674365234375,-0.19456044906973838,-0.1500350786447525,-0.022860651105642317
1733902773855769600,6.04676953125,-0.23731880982220172,-0.189022104164958,-0.01046462232582271
1733902773865796600,6.056796630859375,-0.29859073238670825,-0.18815175107121465,-0.002104644129052758
1733902773875823600,6.06682373046875,-0.3281973506212234,-0.1653583199828863,-0.010080006922408938
1733902773885849600,6.076849609375,-0.3048293345153332,-0.15551730944812298,-0.007049845446273684
1733902773895876600,6.086876708984375,-0.2445253802001476,-0.12471125229597091,-0.03266030671671033
1733902773905903600,6.096903564453125,-0.16253332569003104,-0.10236381140947341,-0.05641856424920261
1733902773915929600,6.1069296875,-0.10432312878370284,-0.05307224949598312,-0.028579978600516913
1733902773925956600,6.11695654296875,-0.06159165603816509,0.01775192978978157,-0.011732961761206388
1733902773935983600,6.126983642578125,-0.05284837761223316,0.09381517877280711,0.006347834656760096
1733902773946010600,6.1370107421875,-0.03834112883210182,0.16423954508602617,0.018602628334984182
1733902773956036600,6.14703662109375,-0.04315349754989147,0.1954571056485176,0.02844400419592857
1733902773966063600,6.157063720703125,-0.09089958358705043,0.1831570115238428,0.07007284946180879
1733902773976090600,6.167090576171875,-0.11991057401597499,0.17819792781174182,0.11130370838604867
1733902773986116600,6.17711669921875,-0.11944938624501228,0.1665571743786335,0.13826288085170088
1733902773996143600,6.1871435546875,-0.13047697621583937,0.18103227445483205,0.1306411538016051
1733902774006170600,6.197170654296875,-0.178790633007884,0.17960019582509992,0.10955606100112199
1733902774016197600,6.20719775390625,-0.19873627344965933,0.17164309934079647,0.09596490415260195
1733902774026223600,6.2172236328125,-0.20343875205218792,0.14134732979834078,0.05593333801552653
1733902774036250600,6.227250732421875,-0.19471125571727751,0.08453297116458415,0.039493294541910286
1733902774046277600,6.237277587890625,-0.16694588143527506,0.07090951948165893,0.02240998472869396
1733902774056303600,6.2473037109375,-0.12935703227519987,0.06322422567605972,0.03179850225560367
1733902774066330600,6.25733056640625,-0.0899123261153698,0.07829436903595924,0.04882182550989091
1733902774076357600,6.267357666015625,-0.08851473427712916,0.059013329982757566,0.047077758321538564
1733902774086383600,6.277383544921875,-0.052882864403724666,0.05769523312151432,0.010800430151447653
1733902774096410600,6.28741064453125,-0.04012275155186653,0.012810966256260872,0.01048946450613439
1733902774106437600,6.297437744140625,-0.009118541479110717,-0.020621932268142698,-0.01573328344374895
1733902774116464600,6.307464599609375,0.02545125212073326,-0.0462806896597147,-0.05084346753060817
1733902774126490600,6.31749072265625,-0.0030658173114061354,-0.028767244800925254,-0.1111648844372481
1733902774136517600,6.327517578125,-0.08359715161919594,0.01407937875688076,-0.22688743217885493
1733902774146544600,6.337544677734375,-0.12926584686040876,0.05613748228549957,-0.3342084276042878
1733902774156570600,6.347570556640625,-0.16475976956784724,0.08204875313341617,-0.3888300254341215
1733902774166597600,6.35759765625,-0.18012158935070036,0.13446400002539158,-0.36098406019657847
1733902774176624600,6.367624755859375,-0.14691314723193644,0.18074702777266502,-0.3177386465795338
1733902774186650600,6.377650634765625,-0.1449503227263689,0.22151509149074552,-0.30038609137088057
1733902774196677600,6.387677734375,-0.1656371369242668,0.2173112100601196,-0.2876869149260223
1733902774206704600,6.39770458984375,-0.16961071673035621,0.17705869464874266,-0.2659499340880662
1733902774216731600,6.407731689453125,-0.11852233452796936,0.10113514639735222,-0.2189131653640419
1733902774226757600,6.417757568359375,-0.010244915160536765,0.0507376690685749,-0.1581747651543468
1733902774236784600,6.42778466796875,0.07758125233054161,0.018438743010163305,-0.07220942309908568
1733902774246811600,6.437811767578125,0.12720716076493263,0.0029401451051235196,-0.015790493523702025
1733902774256837600,6.447837646484375,0.10630407346785067,-0.015226210704445837,0.04730506427139044
1733902774266864600,6.45786474609375,0.08689502412080764,-0.044911739394068714,0.13638167021498082
1733902774276891600,6.4678916015625,0.096717329955101,-0.023942601123452187,0.17899061255939303
1733902774286917600,6.477917724609375,0.09009703503251075,0.034115035569667815,0.18185447755791245
1733902774296944600,6.487944580078125,0.033249943172931666,0.10716448968946933,0.18415427893288433
1733902774306971600,6.4979716796875,0.0029430677145719526,0.14558394445478914,0.1681849947761744
1733902774316998400,6.507998291015625,-0.02602291452884674,0.14412790042757986,0.15460947388820348
1733902774327024600,6.518024658203125,-0.009319032487273216,0.1012491281658411,0.11929441487900912
1733902774337051600,6.5280517578125,0.016710311782360075,0.02850245638489723,0.05851714396364987
1733902774347078700,6.53807861328125,0.02029284644424915,-0.09061258333921432,-0.011248612310364841
1733902774357105700,6.548105712890625,0.04924596920609474,-0.1803477993220091,-0.08191548214256764
1733902774367133000,6.5581328125,0.0905693287193775,-0.23578677794933317,-0.050115664712712164
1733902774377160000,6.568159912109375,0.12459668600559234,-0.24519874941706657,-0.0009676759883761406
1733902774387186700,6.578186767578125,0.13016484152674673,-0.215385794955492,0.05656717893965542
1733902774397212700,6.588212646484375,0.059662149280309676,-0.17410978171527386,0.12566716478131712
1733902774407240000,6.598239990234375,-0.008334697625041007,-0.12236205882132052,0.15929032518081365
1733902774417267000,6.608266845703125,-0.07794014877080917,-0.08518354402780533,0.16973675426281987
1733902774427293000,6.61829296875,-0.08895020308494567,-0.06606500205993653,0.1749418486252427
1733902774437319700,6.628319580078125,-0.13228314885497092,-0.08526362352669238,0.11392010142952202
1733902774447347000,6.638346923828125,-0.20591887843012807,-0.16383505593836306,-0.016600129406154154
1733902774457373000,6.648373046875,-0.2497024905771017,-0.24762626882493494,-0.1281379388090223
1733902774467400000,6.65839990234375,-0.25160394028425215,-0.3146931414037943,-0.14467230950258672
1733902774477426700,6.6684267578125,-0.1861591159492731,-0.32444822722077366,-0.09958828228153288
1733902774487452700,6.67845263671875,-0.08056231396794318,-0.21687924838364123,0.012428835070878266
1733902774497480000,6.68847998046875,-0.02933773816525936,-0.10925473996698856,0.10824914312101899
1733902774507507000,6.6985068359375,0.015623101067543029,-0.014460487028956413,0.17877711593918502
1733902774517533700,6.70853369140625,0.03681844930946827,0.10206044454872608,0.1323734574869275
1733902774527559700,6.7185595703125,0.05782499698102474,0.17955577216148375,0.0761729929678142
1733902774537587000,6.7285869140625,0.03639759354889393,0.23639000453948975,0.013405498083308338
1733902774547614000,6.738614013671875,-0.003935585883259773,0.2877566191613674,-0.007767346065863967
1733902774557640000,6.748639892578125,-0.025250761112570762,0.3131616940528154,-0.051234804935753345
1733902774567666700,6.758666748046875,-0.02259878529906273,0.3176286103338003,-0.039486207213997836
1733902774577694000,6.76869384765625,0.061897945508360856,0.258506559279561,-0.0231636526402086
1733902774587720000,6.778719970703125,-0.027449147939682006,0.12495908957719802,0.11593472918756305
1733902774597747000,6.788746826171875,-0.10515139630138873,0.06146656835377216,0.2482565295524895
1733902774607773700,6.798773681640625,-0.136619132232666,0.035682138755917546,0.20557503342851996
1733902774617801000,6.808801025390625,-0.11285539480745792,-0.006485270366072654,0.19361308521702886
1733902774627827000,6.818826904296875,-0.10800795477628707,-0.056361938691139216,0.23486513305976986
1733902774637854000,6.82885400390625,-0.16110416966974733,-0.08871697885096072,0.21212679315954447
1733902774647880700,6.838880615234375,-0.2491524554789066,-0.11572948893904686,0.13723258795589208
1733902774657906700,6.84890673828125,-0.39485447335541246,-0.11026596283614634,0.09451119821295141
1733902774667934000,6.858933837890625,-0.4969821379214525,-0.10849076985716818,0.10393822111934423
1733902774677961000,6.8689609375,-0.6109726742386817,-0.07939268566668033,0.1262928223989904
1733902774687987700,6.87898779296875,-0.6359387731909751,-0.04881576109528541,0.11480784404948353
1733902774698013700,6.889013671875,-0.5901257010430098,-0.01134089370369911,0.11312047548443079
1733902774708041000,6.899041015625,-0.5443681584745645,0.008185644543170929,0.09985255924090743
1733902774718068000,6.90906787109375,-0.5061164614915847,0.042240474358201024,0.11500672762244939
1733902774728094000,6.919093994140625,-0.4160463144659996,0.08373743687272071,0.10854849139377475
1733902774738120700,6.92912060546875,-0.3639835342735052,0.12587328181266783,0.07855828066915273
1733902774748148000,6.93914794921875,-0.27986440460681916,0.14933014524579047,0.042206718219071626
1733902774758174000,6.949174072265625,-0.19324644386172293,0.12318974181711673,-0.04186594195738434
1733902774768201000,6.959200927734375,-0.08787935898303985,0.10190379268229006,-0.10280848643705248
1733902774778227700,6.969227783203125,0.047800446572899814,0.09598024785220623,-0.14049158975183962
1733902774788253700,6.979253662109375,0.14975275457203388,0.12178688928186893,-0.19586349449232218
1733902774798281000,6.989281005859375,0.22039865468144415,0.18317630074620245,-0.25723157090768217
1733902774808308000,6.999307861328125,0.22920330790579319,0.21388474274277686,-0.29430677145719525
1733902774818334700,7.009334716796875,0.23265140253305433,0.19662264229655266,-0.3306161022007465
1733902774828360700,7.019360595703125,0.25511165614426135,0.18368308122456073,-0.3225877671111375
1733902774838387700,7.0293876953125,0.26358780806660653,0.19052724803090093,-0.3051203533511609
1733902774848415000,7.0394150390625,0.2760965765058994,0.2115688670158386,-0.2888664070341736
1733902774858441000,7.04944091796875,0.25186872870028015,0.17046353416740892,-0.26343970483280715
1733902774868467700,7.0594677734375,0.1980056210875511,0.11306406912207603,-0.23544848590567707
1733902774878494700,7.06949462890625,0.19876549954414366,0.059360535985231395,-0.1757209432389587
1733902774888521000,7.07952099609375,0.19924889914691446,-0.014918167668581008,-0.11796893842890858
1733902774898548000,7.0895478515625,0.1777273876905441,-0.03883738791644573,-0.0522120524700731
1733902774908574700,7.09957470703125,0.14727379723787307,-0.0688935034841299,-0.006616860856488347
1733902774918601700,7.109601806640625,0.08473287765085696,-0.09222352566719054,0.009441635953634977
1733902774928627700,7.119627685546875,0.015278233152627944,-0.1336480074673891,0.03374795582294464
1733902774938655000,7.129655029296875,-0.0490080687969923,-0.15952245343625546,0.057653074480220674
1733902774948681700,7.139681640625,-0.08892974481880664,-0.13212006724774836,0.06739164755381644
1733902774958707700,7.149707763671875,-0.17977789047956466,-0.0945440775692463,0.06214841313809156
1733902774968734700,7.159734619140625,-0.20649521701335904,-0.09446282902657985,0.02981521948389709
1733902774978762000,7.169761962890625,-0.16080781707167624,-0.10750935760438442,0.02179484850503504
1733902774988788000,7.1797880859375,-0.07200491350293159,-0.16885142279565332,-0.046761897305399175
1733902774998814700,7.189814697265625,-0.051340895658731456,-0.22004969511330127,-0.08638473651111125
1733902775008841700,7.199841796875,0.020404490125179288,-0.2060270149797201,-0.06680975601263343
1733902775018869000,7.209868896484375,0.12700257810354232,-0.16149521481394766,-0.04606522027812898
1733902775028895000,7.21989501953125,0.22087913167476653,-0.11976268997788428,0.011404606589674949
1733902775038921700,7.229921630859375,0.3047621144980192,-0.14884733016490936,0.05811272788122296
1733902775048948700,7.23994873046875,0.35509997059404846,-0.24946166755855081,0.1443240075215697
1733902775058974700,7.249974609375,0.36799744608998297,-0.38895606296658514,0.1547276203751564
1733902775069002000,7.260001953125,0.28241701169908046,-0.5092220262914896,0.07808985943980515
1733902775079028700,7.27002880859375,0.03968903630971908,-0.5695160437345504,0.08344276477508246
1733902775089054700,7.2800546875,-0.3173790194869041,-0.5743079541862011,0.15203567787744104
1733902775099081700,7.290081787109375,-0.7104279047250748,-0.49157238783240315,0.15907617097347973
1733902775109109000,7.30010888671875,-0.9403560197740792,-0.28161446314454075,0.13678455192744732
1733902775119135700,7.3101357421875,-0.8687228621929883,0.02201660149693489,0.07996909731514751
1733902775129161700,7.32016162109375,-0.472874117103219,0.35212183156609533,0.04890051676928997
1733902775139188700,7.330188720703125,-0.21805589094758032,0.5522995359957218,0.03347819897085428
1733902775149216000,7.340216064453125,-0.16876257546842097,0.6094207686215639,-0.08234707849286496
1733902775159242000,7.350241943359375,-0.002160977426171303,0.5601058258324861,-0.19849070119075476
1733902775169268700,7.360268798828125,0.1550187122762203,0.5664449657261371,-0.3220627203237265
1733902775179295700,7.370295654296875,0.2939642416298389,0.5486895288050174,-0.3308016148354858
1733902775189321700,7.38032177734375,0.35920389878153797,0.3923006972193718,-0.3070836162481457
1733902775199349000,7.390348876953125,0.37928222569227216,0.1757329990029335,-0.2573560740701854
1733902775209375700,7.400375732421875,0.2512742699384689,-0.12924889572560785,-0.211063693972677
1733902775219401700,7.410401611328125,0.071498717546463,-0.4286369159698486,-0.09515008063837885
1733902775229428700,7.4204287109375,-0.028585458493232727,-0.6470932044118642,-0.02631415256038308
1733902775239456000,7.4304560546875,-0.1563964303702116,-0.80827511549294,-0.0009522592235356569
1733902775249482800,7.440482666015625,-0.21087211692333221,-0.8904577241390943,0.09056837887130677
1733902775259508700,7.4505087890625,-0.1385889710009098,-0.9098521604388952,0.1187798164203763
1733902775269535700,7.46053564453125,0.05678220992982387,-0.9385025008618831,0.07812478462271392
1733902775279563000,7.47056298828125,0.25672785916924473,-0.9107377111017704,-0.09780987443216145
1733902775289589000,7.480589111328125,0.16985387783646583,-0.8550409583210945,-0.4341165894899517
1733902775299615700,7.49061572265625,-0.12039163553118705,-0.7522942850738763,-0.6772513921145349
1733902775309642800,7.500642822265625,-0.49684594432115553,-0.4910509943068027,-0.792998635905981
1733902775319668700,7.510668701171875,-0.9069780663073063,-0.06682897216975689,-0.7750399314977228
1733902775329696000,7.520696044921875,-1.282092650926113,0.45870706006288525,-0.4785140226863324
1733902775339722800,7.53072265625,-1.6240706896185875,1.072089133530855,-0.18790785931274293
1733902775349749800,7.540749755859375,-1.7502730572551488,1.6190385406702756,-0.002462663786485791
1733902775359775000,7.55077490234375,-1.737689470013976,1.9382517898470162,0.1455058377172798
1733902775369802000,7.560802001953125,-1.6338485717892646,1.9657137972682712,0.10063764520399272
1733902775379829200,7.570829345703125,-1.5139192930728196,1.7222276969879864,-0.12173011759333312
1733902775389855200,7.580855224609375,-1.2385066071778534,1.3353192142009733,-0.14629472307264804
1733902775399882000,7.590882080078125,-0.9652660046249627,0.8601835819065571,0.13175919804610312
1733902775409909000,7.600908935546875,-0.7414917360305786,0.41425358583033084,0.40645175297297537
1733902775419935000,7.61093505859375,-0.5507499684661626,0.1489496214956045,0.5310937394250184
1733902775429962200,7.620962158203125,-0.22156126872003076,0.03345452583432197,0.6111929659258574
1733902775439989000,7.630989013671875,0.1242412966966629,-0.006503975066542625,0.670992697045952
1733902775450016000,7.64101611328125,0.25030104099214073,-0.05852466968297958,0.7377355983674526
1733902775460042000,7.6510419921875,0.3000210574507713,-0.0280506209641695,0.7307841717943548
1733902775470069200,7.6610693359375,0.18692834675610065,0.007992752319574355,0.6419415207371115
1733902775480096000,7.671095947265625,-0.014417816931009292,0.11024433552622795,0.5184348219253122
1733902775490122000,7.6811220703125,-0.24275135626494884,0.23913784194290635,0.3272613849453628
1733902775500149000,7.69114892578125,-0.35126609151959415,0.32890988280475136,0.1862760203272104
1733902775510176300,7.70117626953125,-0.26179566395282744,0.33615736971497534,0.10805486265793442
1733902775520202200,7.7112021484375,-0.14558394445478914,0.2759130366325378,0.024493074613064526
1733902775530229000,7.72122900390625,0.07611234882175921,0.16312018566727637,0.0030491584375500675
1733902775540256000,7.731256103515625,0.3719078975319862,0.03499824814498424,-0.0241411924354732
1733902775550282000,7.741281982421875,0.5681494315564632,-0.13178922785818575,-0.16005509900823234
1733902775560309200,7.751309326171875,0.5504682289153338,-0.30986732868254185,-0.29891748012304303
1733902775570336000,7.7613359375,0.5181014983177185,-0.4854015902429819,-0.23193054091259835
1733902775580363000,7.771363037109375,0.5954787525087595,-0.5512146633684635,-0.17122151292786
1733902775590389000,7.781388916015625,0.6900193229466677,-0.4368769210487604,-0.1440253168359399
1733902775600416300,7.791416259765625,0.7120546291440725,-0.29023323840796944,0.003973141414672136
1733902775610443000,7.801443115234375,0.637283758059144,-0.06720481974482535,0.13700535507127642
1733902775620469000,7.811468994140625,0.46923137668669224,0.16412907044887542,0.2157213105201721
1733902775630496000,7.82149609375,0.3108616004168987,0.22803660221397876,0.21772738964557647
1733902775640523300,7.831523193359375,0.30732641202807426,0.30346506042480464,0.19156842764690518
1733902775650549200,7.84154931640625,0.3611076865762472,0.28034371255636215,-0.0009812661223113537
1733902775660576000,7.851575927734375,0.33127661193609237,0.06755085670351982,-0.22031711387783287
1733902775670603000,7.86160302734375,0.2998088760048151,0.0016121113717555999,-0.2678947114802897
1733902775680629000,7.87162890625,0.24452421115636824,0.011088380247354507,-0.3026484833449125
1733902775690656300,7.88165625,0.08802724302113056,-0.08588029412031173,-0.325215996722877
1733902775700683000,7.89168310546875,-0.1625087757706642,-0.21549334698319433,-0.22397037568837402
1733902775710710000,7.9017099609375,-0.2598842773735523,-0.22537468952834605,-0.07622501541599631
1733902775720736000,7.911736083984375,-0.16162322510778904,-0.13705167843103408,-0.0794964383020997
1733902775730763300,7.92176318359375,-0.005505611678957939,-0.08684767784774303,-0.040725978142023084
1733902775740790000,7.9317900390625,0.053633975031971926,-0.16447978358268736,-0.052303164819628
1733902775750816000,7.94181591796875,0.03923252471387386,-0.2509843470811844,-0.0761101568646729
1733902775760843000,7.951843017578125,0.03169628399014473,-0.2723018603980541,-0.05317249500006437
1733902775770870300,7.961870361328125,0.09477671728134154,-0.2180523838162422,-0.06337810106351971
1733902775780896300,7.971896240234375,0.16526479648053646,-0.13717384350597858,-0.14252835627645252
1733902775790923000,7.981923095703125,0.3300508695334196,0.028700609305500984,-0.17762173535898326
1733902775800950000,7.991949951171875,0.4341226539045572,0.09644552727639674,-0.17715996306613085
1733902775810977000,8.00197705078125,0.38411213006675243,-0.009834580793976783,-0.2192648283459246
1733902775821003300,8.012003173828125,0.27128128517866135,-0.20186872625648974,-0.24770810188949108
1733902775831030000,8.022030029296875,0.18807517870366572,-0.30947920614778995,-0.1784833206243813
1733902775841057000,8.03205712890625,0.13074059558808804,-0.35475218006968495,-0.09683817985579371
1733902775851083000,8.0420830078125,0.03456277933716774,-0.32946927025318146,-0.09057225132882595
1733902775861110300,8.0521103515625,0.006761164698004722,-0.2549380531430244,-0.02183291549310088
1733902775871137000,8.062136962890625,0.052880526316165924,-0.1452419991493225,0.003468552893400192
1733902775881163000,8.0721630859375,0.17907763325572013,-0.04907119716107845,-0.06883987360075115
1733902775891190000,8.08218994140625,0.3598918810456991,-0.08392623744308948,-0.12332374346032737
1733902775901217000,8.092217041015624,0.4845762453347444,-0.24406126981973647,-0.10391279441714286
1733902775911243300,8.1022431640625,0.5561065270632505,-0.3698059568166733,-0.08011588537469506
1733902775921270000,8.11227001953125,0.5043184721589088,-0.3860907366633415,-0.019114304184168575
1733902775931297000,8.122297119140624,0.3637193303793669,-0.2856388963550329,0.009233400030434132
1733902775941324000,8.132323974609376,0.2918646390020847,-0.09328151028752327,0.0669167965836823
1733902775951350300,8.142350341796876,0.2671983997792005,0.09293430428504944,0.07893420130945741
1733902775961377000,8.152376953125,0.203225986084342,0.22007132242321967,0.0401522699072957
1733902775971404000,8.162404052734376,0.19235037180483341,0.3478016302794218,-0.014198986548557876
1733902775981430000,8.172429931640625,0.12714929309785367,0.3784446058243513,-0.10850757486149668
1733902775991457000,8.18245703125,-0.01953998225033283,0.35327976942956446,-0.152814407164976
1733902776001484000,8.192484130859375,-0.10950842246711254,0.3673679160147905,-0.12935286755673586
1733902776011510000,8.202510009765625,-0.17623159617483614,0.4702846851319074,-0.11211370959468185
1733902776021537000,8.212537109375,-0.12569383359253405,0.6171189219087362,-0.030434008969366547
1733902776031564000,8.22256396484375,-0.04063596177101135,0.7139291908442974,0.02516016021966934
1733902776041591000,8.232591064453125,-0.016361352214217185,0.6806593739271164,-0.016300708068162202
1733902776051617000,8.242616943359375,-0.07164075636565685,0.5350713378190994,-0.021901523749902844
1733902776061644000,8.25264404296875,-0.23511983847320078,0.30767478707432744,-0.07946231683678924
1733902776071671000,8.262671142578125,-0.4218897797971964,0.12284078224897384,-0.14730207348428664
1733902776081697000,8.272697021484374,-0.5974065057009458,0.013470306947827339,-0.17688925636596978
1733902776091724000,8.28272412109375,-0.6731617116481066,0.04220423400104046,-0.22504070833362638
1733902776101751000,8.2927509765625,-0.6529711565345525,0.12213058815300463,-0.1565247329249978
1733902776111777000,8.302777099609376,-0.5522977824300527,0.17388766339719294,-0.06412497390806675
1733902776121804000,8.312803955078126,-0.2677057647794485,0.235742354285717,-0.009983049353957175
1733902776131831300,8.322831298828126,-0.11760638872683048,0.16808511459827422,0.049677127164974806
1733902776141857000,8.33285693359375,-0.14187515306472778,0.0337760128736496,0.09853636207580566
1733902776151884000,8.342884033203125,-0.18568974487185477,-0.0971972224265337,0.08185133086517453
1733902776161911000,8.3529111328125,-0.248870131406188,-0.17088906610310076,0.03369242624342442
1733902776171938300,8.362938232421875,-0.36778351107835766,-0.2217208431959152,-0.00687909198924899
1733902776181964000,8.372964111328125,-0.4799731354534626,-0.19775895285010336,-0.10707169683948159
1733902776191991000,8.382990966796875,-0.4143640604674816,-0.14767653281986712,-0.277931536848098
1733902776202018000,8.39301806640625,-0.2964133883476257,-0.13987959533333777,-0.31219387193396686
1733902776212044000,8.4030439453125,-0.10317629683613777,-0.23286124589145182,-0.26819888205863535
1733902776222071300,8.4130712890625,-0.012311784562468528,-0.4577461060762405,-0.1497692673154175
1733902776232098000,8.42309814453125,-0.06038286477029323,-0.7170353401660918,0.21767470961026847
1733902776242124000,8.4331240234375,-0.11995265959203243,-0.8650129017591476,0.20287403084151445
1733902776252151000,8.443151123046874,-0.23303367984890935,-0.7667384054899216,-0.024387568411976097
1733902776262178300,8.45317822265625,-0.41907063072323797,-0.5428542467802763,-0.1320331926818937
1733902776272204300,8.463204345703126,-0.4742342995405197,-0.23983166942596434,-0.19048764667287468
1733902776282231000,8.47323095703125,-0.3742483231782913,0.08150397873222827,-0.1889480160154402
1733902776292258000,8.483258056640626,-0.1775274812042713,0.35548458599746224,-0.19962832691855728
1733902776302285300,8.493285400390626,-0.14762918654680252,0.5342079989880323,-0.12248758489713073
1733902776312311300,8.503311279296875,-0.23836218139529228,0.6723182465612888,-0.015319003554433584
1733902776322338000,8.513338134765625,-0.3979764047682285,0.7985077547162771,0.08609905143752694
1733902776332365000,8.523364990234375,-0.5669377176791429,0.9295002792388201,0.27038126759901643
1733902776342391000,8.53339111328125,-0.6437830569505691,1.0864333007037639,0.45403673016428947
1733902776352417800,8.543417724609375,-0.518137738674879,1.1665250745505094,0.4852260875456035
1733902776362444500,8.553444580078125,-0.01442483119368553,1.0308815093517303,0.2632793266393244
1733902776372470500,8.563470458984375,0.20908114185333251,0.7911801883071661,0.01924158382564783
1733902776382497500,8.57349755859375,0.14397592473626136,0.437295438721776,0.15059738870263098
1733902776392524800,8.58352490234375,0.15602876610159874,0.10490706615149974,0.24818930953517554
1733902776402550800,8.59355078125,0.22388006705641744,0.015334931775927542,0.1520806129977107
1733902776412577500,8.60357763671875,0.16446224792599676,0.1073053594648838,0.08120967196077108
1733902776422604500,8.6136044921875,0.01763034923672676,0.2625467745810747,0.03914733064845204
1733902776432631800,8.6236318359375,-0.1912561468273401,0.3137543992489576,-0.02357128359302878
1733902776442657800,8.63365771484375,-0.38349312138557434,0.2750935369431972,-0.12530688010156155
1733902776452684500,8.6436845703125,-0.5377928717374801,0.1958458127051592,-0.2336670093163848
1733902776462711600,8.653711669921876,-0.5908113452196121,0.10187222850024699,-0.3123646984562278
1733902776472737500,8.663737548828125,-0.527723897665739,0.03408113330006599,-0.3168671244420111
1733902776482764800,8.673764892578125,-0.3103811234235763,-0.06655833853483199,-0.1329404437199235
1733902776492791600,8.68379150390625,-0.09809095639586449,-0.18322773867249487,0.021832330971211195
1733902776502817500,8.693817626953125,0.028302549898624418,-0.2357727494239807,0.07454349206984043
1733902776512844500,8.703844482421875,0.06774842510223389,-0.24922610523700714,0.08094488354474305
1733902776522871800,8.713871826171875,0.09575988309979439,-0.23008359787166116,0.06889438026696443
1733902776532897800,8.723897705078125,0.11379939765930175,-0.20064766002893447,0.047182314674556254
1733902776542924500,8.733924560546875,0.06811492032706737,-0.18457038545310497,-0.027884324486553667
1733902776552951600,8.74395166015625,-0.07600012061893939,-0.1953863784998655,-0.17639175517261027
1733902776562978800,8.753978759765625,-0.2569336108744144,-0.19965514186024666,-0.3069238225765526
1733902776573004800,8.7640048828125,-0.3965162690877914,-0.16726093873381614,-0.36842531611323354
1733902776583031600,8.774031494140624,-0.37184067751467226,-0.15783318517506123,-0.29143866867497564
1733902776593058600,8.78405859375,-0.23846330368220806,-0.13121055118739605,-0.12646890961825846
1733902776603084500,8.79408447265625,-0.1332031863093376,-0.1237578970938921,-0.0036645138569176196
1733902776613111800,8.80411181640625,-0.0250572843670845,-0.11787409975230694,0.029828736552596092
1733902776623138600,8.814138671875,0.0925040961742401,-0.08255144195854663,0.021984598923474548
1733902776633164500,8.82416455078125,0.20211539449393748,-0.04846446343958378,0.05393807254508137
1733902776643191600,8.834191650390625,0.25282383746802806,-0.05856617073714733,0.11321619094386697
1733902776653218800,8.84421875,0.23928280337154864,-0.0960685106575489,0.14743746336698532
1733902776663245600,8.85424560546875,0.1145031620144844,-0.13438275148272513,0.19192659343481064
1733902776673271600,8.864271484375,-0.008605331259965897,-0.17970365619957446,0.21391981405615806
1733902776683298600,8.874298583984375,-0.09408230527639388,-0.25694413226842877,0.22993410639837383
1733902776693325600,8.88432568359375,-0.10293138216435908,-0.30300211908817287,0.21093772950544953
1733902776703351800,8.894351806640625,-0.03078209175467491,-0.31914778272509575,0.11062763575538992
1733902776713378600,8.904378662109375,0.05583002377152443,-0.28424364260435103,-0.03061608753800392
1733902776723405600,8.914405517578125,0.11465806031525135,-0.18938567678034304,-0.17854454929232597
1733902776733431600,8.924431640625,0.17764321653842924,-0.04647241283953189,-0.30296617099195716
1733902776743458800,8.934458740234374,0.22361820124983786,0.12710837656557558,-0.38224852815195914
1733902776753485600,8.944485595703124,0.20369886429309844,0.26894085953235625,-0.45219782429933547
1733902776763511600,8.954511474609374,0.20705168185234069,0.36997546816468235,-0.48347792870402334
1733902776773538600,8.96453857421875,0.14577975928783415,0.35323300767838955,-0.4835113925822079
1733902776783565600,8.974565673828126,0.054666825211048126,0.24210253696739673,-0.47577480698078867
1733902776793592600,8.984592529296876,-0.06752163060903549,0.13200667000114916,-0.3898312383659184
1733902776803618600,8.99461865234375,-0.21164953103661535,0.0039034371793270108,-0.2973306493230164
1733902776813645600,9.0046455078125,-0.291942380413413,-0.08890285681188106,-0.24032369072660803
1733902776823672600,9.014672607421875,-0.34427696328461166,-0.12146247963309287,-0.08349412963613867
1733902776833698800,9.02469873046875,-0.3026537440419197,-0.07652619031965732,-0.021944851434975862
1733902776843725600,9.0347255859375,-0.21785773802697658,0.01722995174229145,0.11286416263580322
1733902776853752600,9.044752685546875,-0.13569441860318182,0.11082710385024547,0.39340822006985543
1733902776863778600,9.054778564453125,-0.01916764180660248,0.17605682412981985,0.6155950733423232
1733902776873805600,9.0648056640625,0.03101473146677017,0.21585516603291033,0.6654468994870781
1733902776883832600,9.07483251953125,-0.038297289690375325,0.19421675019860266,0.6036416006982326
1733902776893858600,9.084858642578125,-0.235253693985939,0.09003332214653491,0.486861725923419
1733902776903885600,9.094885498046875,-0.4914963999867439,-0.0089449384778738,0.251254542324692
1733902776913912600,9.10491259765625,-0.605863952922821,-0.023752631509304047,0.08695216113552451
1733902776923939600,9.114939697265624,-0.5152268196642399,0.0022287819653749466,0.15650602822452783
1733902776933965600,9.124965576171874,-0.3208160081982612,0.00827273830473423,0.4060869382485747
1733902776943992600,9.13499267578125,-0.2578700149416923,0.048341129320859905,0.48805254314318297
1733902776954019600,9.14501953125,-0.28667350009977816,0.12857026581168174,0.42960225387066603
1733902776964045600,9.155045654296876,-0.2761316478192806,0.18849544994235037,0.35583442234843965
1733902776974072600,9.165072509765626,-0.28972762697339055,0.24544717122018336,0.27254838250502944
1733902776984099600,9.175099609375,-0.24050153151154516,0.26507541627585884,0.23143968865573405
1733902776994125600,9.18512548828125,-0.15001169776916504,0.2958697829902172,0.1418389127075672
1733902777004152600,9.195152587890625,0.023857260927557945,0.27433132039904595,0.1081505781173706
1733902777014179600,9.2051796875,0.17968670506477355,0.25773557490706445,0.08475552787408232
1733902777024205600,9.21520556640625,0.25559564026892184,0.13839958590865134,0.10119462149962782
1733902777034232600,9.225232666015625,0.34239129566848275,0.012166238611936568,0.04821151159182191
1733902777044259600,9.235259521484375,0.3891799348503351,-0.053258711978793144,-0.026521950092166662
1733902777054285600,9.24528564453125,0.2626572492182255,-0.11388707594275474,-0.13479922332912683
1733902777064312600,9.2553125,0.08401099311709403,-0.18376316072344778,-0.20818097814321518
1733902777074339600,9.265339599609375,-0.019857377636432645,-0.17955051146447656,-0.2885765572421253
1733902777084366600,9.27536669921875,-0.11505261259078979,-0.16266659668087957,-0.33110622380524873
1733902777094392600,9.285392578125,-0.09553601121604442,-0.1512245806902647,-0.38467363640703256
1733902777104419600,9.295419677734374,-0.023016718450188635,-0.12134499073326586,-0.4628220211010426
1733902777114446600,9.305446533203124,0.09351005834639071,-0.1303361064404249,-0.38253998537920414
1733902777124472600,9.31547265625,-0.0180512049973011,-0.21354455100297925,-0.4170419744398445
1733902777134499600,9.32549951171875,-0.21043781715929508,-0.26692776614427566,-0.5573519970797002
1733902777144526800,9.33552685546875,-0.3709539578080177,-0.22866963942050933,-0.6359700451120733
1733902777154552600,9.345552490234375,-0.43498716177940366,-0.06929740810990333,-0.6461285240981728
1733902777164579600,9.35557958984375,-0.12031915481686592,0.19626549942195415,-0.5918999441739171
1733902777174606600,9.365606689453125,0.040142625296115876,0.1928553987175226,-0.563592645034939
1733902777184632600,9.375632568359375,-0.14618892461061478,0.05324117632210254,-0.6931677770402283
1733902777194659600,9.38565966796875,-0.29717443584799763,-0.07822948710620403,-0.6809513426110148
1733902777204686600,9.3956865234375,-0.49388650999367234,-0.2531459090292454,-0.6205357446148991
1733902777214713600,9.405713623046875,-0.7128361349105835,-0.34103637392818925,-0.5141041723098606
1733902777224739600,9.415739501953125,-0.9447907873511314,-0.3251630974918604,-0.3394219244688749
1733902777234766800,9.425766845703125,-1.1306290007829665,-0.2750900298118591,-0.18707170074954627
1733902777244793600,9.435793701171875,-1.0895873808205128,-0.11925006428062915,-0.12606179012209176
1733902777254819600,9.445819580078124,-0.8812076652348041,0.010441314515471457,-0.11102525677084922
1733902777264846600,9.4558466796875,-0.5124316359877586,0.11980243746638297,-0.07192658756971358
1733902777274873900,9.465873779296874,-0.24284137263596056,0.1626180813640356,0.03828676829636097
1733902777284899600,9.475899658203126,-0.08621113350987433,0.19474106633365154,0.15921236457377672
1733902777294926600,9.485926513671876,0.0005728314518928528,0.30006080493927,0.2712581965640187
1733902777304953600,9.49595361328125,-0.04233458238244057,0.3755646664738655,0.35247152178660035
1733902777314979600,9.5059794921875,-0.21997546083331107,0.4493400967806577,0.33309257531687614
1733902777325006800,9.5160068359375,-0.2932417725741863,0.5708978534817696,0.27906375574842096
1733902777335033600,9.52603369140625,-0.17269991491734982,0.5618523772388696,0.24150851659700273
1733902777345060600,9.536060546875,-0.05075754281282425,0.4708984331160784,0.15623203358873725
1733902777355087400,9.54608740234375,-0.07046586736738682,0.3700719142764807,-0.00509030887633562
1733902777365114000,9.556114013671875,-0.12431319288909434,0.2819803738474846,-0.058881958688050504
1733902777375141000,9.56614111328125,-0.14758125575184822,0.2430313422501087,-0.07725392007231711
1733902777385167000,9.5761669921875,-0.1041466031730175,0.24157705178856848,-0.044661125633865595
1733902777395194400,9.5861943359375,0.030597967359423637,0.23818448674082754,0.021426672779768705
1733902777405221000,9.59622119140625,0.21755787829756734,0.1616238096296787,0.08615253519043325
1733902777415247000,9.6062470703125,0.30827158392369747,0.04898059626817703,0.11094868440330027
1733902777425274000,9.616274169921875,0.3160948248952627,-0.06225567290484905,0.14797916902825237
1733902777435301400,9.62630126953125,0.19497253700196743,-0.19964111333489418,0.14565861712619663
1733902777445327400,9.636327392578124,0.023810499176383018,-0.2170154419839382,0.09478343928307294
1733902777455354000,9.64635400390625,-0.080478727337718,-0.10585282256901264,0.18511983602941035
1733902777465381000,9.656381103515624,-0.14245324521362782,0.045406829434633256,0.2946143761016428
1733902777475407000,9.666406982421876,-0.14084697906076907,0.13414134394228458,0.3216777395941317
1733902777485434400,9.676434326171876,-0.16200900955498218,0.17220014870166778,0.28944924842342734
1733902777495461000,9.686461181640626,-0.1692360381990671,0.13313129011690616,0.2053796569868922
1733902777505488100,9.696488037109376,-0.16695932543873787,0.029866730475425717,0.06130100252851844
1733902777515514000,9.70651416015625,-0.1900415103405714,-0.06417991896569729,-0.03764525552242994
1733902777525541400,9.716541259765625,-0.2576800453275442,-0.07235095046162605,-0.10475392141640186
1733902777535568100,9.726568115234375,-0.33271395126283165,-0.030471126109361646,-0.09185951466038822
1733902777545594000,9.736593994140625,-0.3398030327409506,0.08382160802483558,0.02525938281044364
1733902777555621000,9.74662109375,-0.273794144782424,0.23611586377322671,0.14015972744897007
1733902777565648400,9.7566484375,-0.07145254031717777,0.3950187240064144,0.22472338601276276
1733902777575674400,9.76667431640625,0.18813363089263438,0.5326631076335907,0.36892873559072614
1733902777585701000,9.776701171875,0.46203708126842974,0.5780693525463342,0.5065083834186196
1733902777595728100,9.78672802734375,0.4459124604195356,0.38931612845063207,0.43247342539280653
1733902777605754000,9.796754150390624,0.235615513035655,0.23361469460725784,0.19022154308259487
1733902777615781400,9.806781494140624,0.139778473046422,0.12022855392396449,0.08931552926599978
1733902777625808100,9.81680810546875,0.11911445520222186,0.04062427133321762,-0.008653846576809883
1733902777635835100,9.826835205078124,0.026488778474926946,0.06042553486824035,-0.17302081743478773
1733902777645861000,9.836861083984376,-0.07488076120018959,0.15554536649882791,-0.1997039494380355
1733902777655888400,9.846888427734376,-0.18754618639349938,0.14937047725617886,-0.19168664719909428
1733902777665915100,9.8569150390625,-0.23883856673538684,0.08447977967262267,-0.17834581184983253
1733902777675941000,9.866941162109375,-0.168753223118186,0.009209726893901824,-0.15729542503654956
1733902777685968100,9.876968017578125,-0.11262041700780391,-0.11531330935359001,-0.12528218405172228
1733902777695995400,9.886995361328125,-0.06652092913389206,-0.20747662926614283,-0.10124591329544783
1733902777706021400,9.897021484375,0.0981558383256197,-0.2403478022545576,0.036074206813424825
1733902777716048100,9.907048095703125,0.08591945708692074,-0.20963585312664507,-0.056807198240607974
1733902777726075100,9.9170751953125,0.006166705936193466,-0.18316402578651905,-0.06418254931420088
1733902777736101000,9.92710107421875,-0.10764730477035045,-0.21726269474327564,0.00974544120579958
1733902777746128400,9.93712841796875,-0.2705132234156132,-0.37270343182384963,0.0803437027812004
1733902777756155100,9.947155029296875,-0.3902560396492481,-0.6021101533472538,0.12310615518689155
1733902777766182100,9.95718212890625,-0.266947639888525,-0.7231254737347363,0.2358760636679828
1733902777776208100,9.9672080078125,0.06606091040670871,-0.7467144391149282,0.435405241061002
1733902777786235400,9.9772353515625,0.4448357710987329,-0.7439742004960775,0.535915825819224
1733902777796262100,9.98726220703125,0.8750941507905721,-0.6729395933300256,0.54100555017367
1733902777806288100,9.9972880859375,1.0883049397945403,-0.5654746593892575,0.359425724838674
1733902777816315100,10.007315185546876,0.99231358602643,-0.45515550506114955,0.08923895689845085
1733902777826342100,10.017342041015626,0.6537953323990107,-0.331208222874999,-0.16376988174766302
1733902777836368400,10.027368408203126,0.2352367428511381,-0.23759704224169254,-0.3713644383050501
1733902777846395100,10.03739501953125,-0.12548866640925407,-0.15503566341102124,-0.5202385103464127
1733902777856422100,10.047422119140625,-0.3333703693449497,-0.10181552987694739,-0.5986769640281796
1733902777866448100,10.0574482421875,-0.3563736437916755,-0.02756839040517807,-0.5728945802569388
1733902777876475400,10.067475341796875,-0.09072714962959288,0.16063596763610838,-0.5482264413379132
1733902777886502100,10.077502197265625,0.2950648963481188,0.2503793669253588,-0.5048908652193844
1733902777896528100,10.087528076171875,0.5171124872803687,0.1800239741951227,-0.44489217746108767
1733902777906555100,10.09755517578125,0.5430635056167841,0.10701192947626113,-0.3820589969292283
1733902777916582100,10.10758203125,0.39345220534205433,0.10420447084009647,-0.2684837634146213
1733902777926609200,10.117609130859375,0.07602408601641654,0.18304302975535391,-0.197516230135411
1733902777936635100,10.12763525390625,-0.1678255868792534,0.3263870863288641,-0.13590031643882394
1733902777946662100,10.137662109375,-0.10674188036322593,0.46326574628055095,-0.02481660747900605
1733902777956689200,10.147689208984374,-0.013050035709142684,0.5557856245458126,-0.040520810958743096
1733902777966715400,10.15771533203125,0.1972176855802536,0.509646389183402,-0.062302434656023975
1733902777976742100,10.1677421875,0.2663625334769487,0.2867395510733127,-0.15101546798422932
1733902777986769200,10.17776904296875,0.17313889085650444,0.06321078167259693,-0.23104221377074718
1733902777996795100,10.187795166015626,0.07801262948513031,-0.13764905980229378,-0.06141206168755889
1733902778006822100,10.197822265625,-0.15880524507761,-0.1692354536771774,0.18914046984761954
1733902778016849200,10.20784912109375,-0.42989831420779223,0.017126491367816923,0.27709333245828743
1733902778026875100,10.217875244140625,-0.6320464419275522,0.2878577414482832,0.24275763987526297
1733902778036902100,10.227902099609375,-0.4994084882855415,0.5001134216845036,0.20949702917784452
1733902778046929200,10.23792919921875,-0.13347908064126968,0.5212625926971435,0.20890739272162318
1733902778056956400,10.247956298828125,0.24475918895602225,0.3846913912594318,0.07379062787592411
1733902778066982100,10.257982177734375,0.6214233411043882,0.16397124953866005,-0.06467223252728581
1733902778077009200,10.268009033203125,0.7040238829016685,-0.06631926908195018,-0.16569325102567672
1733902778087036200,10.2780361328125,0.5004401694208384,-0.24447628036141394,-0.27015038145259024
1733902778097062100,10.288062255859375,0.17674772900342942,-0.2908259436041117,-0.311102569565922
1733902778107089400,10.29808935546875,-0.20886603779792784,-0.18280922099947927,-0.2708760653786361
1733902778117116200,10.3081162109375,-0.5245838460743427,0.003188566908240318,-0.3469198790088296
1733902778127142100,10.31814208984375,-0.6856406694710254,0.17009411633312702,-0.5026705588214099
1733902778137169200,10.328169189453124,-0.6078355452567339,0.2799222722738981,-0.6797238466426729
1733902778147196400,10.338196533203124,-0.5145113648712635,0.2652987036377191,-0.7586553445383906
1733902778157222100,10.34822216796875,-0.4177998801350593,0.09389350470602512,-0.6369587638884783
1733902778167249200,10.358249267578126,-0.39731998668611046,-0.3120850047320127,-0.1536928704999387
1733902778177276200,10.368276123046876,-0.500224480843544,-0.7053092465370893,0.36531405222490426
1733902778187302100,10.37830224609375,-0.6847311534106731,-0.7734317656487226,0.45962636686488983
1733902778197329400,10.388329345703125,-0.8965104483067989,-0.5638339064449072,0.3885381298154592
1733902778207356200,10.398356201171875,-0.9572931260496378,-0.19658640193939209,0.48426060351431366
1733902778217383200,10.408383056640625,-0.8371136719644069,0.17533026342093944,0.6381774920284747
1733902778227409200,10.4184091796875,-0.4960007256686687,0.5559048670113086,0.7209523674793541
1733902778237436400,10.4284365234375,-0.18264029417335986,0.7903338006108999,0.743203946775943
1733902778247463200,10.438463134765625,0.04790390694737434,0.7193237433642149,0.6960954279899597
1733902778257489200,10.4484892578125,0.26217501865923404,0.4452969588696956,0.5622914993084966
1733902778267516200,10.45851611328125,0.29866847379803657,0.16871230658590794,0.31011385078951714
1733902778277543400,10.46854345703125,0.11549100400805473,0.1473199744671583,0.07406959094777703
1733902778287569400,10.4785693359375,-0.06955752035081386,0.3349392260968685,-0.15215645471289754
1733902778297596200,10.48859619140625,-0.22376783885359763,0.47896717328131194,-0.18365882356613875
1733902778307623200,10.498623046875,-0.3520890983402729,0.6043471186190843,-0.43830768450424074
1733902778317649200,10.508649169921876,-0.4445359113693237,0.6598954028397798,-0.6861847132198512
1733902778327676400,10.518676513671876,-0.5547112733125686,0.6933809083342551,-0.8131178793489933
1733902778337703200,10.528703125,-0.5381073445141316,0.7345201434522867,-0.8655835412539541
1733902778347729200,10.538729248046875,-0.40189620856046676,0.8730623527020216,-0.8351265898004174
1733902778357755600,10.548755615234375,-0.21050503717660904,1.0039455716311931,-0.6359060399651527
1733902778367782700,10.55878271484375,0.022129998743534086,1.0366232678741216,-0.31122225042283536
1733902778377809400,10.568809326171875,0.31295535782575606,0.8526555244892835,0.11945377015918493
1733902778387835400,10.57883544921875,0.6083534316509962,0.5361398438334465,0.3369982044532895
1733902778397862700,10.588862548828125,0.7120487839251757,0.32697745343744755,0.35090617216601966
1733902778407889700,10.5988896484375,0.6055775371968746,0.30335400126576423,0.27678251294344663
1733902778417915600,10.60891552734375,0.2879518494725227,0.39466041208803654,0.18798077841848135
1733902778427942400,10.6189423828125,-0.0997808091789484,0.3728846336096525,0.1950135996647179
1733902778437969700,10.6289697265625,-0.35353052932024,0.12166238611936568,0.26351123569905754
1733902778447995600,10.63899560546875,-0.36508360446989535,-0.2943611319929361,0.24795783886685965
1733902778458022700,10.649022705078124,-0.24925182420015335,-0.7146803014725446,0.15942863767296075
1733902778468049400,10.65904931640625,-0.15082009154260156,-1.0934095694571733,0.038028994143009184
1733902778478075400,10.669075439453126,-0.09219313052892684,-1.3284604343473911,-0.10380611917227506
1733902778488102700,10.6791025390625,-0.03287701820731163,-1.4323328967541455,-0.20841727111712097
1733902778498129700,10.689129638671876,0.043996962636709214,-1.408198572450876,-0.29841669099405405
1733902778508155600,10.69915576171875,0.08930559239387512,-1.2715034523725508,-0.32347061436027286
1733902778518182400,10.709182373046875,-0.016378303349018096,-0.9743576580971479,-0.25517551516070963
1733902778528209700,10.719209716796875,-0.23981705637872217,-0.6021925709336996,-0.10077435026094317
1733902778538236700,10.729236572265625,-0.5076841491997242,-0.22582301781773567,0.042961043717712165
1733902778548262700,10.7392626953125,-0.7558569459915161,0.09540507831275463,0.12182342189997433
1733902778558289400,10.749289306640625,-0.8378098375350237,0.37025545414984223,0.16720394784957168
1733902778568316700,10.759316650390625,-0.7315396663367748,0.5971148292779922,0.14632453368902207
1733902778578342700,10.7693427734375,-0.48569911188483234,0.7331079385668039,0.06027049043700099
1733902778588369700,10.77936962890625,-0.22735621873438358,0.6751888335615396,-0.1177982580371201
1733902778598396400,10.789396484375,-0.12117255677580832,0.4291875355899334,-0.22007073790132997
1733902778608422400,10.79942236328125,-0.06604220570623874,0.1475251416504383,-0.17306947888210414
1733902778618449700,10.80944970703125,0.057094929140806196,-0.012612813335657119,-0.029742373443394896
1733902778628476700,10.8194765625,0.20127602106034753,-0.0976718542009592,0.07141790739521384
1733902778638502700,10.829502685546874,0.25593349392116066,-0.12041852353811264,0.08552373576760292
1733902778648529400,10.839529296875,0.29982699618339537,-0.11505845780968665,0.08872750024497508
1733902778658556700,10.849556640625,0.32191374030709263,-0.09607552492022514,0.2084863908305764
1733902778668582700,10.859582763671876,0.19351532393097876,-0.11046294671297073,0.3177712336748838
1733902778678609700,10.869609619140626,-0.007218260815739631,-0.1796066255658865,0.18519143996089696
1733902778688636400,10.879636474609375,-0.13219137891829014,-0.2242313647121191,0.002133943288773298
1733902778698663700,10.88966357421875,-0.2195078433215618,-0.2039835264533758,-0.05931874267011881
1733902778708689700,10.899689697265625,-0.256647195148468,-0.11788228305876254,-0.03064458298012614
1733902778718716700,10.909716552734375,-0.33849253466427326,-0.030305706414580344,-0.05995484861657023
1733902778728743700,10.91974365234375,-0.374953841099143,0.00438099156320095,-0.07104395951628685
1733902778738769400,10.929769287109375,-0.26068507236242294,0.044072950482368464,-0.005418517917394638
1733902778748796700,10.939796630859375,-0.0717909784913063,0.12925006476938725,0.021323358535766602
1733902778758823700,10.94982373046875,0.21662615040540695,0.24629355891644952,0.08044336376339196
1733902778768849700,10.959849609375,0.43215924487709995,0.30615912181437016,0.09964870723187923
1733902778778876400,10.96987646484375,0.6564741962194443,0.3581920913904905,0.07883665921911596
1733902778788903700,10.979903564453124,0.8288952941954135,0.3970294793069362,0.022446955738216638
1733902778798929700,10.9899296875,0.86429978505373,0.3591606441617012,-0.015628069503605364
1733902778808956700,10.999956787109374,0.760444858303666,0.2388309679508209,-0.05326411880627274
1733902778818983700,11.009983642578124,0.4625356784403324,0.07249123571515083,-0.10705986027121543
1733902778829009400,11.020009521484376,-0.016373627173900604,-0.11386194150149821,-0.17949147475361824
1733902778839036700,11.03003662109375,-0.41463644766807556,-0.2511357382506132,-0.18564371377304195
1733902778849063700,11.040063720703126,-0.565695608663559,-0.306741305616498,-0.019548311687260865
1733902778859090700,11.050090576171876,-0.6483306372523308,-0.5344470684409142,0.1462087983548641
1733902778869116700,11.06011669921875,-0.738706489226222,-0.836471866929531,0.06823606248870491
1733902778879143700,11.070143798828125,-0.8130453986346721,-1.1179659185647963,-0.14118234849497674
1733902778889170700,11.080170654296875,-0.9878098448663949,-1.3129706042706966,-0.36126872235685586
1733902778899196700,11.09019677734375,-1.0849556293666363,-1.2465256629824637,-0.4917426298327744
1733902778909223700,11.1002236328125,-1.0194634587585925,-0.9223673586189747,-0.4252553107075393
1733902778919250400,11.11025048828125,-0.7862047379821538,-0.4559948784947395,-0.23758228306397794
1733902778929276700,11.120276611328125,-0.6387491544365882,-0.06439326945543289,-0.04718099950030446
1733902778939303700,11.1303037109375,-0.7442261294305325,0.19481939226686953,-0.0561687542065978
1733902778949330700,11.14033056640625,-0.8292553596794605,0.4113870904833078,-0.10257643124684691
1733902778959356700,11.150356689453124,-0.860448370322585,0.6705471452355385,-0.16359613261595368
1733902778969383400,11.160383544921874,-0.808767282924056,0.9327297626793384,-0.18376155328825114
1733902778979410700,11.17041064453125,-0.6970891152024269,1.0119698881328105,-0.0020160159975290298
1733902778989436700,11.180436767578126,-0.5861725795030593,1.1929296818733215,-0.09605462826266885
1733902778999463700,11.190463623046876,-0.39430560730099673,1.2005319735705853,-0.21126506176367402
1733902779009490400,11.200490478515626,-0.2920534395724535,1.0252619159042835,-0.3329492213234305
1733902779019516700,11.2105166015625,-0.3369026351243257,0.8067226253539324,-0.39498949791193005
1733902779029543700,11.220543701171875,-0.33744682500362394,0.620977935424447,-0.41228754645437
1733902779039570700,11.23057080078125,-0.3652338265955448,0.5350649080783129,-0.45435938624739647
1733902779049597400,11.240597412109375,-0.4376473208993673,0.494092261698842,-0.5110016031846404
1733902779059623400,11.25062353515625,-0.6147539463430642,0.4264157327890396,-0.4715421378470957
1733902779069650700,11.260650634765625,-0.8156348306059837,0.2834124524772167,-0.351139542530477
1733902779079677700,11.270677734375,-0.8131605494469404,0.18971710069179534,-0.17280702855363486
1733902779089703700,11.28070361328125,-0.7033388232469558,0.15145254422724247,-0.014396043490618467
1733902779099730400,11.29073046875,-0.4993342540055513,0.11650164235532283,0.1402536893427372
1733902779109757700,11.3007578125,-0.20612287656962872,0.21707857034802436,0.20258651913702486
1733902779119783700,11.31078369140625,0.08387187690734862,0.3500976322621107,0.2541249831944704
1733902779129810700,11.320810791015624,0.19086627072691917,0.4772498479694128,0.31488296488747
1733902779139837400,11.33083740234375,0.33554595981836316,0.7361410226523876,0.44204190259650344
1733902779149863400,11.340863525390626,0.4482137230992317,1.0078484242886305,0.549829931011796
1733902779159890700,11.350890625,0.504911177355051,1.2126824300915002,0.46928836757093667
1733902779169917700,11.360917724609376,0.6396282753586768,1.3183254093021153,0.4409422707915306
1733902779179943700,11.370943603515625,0.7748363717496395,1.167574291342497,0.46886239724382756
1733902779189970400,11.380970458984375,0.6832382845044136,0.76834525616467,0.44278176117837426
1733902779199997700,11.390997802734375,0.5643073691755532,0.2868383352726698,0.4426362152278423
1733902779210024700,11.401024658203125,0.42941257651746273,-0.17507015118002892,0.3503494150660932
1733902779220050700,11.41105078125,0.39883214481472967,-0.5424111791878938,0.30624300070554017
1733902779230077400,11.421077392578125,0.4429717307925224,-0.819644066247344,0.3559351062439382
1733902779240104700,11.431104736328125,0.46533027759492396,-1.049949782437086,0.3463374029457569
1733902779250130700,11.441130615234375,0.34082594604790206,-1.1522785225331782,0.3057442574031651
1733902779260157700,11.45115771484375,0.19361118552088735,-1.096964631590247,0.4114576715014875
1733902779270184400,11.461184326171875,0.07967676330506801,-0.9597492870301008,0.4781142097137868
1733902779280210400,11.47121044921875,-0.0127443307608366,-0.7070838549941778,0.4959400815226137
1733902779290237700,11.48123779296875,-0.11955050853192806,-0.3936690629631281,0.374104384662956
1733902779300264700,11.4912646484375,-0.2865542576342821,-0.21262509807050226,0.20722338515743613
1733902779310290700,11.501290771484374,-0.4134060290902853,-0.2630249134868383,-0.0270157249584794
1733902779320317400,11.5113173828125,-0.4177747456938028,-0.3604500994503498,-0.18859438027217984
1733902779330344700,11.5213447265625,-0.31621523640453814,-0.3572130172252655,-0.21715967276021836
1733902779340371700,11.531371826171876,-0.174896548178792,-0.32893618628978727,-0.1827849633410573
1733902779350397700,11.541397705078126,0.01648877798616886,-0.2823486226379871,-0.04133022764548659
1733902779360424200,11.551424072265625,0.19547054965198038,-0.2713952669471502,0.11226546609029173
1733902779370451200,11.561451171875,0.3865302971243858,-0.39441608193814753,-0.026041326968371865
1733902779380477200,11.571477294921875,0.5364560701757669,-0.45821956880688663,-0.3422432654999196
1733902779390504400,11.58150439453125,0.5050181448608636,-0.29000702843666076,-0.6563583147548139
1733902779400531200,11.59153125,0.40201837363541126,0.11037409938573836,-0.7108880695827305
1733902779410557200,11.60155712890625,0.34285657509267325,0.596589344099164,-0.6285279124125838
1733902779420584200,11.611584228515625,0.34289749162495137,0.8603969323962927,-0.3826047942437231
1733902779430611500,11.621611572265625,0.32843174389898777,0.8735229559510945,-0.21795549931302666
1733902779440637400,11.631637451171875,0.1795277151107788,0.6546966651529074,-0.3144733611732721
1733902779450664200,11.641664306640624,0.09377426224052905,0.3509440199583769,-0.45775852716639637
1733902779460691200,11.651691162109374,0.16732114448845387,0.061598670300841325,-0.5016168119847774
1733902779470717200,11.66171728515625,0.3017155864089727,-0.06399871717989444,-0.5807990697711706
1733902779480744400,11.671744384765624,0.38002866014540193,-0.09624620531201362,-0.6221028478011489
1733902779490771200,11.681771240234376,0.23161212261319158,-0.16641162842810153,-0.501438532808423
1733902779500797200,11.691797119140626,0.022338673058152198,-0.24204992999732494,-0.35014994697123764
1733902779510824200,11.70182421875,-0.06286123758256434,-0.2587181562036276,-0.17847586797028778
1733902779520851500,11.7118515625,-0.02892155857980251,-0.2412450433552265,-0.03941211906448006
1733902779530878200,11.721878173828125,0.1301525665670633,-0.28185236355364324,0.003943476928770542
1733902779540904200,11.731904296875,0.3066828534275293,-0.424676780167222,-0.10624328319132327
1733902779550931200,11.74193115234375,0.4403939892590046,-0.6687567546874285,-0.2619995159618556
1733902779560958200,11.751958251953125,0.401776381573081,-0.832214209485054,-0.3990557244375348
1733902779570984400,11.761984375,0.310497443279624,-0.9029682461440562,-0.07969064569994806
1733902779581011200,11.77201123046875,0.2884831798702478,-0.757850750157237,0.14971929069384932
1733902779591038200,11.7820380859375,0.15770634392499921,-0.28895138190388675,-0.19339637372642754
1733902779601064200,11.792064208984375,-0.014048983618617056,0.10466390504539012,-0.34100992431268096
1733902779611091500,11.802091552734375,-0.0826619165956974,0.3893985460370779,-0.34764731650054453
1733902779621118200,11.8121181640625,-0.08270458669364451,0.3990174382537603,-0.10499649800062179
1733902779631144200,11.822144287109374,0.04049976817071438,0.3202262256115675,-0.05496010906919837
1733902779641171200,11.832171142578124,0.2463637015432119,0.18107552907466887,-0.17275135284364224
1733902779651198200,11.8421982421875,0.44295828678905963,-0.10628829137682914,-0.1432363584153354
1733902779661225200,11.85222509765625,0.6831073516011238,-0.323509485065937,-0.12582739684432745
1733902779671251200,11.862251220703126,0.7750316020607948,-0.4543699076414108,-0.16294935914501546
1733902779681278200,11.8722783203125,0.6829939543545246,-0.5452332508713007,-0.20647622005194424
1733902779691305200,11.88230517578125,0.4512017989993095,-0.524984243568778,-0.2239221526324749
1733902779701331500,11.89233154296875,0.1230038638561964,-0.33123920253515243,-0.2129305107578635
1733902779711358200,11.902358154296875,-0.25333295603394507,-0.043809915632009505,-0.18183321557417512
1733902779721385200,11.91238525390625,-0.5371282703489065,0.2334936985760927,-0.19664763060733675
1733902779731411200,11.9224111328125,-0.5965069265127182,0.5224906731873751,-0.2546313252814114
1733902779741438200,11.932438232421875,-0.5488520258903503,0.7652800233751536,-0.1630642176963389
1733902779751465200,11.94246533203125,-0.39155134015679355,0.9241858062177896,0.023046090675145386
1733902779761491200,11.9524912109375,-0.34404373905062674,1.0063041174560785,0.2430461014278233
1733902779771518200,11.962518310546875,-0.4106833261281252,0.8937824846476315,0.4518739991724491
1733902779781545200,11.972545166015625,-0.5408294629544019,0.6636795975536107,0.47444545807316896
1733902779791572200,11.982572265625,-0.5394985066115856,0.4179109392940998,0.38496421685144305
1733902779801598200,11.99259814453125,-0.32335166415572164,0.25083646304309365,0.3789031632468104
1733902779811625200,12.002625244140624,-0.03339081294834614,0.1752104364335537,0.20914763121828436
1733902779821652200,12.01265234375,0.329007497960329,0.10336334384083748,0.08046966724842786
1733902779831678200,12.02267822265625,0.6609393589347601,-0.01423661514520645,0.0813664699576795
1733902779841705200,12.032705322265626,0.758151194408536,-0.21515783141851424,0.08749605875387788
1733902779851732200,12.042732177734376,0.4713268876612186,-0.5985264496415853,0.3823851601436734
1733902779861758200,12.05275830078125,-0.1089478659749031,-0.7712415621280669,0.20270254673212765
1733902779871785200,12.06278515625,-0.7055389636397361,-0.7460019069314002,-0.16668533080294728
1733902779881812200,12.072812255859375,-1.0915268244504928,-0.5996709435015917,-0.39453152501136063
1733902779891838200,12.082838134765625,-1.1907529223561286,-0.37109716567099094,-0.49703518328294155
1733902779901865200,12.092865234375,-1.0364759683579206,-0.0366080214291811,-0.5004959912613034
1733902779911892200,12.102892333984375,-0.7529471960246562,0.30673429135382174,-0.3765072080209851
1733902779921918200,12.112918212890625,-0.4970201318442821,0.631629093298316,-0.22879385032206773
1733902779931945200,12.1229453125,-0.4166857814133167,0.8220826915711164,0.025500351959466934
1733902779941972200,12.13297216796875,-0.40135611033439633,0.7815648032218218,0.3467389694839716
1733902779951999200,12.142999267578125,-0.4669090712189674,0.43458676428496834,0.5704518632799387
1733902779962025200,12.153025146484374,-0.6116799457252026,0.20124504140019417,0.3905694895125925
1733902779972052200,12.16305224609375,-0.8131926981508731,0.21155366944670675,0.060984922316670416
1733902779982079200,12.173079345703124,-0.8088894479990005,0.28223405634760856,-0.08956512011289595
1733902779992105200,12.183105224609376,-0.583032527911663,0.40126024874448774,0.056012686862051485
1733902780002132200,12.19313232421875,-0.38709143813848496,0.4570967022567987,0.39279870986938475
1733902780012159200,12.2031591796875,-0.27977555727958675,0.31994097892940043,0.7677927368484437
1733902780022185200,12.213185302734376,-0.2296165648818016,0.12758651547133923,0.8502214292101562
1733902780032212200,12.223212158203125,-0.2501800449609756,-0.012300678646564483,0.7388423905655741
1733902780042239200,12.2332392578125,-0.2506540922135114,-0.014748656320571898,0.5906991170167922
1733902780052265200,12.24326513671875,-0.21224398979842662,0.13373685479462147,0.4706599481850862
1733902780062292200,12.253292236328125,-0.24902561422884462,0.34199440530538555,0.35099238914474845
1733902780072319200,12.2633193359375,-0.32122049734592434,0.5514642542153596,0.3379445453926921
1733902780082346200,12.27334619140625,-0.40216099697649477,0.7048802074700593,0.4320724433764815
1733902780092372200,12.283372314453125,-0.4436953688919544,0.7716887213736772,0.4907618021018803
1733902780102399200,12.293399169921875,-0.41294016514420506,0.8183265539079904,0.46220600809454915
1733902780112426200,12.30342626953125,-0.28507074107825753,0.8364332884848117,0.3963784680522978
1733902780122452200,12.3134521484375,-0.10321896693408489,0.8035755594998598,0.38530996154919267
1733902780132479200,12.323479248046874,0.1155704989850521,0.7206172903060912,0.3819733644723892
1733902780142506200,12.33350634765625,0.22489012088179586,0.6304571269094944,0.3190812933601439
1733902780152532200,12.3435322265625,0.23349311405420303,0.48491585255265235,0.19062997775301335
1733902780162559200,12.353559326171874,0.18702946904301643,0.3611076865762472,0.053664077909290786
1733902780172586200,12.363586181640626,0.12991934233307836,0.266604525539279,-0.08174611692503095
1733902780182612200,12.3736123046875,-0.0013975918382406233,0.16140812105238436,-0.2178599299840629
