time,seconds_elapsed,z,y,x
1733902767839735600,0.030735595703125,0.014399374835193157,0.024045970290899277,-0.07754405587911606
1733902767849761500,0.040761474609375,-0.005306437611579895,-0.0028431732207536697,-0.09704142063856125
1733902767859788500,0.05078857421875,-0.028781138360500336,-0.02197425626218319,-0.07761925458908081
1733902767869815600,0.060815673828125,-0.040158867835998535,-0.03611287847161293,-0.03141802176833153
1733902767879841500,0.070841552734375,-0.04062012583017349,-0.03140121325850487,0.02682104893028736
1733902767889868500,0.08086865234375,-0.02663249894976616,-0.02805372141301632,0.08665144443511963
1733902767899895600,0.0908955078125,-0.019262200221419334,-0.025097612291574478,0.14883439242839813
1733902767909921300,0.10092138671875,-0.014232851564884186,-0.034834783524274826,0.20940713584423065
1733902767919948500,0.110948486328125,-0.009359000250697136,-0.06371650099754333,0.25783273577690125
1733902767929975600,0.1209755859375,0.0022080554626882076,-0.10680358856916428,0.2972833812236786
1733902767940002600,0.13100244140625,0.03053050860762596,-0.18505072593688965,0.34049662947654724
1733902767950028500,0.141028564453125,0.054167527705430984,-0.298392117023468,0.39699044823646545
1733902767960055600,0.1510556640625,0.06836404651403427,-0.4206772744655609,0.47552040219306946
1733902767970082600,0.16108251953125,0.07015052437782288,-0.5339102745056152,0.5792298316955566
1733902767980108500,0.171108642578125,0.04517273232340813,-0.6480531096458435,0.7056782841682434
1733902767990135600,0.181135498046875,0.02014591172337532,-0.7654458284378052,0.8460031747817993
1733902768000162300,0.191162353515625,-0.007553891744464636,-0.8510428071022034,1.0021463632583618
1733902768010188500,0.2011884765625,-0.034335486590862274,-0.9295345544815063,1.166551113128662
1733902768020215600,0.211215576171875,-0.0604749470949173,-0.9780264496803284,1.291163682937622
1733902768030242600,0.22124267578125,-0.08860770612955093,-0.9600510597229004,1.3596267700195312
1733902768040268500,0.2312685546875,-0.10728312283754349,-0.9377164840698242,1.374464750289917
1733902768050295300,0.24129541015625,-0.07934654504060745,-0.8804238438606262,1.3354161977767944
1733902768060322600,0.251322509765625,-0.035680558532476425,-0.7582260370254517,1.2198350429534912
1733902768070348500,0.2613486328125,0.0156419575214386,-0.5496171712875366,1.0319700241088867
1733902768080375600,0.27137548828125,0.030858460813760757,-0.29329508543014526,0.7751006484031677
1733902768090402300,0.28140234375,-0.000017220154404640198,-0.0813019797205925,0.4944564402103424
1733902768100429600,0.2914296875,-0.053972598165273666,0.07827489823102951,0.2554958164691925
1733902768110455600,0.30145556640625,-0.10767503827810287,0.2608761787414551,0.09493308514356613
1733902768120482600,0.311482666015625,-0.10912299901247025,0.387153685092926,-0.0007313856622204185
1733902768130509300,0.32150927734375,-0.06509359180927277,0.39248162508010864,-0.030567092821002007
1733902768140535300,0.331535400390625,-0.03895626589655876,0.294793963432312,-0.01837780326604843
1733902768150562600,0.3415625,0.01703609712421894,0.10088526457548141,0.016693152487277985
1733902768160589600,0.351589599609375,0.07355237007141113,-0.05987459421157837,0.034628741443157196
1733902768170615600,0.361615478515625,0.16965965926647186,-0.18091151118278503,0.05513176694512367
1733902768180642300,0.371642333984375,0.291378915309906,-0.18369345366954803,0.07832497358322144
1733902768190669600,0.381669677734375,0.3826162815093994,-0.1305786520242691,0.11643380671739578
1733902768200695600,0.391695556640625,0.43188610672950745,-0.1204754114151001,0.14916139841079712
1733902768210722600,0.40172265625,0.42778870463371277,-0.11049726605415344,0.16086095571517944
1733902768220749300,0.411749267578125,0.42661425471305847,-0.12633907794952393,0.16077733039855957
1733902768230776600,0.421776611328125,0.4996908903121948,-0.2701376974582672,0.14487814903259277
1733902768240802600,0.431802490234375,0.6575896739959717,-0.5639443397521973,0.10390541702508926
1733902768250829600,0.44182958984375,0.850676417350769,-0.8296656012535095,0.054839152842760086
1733902768260856300,0.451856201171875,1.0284703969955444,-0.9313706755638123,0.01580626517534256
1733902768270882300,0.46188232421875,1.2206659317016602,-0.8045260310173035,-0.02833104319870472
1733902768280909600,0.47190966796875,1.4136157035827637,-0.5585351586341858,-0.11541321873664856
1733902768290936600,0.4819365234375,1.5385910272598267,-0.32019364833831787,-0.24948899447917938
1733902768300962600,0.491962646484375,1.5899173021316528,-0.2256394475698471,-0.4076296389102936
1733902768310989300,0.5019892578125,1.62714684009552,-0.2593417465686798,-0.5563943386077881
1733902768321016600,0.5120166015625,1.6650334596633911,-0.36287638545036316,-0.6705952286720276
1733902768331042600,0.52204248046875,1.7217599153518677,-0.5318043231964111,-0.705562949180603
1733902768341069600,0.532069580078125,1.741783618927002,-0.7644330263137817,-0.6582031846046448
1733902768351096600,0.5420966796875,1.7372037172317505,-0.9380221366882324,-0.5913435220718384
1733902768361122600,0.55212255859375,1.7537648677825928,-1.0191987752914429,-0.5421410799026489
1733902768371149800,0.56214990234375,1.8079770803451538,-0.9416809678077698,-0.5087378621101379
1733902768381176800,0.5721767578125,1.9057332277297974,-0.7528617978096008,-0.4947884976863861
1733902768391203600,0.58220361328125,2.0145187377929688,-0.5874603390693665,-0.492896169424057
1733902768401229600,0.5922294921875,2.08884859085083,-0.5608636140823364,-0.4961702525615692
1733902768411256800,0.6022568359375,2.13785457611084,-0.7278037667274475,-0.510050892829895
1733902768421283800,0.612283935546875,2.1397385597229004,-1.0341143608093262,-0.5291467905044556
1733902768431309800,0.622309814453125,2.0825037956237793,-1.3932498693466187,-0.5563328862190247
1733902768441336600,0.632336669921875,1.9846396446228027,-1.7602624893188477,-0.6031307578086853
1733902768451363800,0.64236376953125,1.869758129119873,-2.070815324783325,-0.6647784113883972
1733902768461389800,0.652389892578125,1.700423240661621,-2.1826417446136475,-0.7106918692588806
1733902768471416800,0.662416748046875,1.513495683670044,-2.069071054458618,-0.7014515995979309
1733902768481443600,0.672443603515625,1.4015952348709106,-1.777002215385437,-0.5877522230148315
1733902768491469600,0.682469482421875,1.3694829940795898,-1.4734617471694946,-0.4365129768848419
1733902768501496800,0.692496826171875,1.4185680150985718,-1.2189935445785522,-0.2875046133995056
1733902768511523800,0.70252392578125,1.5846444368362427,-0.9672037959098816,-0.13078121840953827
1733902768521549800,0.7125498046875,1.8459863662719727,-0.8507842421531677,0.06828261911869049
1733902768531576600,0.72257666015625,2.0905215740203857,-0.8739179968833923,0.3194114565849304
1733902768541603800,0.732603759765625,2.2156383991241455,-0.7937182188034058,0.5877052545547485
1733902768551630800,0.742630859375,2.2479312419891357,-0.5610641241073608,0.8390078544616699
1733902768561656800,0.75265673828125,2.251225233078003,-0.31620702147483826,1.1084270477294922
1733902768571683600,0.76268359375,2.2371344566345215,-0.10211151093244553,1.4864261150360107
1733902768581710800,0.7727109375,2.1623830795288086,0.04296419396996498,1.8951553106307983
1733902768591736800,0.78273681640625,2.023244619369507,0.01689179614186287,2.2321062088012695
1733902768601763800,0.792763916015625,1.8527953624725342,-0.199842631816864,2.4708096981048584
1733902768611790600,0.80279052734375,1.6892383098602295,-0.5682310461997986,2.673654794692993
1733902768621816600,0.812816650390625,1.5661779642105103,-0.9542407989501953,2.8661108016967773
1733902768631843800,0.82284375,1.4848403930664062,-1.2111625671386719,3.0296080112457275
1733902768641870800,0.832870849609375,1.4487560987472534,-1.2099496126174927,3.137225389480591
1733902768651897600,0.842897705078125,1.4375207424163818,-1.0014301538467407,3.178396463394165
1733902768661923600,0.852923583984375,1.4212714433670044,-0.6767545342445374,3.161924362182617
1733902768671950800,0.862950927734375,1.4360053539276123,-0.30535128712654114,3.1118314266204834
1733902768681977900,0.872977783203125,1.4698636531829834,0.15451005101203918,3.026643753051758
1733902768692003800,0.88300390625,1.497442603111267,0.6319655179977417,2.9071056842803955
1733902768702030600,0.893030517578125,1.556023120880127,1.0585882663726807,2.7666285037994385
1733902768712057900,0.903057861328125,1.6510043144226074,1.5047210454940796,2.601041078567505
1733902768722083800,0.913083740234375,1.7828291654586792,2.505990982055664,2.302629232406616
1733902768732110800,0.92311083984375,2.0047831535339355,3.3883321285247803,1.8722712993621826
1733902768742137600,0.9331376953125,2.1750876903533936,3.6906638145446777,1.3571258783340454
1733902768752163600,0.94316357421875,2.1538243293762207,3.0581772327423096,0.827158510684967
1733902768762190800,0.95319091796875,1.9135661125183105,2.2060744762420654,0.26209425926208496
1733902768772217900,0.9632177734375,1.4107719659805298,1.596110224723816,-0.25208088755607605
1733902768782244600,0.97324462890625,0.8262749314308167,0.5410193204879761,-0.5158619284629822
1733902768792270600,0.9832705078125,0.32038840651512146,-0.5165395736694336,-0.5755136609077454
1733902768802297900,0.9932978515625,0.07013489305973053,-2.42285418510437,-0.5257375836372375
1733902768812324900,1.003324951171875,0.11924614012241364,-3.72580623626709,-0.23583480715751648
1733902768822350800,1.013350830078125,0.35176780819892883,-3.1836345195770264,0.04914738982915878
1733902768832377600,1.023377685546875,0.8593001961708069,-1.750089406967163,0.37526097893714905
1733902768842404600,1.033404541015625,1.3585536479949951,-0.10353762656450272,0.6532707810401917
1733902768852430800,1.043430908203125,1.5921838283538818,1.261182188987732,0.8266814947128296
1733902768862457900,1.053457763671875,1.558404803276062,2.072286605834961,0.8974398374557495
1733902768872484600,1.063484619140625,1.357754111289978,2.3858425617218018,1.0608031749725342
1733902768882511600,1.07351171875,1.0847145318984985,2.319931745529175,1.3951153755187988
1733902768892537900,1.083537841796875,0.8153784871101379,2.124297618865967,1.8402832746505737
1733902768902564900,1.09356494140625,0.4934920370578766,2.0562632083892822,2.4189770221710205
1733902768912591600,1.103591552734375,0.17725589871406555,2.2490572929382324,3.1138088703155518
1733902768922617600,1.11361767578125,0.17638105154037476,1.879704236984253,3.694525718688965
1733902768932644600,1.12364453125,0.478964239358902,1.1382898092269897,3.9598300457000732
1733902768942672000,1.133671875,0.6739651560783386,0.45922043919563293,3.8920977115631104
1733902768952698600,1.14369873046875,0.7929340600967407,-0.5045489072799683,3.708555221557617
1733902768962724600,1.153724609375,0.7807048559188843,-1.690809965133667,3.439481496810913
1733902768972751600,1.163751708984375,0.6248016357421875,-2.930185079574585,3.1031551361083984
1733902768982779000,1.17377880859375,0.37327325344085693,-3.9592478275299072,2.7268335819244385
1733902768992804900,1.183804931640625,0.037407130002975464,-4.609821319580078,2.247013568878174
1733902769002831600,1.19383154296875,-0.3846392035484314,-5.030142307281494,1.7342931032180786
1733902769012858600,1.203858642578125,-0.8449810743331909,-5.358809471130371,1.3289939165115356
1733902769022884600,1.213884521484375,-1.3436174392700195,-5.13724946975708,0.9291952848434448
1733902769032912000,1.223911865234375,-1.994746446609497,-3.6938633918762207,0.3296121060848236
1733902769042938600,1.233938720703125,-2.59909725189209,-2.1083762645721436,-0.18026316165924072
1733902769052965600,1.243965576171875,-2.904775619506836,-1.4579652547836304,-0.34768325090408325
1733902769062991600,1.25399169921875,-2.9319465160369873,-1.421460747718811,-0.2628093659877777
1733902769073019000,1.264018798828125,-2.819765567779541,-1.4852328300476074,-0.1016242653131485
1733902769083045600,1.274045654296875,-2.663074493408203,-1.4394595623016357,0.11892887949943542
1733902769093071600,1.284071533203125,-2.488616943359375,-1.3290306329727173,0.4104630947113037
1733902769103098600,1.2940986328125,-2.3093392848968506,-1.2893329858779907,0.7430322766304016
1733902769113126000,1.3041259765625,-2.1223104000091553,-1.3535512685775757,1.0595569610595703
1733902769123152600,1.314152587890625,-1.9273977279663086,-1.4036586284637451,1.317583680152893
1733902769133178600,1.3241787109375,-1.7803621292114258,-1.3183894157409668,1.4591573476791382
1733902769143205600,1.33420556640625,-1.7142478227615356,-1.193673014640808,1.4847853183746338
1733902769153233000,1.34423291015625,-1.6562113761901855,-0.9686466455459595,1.3954273462295532
1733902769163259000,1.3542587890625,-1.5284546613693237,-0.6870306730270386,1.211119532585144
1733902769173285600,1.36428564453125,-1.3138452768325806,-0.4654329717159271,1.0140084028244019
1733902769183312600,1.374312744140625,-1.0824168920516968,-0.3805846571922302,0.859395444393158
1733902769193340000,1.38433984375,-0.9069583415985107,-0.4864058196544647,0.7549392580986023
1733902769203366000,1.394365966796875,-0.7981263995170593,-0.7695522904396057,0.7008986473083496
1733902769213392600,1.404392578125,-0.7441783547401428,-1.168890118598938,0.6458142399787903
1733902769223419600,1.414419677734375,-0.6613276600837708,-1.4901461601257324,0.5393432378768921
1733902769233445600,1.424445556640625,-0.5245253443717957,-1.6750192642211914,0.4620169997215271
1733902769243473000,1.434472900390625,-0.3715057373046875,-1.702912449836731,0.4397745430469513
1733902769253499600,1.444499755859375,-0.26655447483062744,-1.514790654182434,0.40856656432151794
1733902769263526700,1.454526611328125,-0.21107633411884308,-1.2300039529800415,0.355255126953125
1733902769273552600,1.464552734375,-0.18789324164390564,-1.075150728225708,0.3258519768714905
1733902769283580000,1.474579833984375,-0.1790001541376114,-1.0721598863601685,0.31283628940582275
1733902769293606700,1.484606689453125,-0.11778157204389572,-1.2594248056411743,0.3278384208679199
1733902769303633700,1.494633544921875,-0.002348714740946889,-1.443713665008545,0.30508384108543396
1733902769313659600,1.50465966796875,0.11041796952486038,-1.3780103921890259,0.1812683641910553
1733902769323687000,1.51468701171875,0.2406739890575409,-1.4096039533615112,0.17017203569412231
1733902769333713700,1.524713623046875,0.33253002166748047,-1.5446696281433105,0.3130699098110199
1733902769343740700,1.53474072265625,0.3724132478237152,-1.43279230594635,0.4236329197883606
1733902769353767000,1.544766845703125,0.4474826157093048,-1.112205147743225,0.5087882280349731
1733902769363794000,1.5547939453125,0.5418539047241211,-1.022901177406311,0.658892810344696
1733902769373820700,1.564820556640625,0.6539905667304993,-1.2432085275650024,0.8584454655647278
1733902769383848000,1.574847900390625,0.8298332691192627,-1.6644096374511719,1.1244832277297974
1733902769393874000,1.5848740234375,1.034648060798645,-2.135270833969116,1.5144308805465698
1733902769403901000,1.59490087890625,1.1606097221374512,-2.353555917739868,1.9350155591964722
1733902769413927700,1.604927734375,1.2836631536483765,-2.303213357925415,2.3916029930114746
1733902769423953700,1.61495361328125,1.2465296983718872,-1.867723822593689,2.760610818862915
1733902769433981000,1.62498095703125,1.0547847747802734,-1.2374736070632935,2.9962100982666016
1733902769444008000,1.635008056640625,0.9018332362174988,-0.6202982664108276,3.075289249420166
1733902769454034700,1.64503466796875,0.8468107581138611,-0.17558668553829193,3.03879451751709
1733902769464060700,1.655060791015625,0.8098292946815491,0.21910284459590912,2.843486785888672
1733902769474088000,1.665087890625,0.8014271259307861,0.42245835065841675,2.5106592178344727
1733902769484115000,1.675114990234375,0.8836833834648132,0.31272706389427185,2.1536622047424316
1733902769494141700,1.6851416015625,0.9602300524711609,0.08077649772167206,1.8094297647476196
1733902769504167700,1.695167724609375,1.0026988983154297,-0.3361315131187439,1.6076806783676147
1733902769514194700,1.705194580078125,0.9284557104110718,-0.6010932922363281,1.5013232231140137
1733902769524222000,1.715221923828125,0.8256251811981201,-0.6840829849243164,1.4032152891159058
1733902769534248700,1.725248779296875,0.7445560097694397,-0.8377757668495178,1.455815315246582
1733902769544274700,1.735274658203125,0.615492582321167,-0.7707123160362244,1.531874656677246
1733902769554301700,1.7453017578125,0.5533027052879333,-0.4991258680820465,1.5416250228881836
1733902769564329000,1.755328857421875,0.43866777420043945,-0.4755515456199646,1.4686567783355713
1733902769574356000,1.76535595703125,0.1646246761083603,-0.5504029393196106,1.2140923738479614
1733902769584381700,1.775381591796875,0.08626941591501236,-0.5223180651664734,1.0613995790481567
1733902769594408700,1.78540869140625,0.04545826092362404,0.1057971864938736,1.0117660760879517
1733902769604436000,1.79543603515625,-0.12752816081047058,0.29143470525741577,1.1547938585281372
1733902769614463000,1.805462890625,0.00989510677754879,0.4633878767490387,1.3114067316055298
1733902769624488700,1.81548876953125,0.11201721429824829,0.692855954170227,1.3959040641784668
1733902769634515700,1.825515625,0.38041844964027405,0.6819535493850708,1.484958291053772
1733902769644543000,1.83554296875,0.62807697057724,0.6975250840187073,1.5393967628479004
1733902769654570000,1.845570068359375,0.7789336442947388,0.6931802034378052,1.4829810857772827
1733902769664596700,1.8555966796875,0.8551210761070251,0.6047584414482117,1.4152145385742188
1733902769674622700,1.865622802734375,0.8668985962867737,0.5239162445068359,1.3098543882369995
1733902769684650000,1.87564990234375,0.8734675049781799,0.45956364274024963,1.155807375907898
1733902769694677000,1.885677001953125,0.9164592027664185,0.28163135051727295,1.0193041563034058
1733902769704703700,1.895703857421875,0.9327310919761658,0.1298372894525528,0.9691147208213806
1733902769714729700,1.905729736328125,0.9277352690696716,0.027230633422732353,0.9323509335517883
1733902769724757000,1.915757080078125,0.8853641152381897,-0.3929605185985565,0.8610770106315613
1733902769734784000,1.925783935546875,0.863460123538971,-0.6185805797576904,0.7115931510925293
1733902769744810800,1.935810791015625,0.8563553094863892,-0.5575345158576965,0.5811640620231628
1733902769754836700,1.945836669921875,0.955777108669281,-0.4596896767616272,0.4683454930782318
1733902769764863700,1.95586376953125,1.1446222066879272,-0.22106748819351196,0.36852917075157166
1733902769774891000,1.96589111328125,0.9753491878509521,0.018187863752245903,0.4037068486213684
1733902769784917800,1.975917724609375,1.1560555696487427,-0.20577892661094666,0.5732918381690979
1733902769794943700,1.98594384765625,1.2475006580352783,0.014421449974179268,0.6495462656021118
1733902769804970800,1.995970703125,1.1877928972244263,0.31153514981269836,0.7034584879875183
1733902769814998000,2.005998046875,0.9609948992729187,0.7436619400978088,0.7528215050697327
1733902769825024800,2.016024658203125,0.7311376929283142,0.7960830330848694,0.8359403610229492
1733902769835050800,2.02605078125,0.634052574634552,0.9578485488891602,0.8277052640914917
1733902769845077800,2.036077880859375,0.6578404307365417,1.2486188411712646,0.7223109006881714
1733902769855105000,2.04610498046875,0.7775821685791016,1.4382083415985107,0.5863720774650574
1733902769865131800,2.0561318359375,0.8740023970603943,1.8711546659469604,0.33526793122291565
1733902769875157800,2.06615771484375,1.3349518775939941,2.0701916217803955,-0.06168399006128311
1733902769885184800,2.076184814453125,1.8339470624923706,2.291710376739502,-0.5764991641044617
1733902769895212000,2.0862119140625,2.259127140045166,2.4018046855926514,-1.0328408479690552
1733902769905238800,2.09623876953125,2.7091259956359863,2.429731845855713,-1.5245682001113892
1733902769915264800,2.1062646484375,2.9677884578704834,2.0505154132843018,-1.93061101436615
1733902769925291800,2.116291748046875,2.8988609313964844,1.2629785537719727,-1.9452197551727295
1733902769935319000,2.126319091796875,2.657479763031006,0.5817116498947144,-1.482272982597351
1733902769945345800,2.136345703125,2.2844948768615723,0.184743270277977,-0.8486568927764893
1733902769955371800,2.146371826171875,1.7865384817123413,0.09904249757528305,-0.3513123393058777
1733902769965398800,2.156398681640625,1.202134370803833,-0.04223499819636345,-0.3202521800994873
1733902769975426000,2.166426025390625,0.7236548662185669,-0.4053989350795746,-0.6023478507995605
1733902769985452800,2.176452880859375,0.5258357524871826,-0.6031956076622009,-0.9724223017692566
1733902769995479800,2.186479736328125,0.6246553063392639,-0.6922710537910461,-1.2293970584869385
1733902770005505800,2.196505859375,0.7225368618965149,-0.9730835556983948,-1.2333675622940063
1733902770015532800,2.20653271484375,0.6790503859519958,-0.955207347869873,-1.221498727798462
1733902770025559800,2.216559814453125,0.7798797488212585,-0.5887311100959778,-1.2528307437896729
1733902770035586800,2.2265869140625,0.919491708278656,-0.2568484842777252,-1.308005928993225
1733902770045612800,2.23661279296875,0.9437664747238159,-0.09181690961122513,-1.4927579164505005
1733902770055639800,2.246639892578125,0.8935132026672363,-0.2561264932155609,-1.6734428405761719
1733902770065666800,2.256666748046875,0.7666175365447998,-0.6020665764808655,-1.6969809532165527
1733902770075693800,2.26669384765625,0.6024529933929443,-0.6957718729972839,-1.6581915616989136
1733902770085719800,2.2767197265625,0.44563332200050354,-0.653335452079773,-1.770435094833374
1733902770095746800,2.286746826171875,0.3470832109451294,-0.5440921783447266,-1.858601450920105
1733902770105773800,2.29677392578125,0.21583706140518188,-0.4617568254470825,-1.7646204233169556
1733902770115800800,2.30680078125,0.09119284152984619,-0.5233298540115356,-1.5530171394348145
1733902770125826800,2.316826904296875,-0.029721595346927643,-0.5151118636131287,-1.272282361984253
1733902770135853800,2.326853759765625,-0.08479531109333038,-0.49132728576660156,-0.9973257184028625
1733902770145880800,2.336880859375,-0.03736068308353424,-0.522452712059021,-0.8406453132629395
1733902770155907800,2.346907958984375,0.06841978430747986,-0.5288317203521729,-0.7583070397377014
1733902770165934800,2.356934814453125,0.15664231777191162,-0.3698146641254425,-0.6656354069709778
1733902770175960800,2.3669609375,0.24440018832683563,-0.116173654794693,-0.593989908695221
1733902770185987800,2.37698779296875,0.3219163119792938,0.12810267508029938,-0.6147887110710144
1733902770196014800,2.387014892578125,0.41908255219459534,0.37672868371009827,-0.7376775741577148
1733902770206041900,2.397041748046875,0.5465947389602661,0.6064351201057434,-0.9393816590309143
1733902770216067800,2.40706787109375,0.6224994659423828,0.7801207304000854,-1.0700236558914185
1733902770226094800,2.4170947265625,0.6117978096008301,0.8450928330421448,-1.0716644525527954
1733902770236121900,2.427121826171875,0.5480501055717468,0.7937804460525513,-1.0024794340133667
1733902770246148900,2.43714892578125,0.47765791416168213,0.720725417137146,-0.9619775414466858
1733902770256174800,2.4471748046875,0.4303489625453949,0.7529777884483337,-0.9442521333694458
1733902770266201900,2.457201904296875,0.3555636703968048,0.8557113409042358,-0.8620126247406006
1733902770276228900,2.467228759765625,0.24272112548351288,0.867690920829773,-0.7001193165779114
1733902770286255900,2.477255859375,0.049617718905210495,0.3246079385280609,-0.30056095123291016
1733902770296281900,2.48728173828125,-0.26642492413520813,-0.47119173407554626,0.3924361765384674
1733902770306308900,2.497308837890625,-0.549496054649353,-0.8952305912971497,1.1845344305038452
1733902770316335900,2.5073359375,-0.6542925834655762,-0.8412219285964966,1.7666642665863037
1733902770326363000,2.51736279296875,-0.7352569103240967,-0.9547668695449829,2.1555440425872803
1733902770336390000,2.527389892578125,-0.8516589999198914,-0.9979056715965271,2.5127463340759277
1733902770346416000,2.537416015625,-0.937384307384491,-1.1889029741287231,2.873570442199707
1733902770356443100,2.547443115234375,-1.090266466140747,-1.5355076789855957,3.368027448654175
1733902770366470400,2.557470458984375,-1.3975825309753418,-1.5210903882980347,3.826049566268921
1733902770376497200,2.5674970703125,-1.8455805778503418,-0.8710896968841553,4.05309534072876
1733902770386523100,2.577523193359375,-2.3238179683685303,0.03372060880064964,3.9639573097229004
1733902770396550100,2.587550048828125,-2.7288687229156494,0.19963885843753815,3.7686574459075928
1733902770406577200,2.5975771484375,-3.012759208679199,0.2728414535522461,3.4947824478149414
1733902770416604200,2.607604248046875,-3.3251068592071533,0.3550011217594147,3.1926465034484863
1733902770426630100,2.617630126953125,-3.6974003314971924,0.4801792800426483,2.8246073722839355
1733902770436657200,2.6276572265625,-3.904202461242676,0.4522913098335266,2.490787982940674
1733902770446684200,2.63768408203125,-3.879791021347046,0.3694811165332794,2.185746192932129
1733902770456711200,2.647711181640625,-3.6956305503845215,-0.12545369565486908,1.9427945613861084
1733902770466737200,2.657737060546875,-3.448395252227783,-0.7322115302085876,1.6916896104812622
1733902770476764200,2.66776416015625,-3.2370569705963135,-1.0447784662246704,1.3084181547164917
1733902770486791200,2.677791259765625,-3.1019070148468018,-1.274113655090332,1.1436558961868286
1733902770496818400,2.687818359375,-3.115246534347534,-0.9871401190757751,1.2473094463348389
1733902770506844200,2.69784423828125,-3.234752655029297,-0.3899240791797638,1.4984828233718872
1733902770516871200,2.70787109375,-3.469883918762207,-0.014229332096874714,1.7514275312423706
1733902770526898200,2.717898193359375,-3.8503551483154297,0.26779916882514954,1.7897658348083496
1733902770536925400,2.727925537109375,-4.217015266418457,0.4776225984096527,1.5957837104797363
1733902770546951200,2.737951171875,-4.328685283660889,0.42186665534973145,1.3749346733093262
1733902770556978200,2.747978271484375,-4.086923599243164,0.32051244378089905,1.241005778312683
1733902770567005200,2.758005126953125,-3.621429681777954,0.41546425223350525,1.206173300743103
1733902770577032400,2.768032470703125,-3.0764501094818115,0.6247677803039551,1.2569029331207275
1733902770587058400,2.778058349609375,-2.4955315589904785,0.6527160406112671,1.3987096548080444
1733902770597085200,2.788085205078125,-2.0059187412261963,0.43618637323379517,1.593319058418274
1733902770607112200,2.7981123046875,-1.7032257318496704,0.22065994143486023,1.7209166288375854
1733902770617139500,2.808139404296875,-1.4052238464355469,0.11584866046905518,1.689959168434143
1733902770627166200,2.818166259765625,-0.9561520218849182,-0.021414658054709435,1.5158696174621582
1733902770637192200,2.828192138671875,-0.43784186244010925,-0.2060016244649887,1.2194581031799316
1733902770647219200,2.83821923828125,-0.04416833817958832,-0.3298617899417877,0.8593432903289795
1733902770657246200,2.84824609375,0.14445233345031738,-0.40565651655197144,0.5355358123779297
1733902770667273200,2.858273193359375,0.10498907417058945,-0.20856954157352448,0.25659018754959106
1733902770677299200,2.86829931640625,-0.10590469837188721,0.0733407512307167,0.05752427130937576
1733902770687326200,2.878326171875,-0.3861376941204071,0.23437437415122986,-0.023559927940368652
1733902770697353200,2.888353271484375,-0.6168173551559448,0.4586336016654968,0.036174651235342026
1733902770707380200,2.898380126953125,-0.5776521563529968,0.818999707698822,0.2304581105709076
1733902770717406200,2.90840625,-0.3413032591342926,1.0249083042144775,0.5118460655212402
1733902770727433200,2.91843310546875,-0.08990591764450073,1.152728796005249,0.7564915418624878
1733902770737460200,2.928460205078125,0.07977237552404404,1.4093241691589355,0.9543290734291077
1733902770747487200,2.9384873046875,0.21727856993675232,1.4711806774139404,1.1716957092285156
1733902770757513200,2.94851318359375,0.37649357318878174,1.1911368370056152,1.3438334465026855
1733902770767540200,2.958540283203125,0.5326269865036011,0.7837600708007812,1.4294971227645874
1733902770777567200,2.968567138671875,0.7183767557144165,0.41914355754852295,1.43441641330719
1733902770787594200,2.97859423828125,0.9026309847831726,0.14901195466518402,1.347069263458252
1733902770797620200,2.9886201171875,0.933069109916687,0.17677535116672516,1.217349648475647
1733902770807647200,2.998647216796875,0.8573479652404785,0.29357120394706726,1.0715733766555786
1733902770817674200,3.00867431640625,0.6976946592330933,0.020741671323776245,0.8392063975334167
1733902770827701200,3.018701171875,0.5146872997283936,-0.5278133153915405,0.4940868318080902
1733902770837727200,3.028727294921875,0.515132486820221,-1.1353585720062256,0.09934201836585999
1733902770847754200,3.038754150390625,0.7901225090026855,-2.1772055625915527,-0.24480149149894714
1733902770857781200,3.04878125,1.0905410051345825,-3.3191041946411133,-0.5703032612800598
1733902770867808000,3.05880810546875,1.1060733795166016,-3.935190200805664,-0.9732624292373657
1733902770877834200,3.068834228515625,0.9560873508453369,-4.109425067901611,-1.7918415069580078
1733902770887861200,3.078861328125,0.8750028610229492,-3.749124526977539,-2.9896388053894043
1733902770897888300,3.08888818359375,0.9853294491767883,-3.3574066162109375,-3.8337371349334717
1733902770907915000,3.0989150390625,1.1612086296081543,-3.7061808109283447,-4.0083184242248535
1733902770917941200,3.108941162109375,1.3924351930618286,-4.50819206237793,-3.791877031326294
1733902770927968300,3.11896826171875,1.6245653629302979,-4.427656650543213,-3.3973915576934814
1733902770937995300,3.128995361328125,1.6692932844161987,-3.4504332542419434,-2.916386842727661
1733902770948022000,3.13902197265625,1.5965375900268555,-2.1314046382904053,-2.43463134765625
1733902770958048000,3.149048095703125,1.4414277076721191,-0.9056377410888672,-1.8018440008163452
1733902770968075300,3.1590751953125,1.2492870092391968,-0.04559812322258949,-1.199928879737854
1733902770978102300,3.169102294921875,1.0978033542633057,0.3906320333480835,-0.838550329208374
1733902770988129000,3.17912890625,1.0143755674362183,0.3059094250202179,-0.6032600402832031
1733902770998155000,3.189155029296875,0.9029704928398132,0.12191015481948853,-0.4573212265968323
1733902771008182300,3.199182373046875,0.7406335473060608,-0.1710471510887146,-0.3040142357349396
1733902771018209300,3.209209228515625,0.5208038687705994,-0.3954894542694092,-0.1196085512638092
1733902771028236000,3.219236083984375,0.30763888359069824,-0.31434640288352966,0.11920136958360672
1733902771038262000,3.229261962890625,-0.024686560034751892,0.012885913252830505,0.42751985788345337
1733902771048289300,3.239289306640625,-0.3490406572818756,-0.3124961853027344,0.2605060935020447
1733902771058316300,3.24931640625,-0.6025632619857788,0.07334565371274948,0.1339915245771408
1733902771068343000,3.259343017578125,-0.5939793586730957,0.33053961396217346,0.2930549681186676
1733902771078369000,3.269369140625,-0.46069321036338806,0.6840100884437561,0.47456321120262146
1733902771088396300,3.279396240234375,-0.2663476765155792,1.1103347539901733,0.6205201148986816
1733902771098423300,3.28942333984375,-0.03823854401707649,1.3419677019119263,0.7782933712005615
1733902771108450000,3.299449951171875,0.12571071088314056,1.478543996810913,0.9423196315765381
1733902771118476000,3.30947607421875,0.22205384075641632,1.6429942846298218,1.0370073318481445
1733902771128503300,3.31950341796875,0.27260756492614746,1.5826590061187744,1.0463522672653198
1733902771138530300,3.3295302734375,0.26723337173461914,1.3367899656295776,1.0218896865844727
1733902771148557300,3.339557373046875,0.9926235675811768,1.467585802078247,1.1628925800323486
1733902771158583000,3.3495830078125,1.6516772508621216,1.2909952402114868,1.2062429189682007
1733902771168610300,3.3596103515625,1.519706130027771,0.8101814389228821,1.1203711032867432
1733902771178637300,3.36963720703125,0.8222029805183411,0.33081844449043274,1.1072896718978882
1733902771188663300,3.379663330078125,-0.09135312587022781,0.27743831276893616,0.9556018710136414
1733902771198690300,3.389690185546875,-0.03022177517414093,0.4055805206298828,0.60054612159729
1733902771208717000,3.399717041015625,-0.15410110354423523,-0.240067720413208,0.3130277991294861
1733902771218744300,3.409744384765625,-0.18832503259181976,-0.6309356689453125,0.027881300076842308
1733902771228770300,3.419770263671875,-0.23439133167266846,-0.7052948474884033,-0.21518301963806152
1733902771238797300,3.42979736328125,-0.20197094976902008,-0.7623799443244934,-0.389288067817688
1733902771248824000,3.439823974609375,-0.20021486282348633,-1.1562262773513794,-0.5912160873413086
1733902771258851300,3.449851318359375,-0.624830424785614,-1.2404115200042725,-0.716518223285675
1733902771268877300,3.459877197265625,-0.8476645350456238,-0.9920036196708679,-0.7066038250923157
1733902771278904300,3.469904296875,-0.8571186661720276,-0.6551603674888611,-0.5337733030319214
1733902771288931000,3.47993115234375,-0.887200653553009,-0.5080487132072449,-0.3533681035041809
1733902771298958300,3.489958251953125,-0.9646746516227722,-0.47627320885658264,-0.15305976569652557
1733902771308984300,3.499984375,-1.0282591581344604,-0.5166706442832947,0.03924496844410896
1733902771319011300,3.51001123046875,-1.149773120880127,-0.28770607709884644,0.16272825002670288
1733902771329038000,3.5200380859375,-1.2854734659194946,0.0493217371404171,0.416799932718277
1733902771339065300,3.5300654296875,-1.4482882022857666,0.15829719603061676,0.6957746148109436
1733902771349091300,3.54009130859375,-1.5830528736114502,-0.1059323251247406,0.7618665099143982
1733902771359118300,3.550118408203125,-1.7607418298721313,-0.5841203927993774,0.6352707147598267
1733902771369145000,3.56014501953125,-1.952737808227539,-0.9809466004371643,0.42321890592575073
1733902771379172400,3.57017236328125,-2.1342716217041016,-1.1001495122909546,0.2871536910533905
1733902771389198300,3.5801982421875,-2.421130895614624,-0.9410634636878967,0.2860253155231476
1733902771399225300,3.590225341796875,-2.514622688293457,-1.0610520839691162,0.24272015690803528
1733902771409252000,3.600252197265625,-2.6229090690612793,-1.0094832181930542,0.17997369170188904
1733902771419279400,3.610279296875,-2.8447418212890625,-1.007181167602539,0.10819011926651001
1733902771429305300,3.620305419921875,-2.9839632511138916,-1.1264961957931519,0.17931275069713593
1733902771439332400,3.630332275390625,-2.6033716201782227,-0.669206976890564,0.38609471917152405
1733902771449359000,3.640359130859375,-2.1447536945343018,0.23466508090496063,0.5314255356788635
1733902771459385000,3.650385009765625,-1.765774130821228,0.3552660346031189,0.7298051118850708
1733902771469412400,3.660412353515625,-1.3445438146591187,-0.6003515124320984,0.44385987520217896
1733902771479439400,3.670439453125,-1.0521318912506104,-1.4182029962539673,0.13488776981830597
1733902771489466000,3.680466064453125,-0.743502140045166,-1.8629809617996216,0.026574889197945595
1733902771499492000,3.6904921875,-0.4980163872241974,-2.0153720378875732,-0.19637341797351837
1733902771509519400,3.700519287109375,-0.45408010482788086,-2.0856544971466064,-0.5711454749107361
1733902771519546400,3.71054638671875,-0.39929693937301636,-1.7740321159362793,-0.7917742729187012
1733902771529573000,3.720572998046875,-0.23680125176906586,-1.3866106271743774,-0.8346548676490784
1733902771539599000,3.73059912109375,-0.052515849471092224,-1.1991337537765503,-0.781945526599884
1733902771549626400,3.74062646484375,0.11072739958763123,-1.0851835012435913,-0.7315324544906616
1733902771559653400,3.7506533203125,0.21271124482154846,-0.9195812344551086,-0.6440037488937378
1733902771569680100,3.76068017578125,0.3226127028465271,-0.7176417112350464,-0.4974878132343292
1733902771579706000,3.7707060546875,0.3743603825569153,-0.5121731758117676,-0.3639509081840515
1733902771589733400,3.7807333984375,0.2990025281906128,-0.26204565167427063,-0.27731695771217346
1733902771599760400,3.790760498046875,0.1633175164461136,-0.03900083154439926,-0.1866898387670517
1733902771609786400,3.800786376953125,0.08981933444738388,0.05549158528447151,-0.13254883885383606
1733902771619813000,3.810813232421875,0.08620604127645493,0.06902801990509033,-0.07443986088037491
1733902771629840400,3.82084033203125,0.11226081103086472,0.10141365975141525,-0.02480759099125862
1733902771639867400,3.830867431640625,0.10573416203260422,0.1733538955450058,-0.0019020988838747144
1733902771649893400,3.840893310546875,0.03675002604722977,0.24910086393356323,-0.03228903189301491
1733902771659920100,3.850920166015625,0.006322396919131279,0.22772087156772614,-0.08242025226354599
1733902771669947100,3.860947021484375,-0.0443493016064167,0.08578503876924515,-0.050740621984004974
1733902771679974400,3.870974365234375,-0.0955471470952034,-0.0669875517487526,-0.036468204110860825
1733902771690000400,3.88100048828125,-0.10776679217815399,-0.12052854150533676,-0.021908702328801155
1733902771700027100,3.891027099609375,-0.10487143695354462,-0.14211224019527435,-0.019785087555646896
1733902771710054100,3.90105419921875,-0.06564334034919739,-0.14134444296360016,-0.039454128593206406
1733902771720080400,3.911080322265625,-0.0012178230099380016,-0.10004650801420212,-0.05734536051750183
1733902771730107400,3.921107421875,0.05948014557361603,-0.04290732368826866,-0.08468910306692123
1733902771740134100,3.931134033203125,0.12810322642326355,-0.006331086624413729,-0.11708444356918335
1733902771750161200,3.9411611328125,0.1795632243156433,0.002246689051389694,-0.15234337747097015
1733902771760187100,3.951187255859375,0.09122639149427414,-0.06417188793420792,-0.17414171993732452
1733902771770214400,3.96121435546875,0.05813422054052353,-0.5715331435203552,-0.35203447937965393
1733902771780241200,3.9712412109375,0.18119417130947113,-0.9488897323608398,-0.42033618688583374
1733902771790268200,3.98126806640625,0.21878735721111298,-0.88947993516922,-0.3708900809288025
1733902771800294100,3.991294189453125,0.1558995246887207,-0.6036367416381836,-0.2831614911556244
1733902771810321400,4.0013212890625,0.02504429966211319,-0.3096064627170563,-0.21097835898399353
1733902771820348200,4.01134814453125,-0.09055949002504349,-0.13992398977279663,-0.17656823992729187
1733902771830374100,4.0213740234375,-0.11772347241640091,-0.11019591242074966,-0.15245038270950317
1733902771840401200,4.031401123046875,-0.11892790347337723,-0.09063863009214401,-0.10316308587789536
1733902771850428400,4.041428466796875,-0.11940034478902817,-0.05428115278482437,-0.05306583642959595
1733902771860455200,4.051455078125,-0.12643322348594666,-0.017852697521448135,-0.03066835179924965
1733902771870481200,4.061481201171875,-0.11730443686246872,-0.007655452936887741,-0.02321682870388031
1733902771880508200,4.071508056640625,-0.12153973430395126,-0.024264231324195862,-0.04697979614138603
1733902771890535400,4.081535400390625,-0.12389477342367172,-0.05572947859764099,-0.0770343616604805
1733902771900562200,4.091562255859375,-0.13223876059055328,-0.09454836696386337,-0.0934208557009697
1733902771910588200,4.101588134765625,-0.1480392962694168,-0.12825652956962585,-0.09495856612920761
1733902771920615200,4.111615234375,-0.16497494280338287,-0.14390163123607635,-0.08449695259332657
1733902771930642400,4.121642333984375,-0.18279549479484558,-0.14133808016777039,-0.06386064738035202
1733902771940668400,4.13166845703125,-0.1901198774576187,-0.11381331086158752,-0.035006821155548096
1733902771950695200,4.141695068359375,-0.1765260249376297,-0.0663488581776619,-0.009424230083823204
1733902771960722200,4.15172216796875,-0.15735997259616852,-0.000756189227104187,0.013593483716249466
1733902771970749400,4.16174951171875,-0.13746589422225952,0.04521503299474716,0.02727440744638443
1733902771980775400,4.171775390625,-0.12056590616703033,0.06722656637430191,0.03541962802410126
1733902771990802200,4.18180224609375,-0.11400201171636581,0.06250610947608948,0.03345448151230812
1733902772000829200,4.1918291015625,-0.11118989437818527,0.05133664235472679,0.029992183670401573
1733902772010855200,4.201855224609375,-0.112714022397995,0.04705800861120224,0.021385114639997482
1733902772020882400,4.21188232421875,-0.11819218844175339,0.04429871216416359,0.01868510991334915
1733902772030909200,4.2219091796875,-0.11551225185394287,0.032116081565618515,0.01812797784805298
1733902772040936200,4.231936279296875,-0.11306244134902954,0.014586399309337139,0.02316725254058838
1733902772050962200,4.241962158203125,-0.10572464019060135,-0.005694371648132801,0.03222892805933952
1733902772060989400,4.251989501953125,-0.09478764981031418,-0.026760892942547798,0.03692792356014252
1733902772071016200,4.26201611328125,-0.08578163385391235,-0.029101012274622917,0.054437678307294846
1733902772081042200,4.272042236328125,-0.08172232657670975,-0.01350665558129549,0.06331013143062592
1733902772091069200,4.282069091796875,-0.07920484244823456,0.02509666234254837,0.07899721711874008
1733902772101096200,4.29209619140625,-0.0684797614812851,0.08486383408308029,0.09154409915208817
1733902772111123200,4.302123291015625,-0.05504065006971359,0.12431590259075165,0.08817733079195023
1733902772121149200,4.312149169921875,-0.029805107042193413,0.1387425661087036,0.07058639824390411
1733902772131176200,4.32217626953125,-0.005411083810031414,0.12792560458183289,0.05064411833882332
1733902772141203200,4.332203125,0.020381059497594833,0.10945311188697815,0.03394307941198349
1733902772151230200,4.342230224609375,0.041082609444856644,0.09444433450698853,0.02293303795158863
1733902772161256200,4.352256103515625,0.05572166293859482,0.08959861844778061,0.023062653839588165
1733902772171283200,4.362283203125,0.06430263817310333,0.08930832892656326,0.03127077966928482
1733902772181310200,4.372310302734375,0.063723623752594,0.08913670480251312,0.04698949679732323
1733902772191336200,4.382336181640625,0.0627124235033989,0.09200093150138855,0.06075138598680496
1733902772201363200,4.39236328125,0.058070648461580276,0.10125960409641266,0.06887596100568771
1733902772211390200,4.40239013671875,0.0536990687251091,0.11662018299102783,0.07091780006885529
1733902772221417200,4.412417236328125,0.05043262615799904,0.13356435298919678,0.06854921579360962
1733902772231443200,4.422443115234375,0.046687155961990356,0.14258740842342377,0.06335924565792084
1733902772241470500,4.432470458984375,0.04845268279314041,0.14853589236736298,0.06237178295850754
1733902772251497200,4.442497314453125,0.052689503878355026,0.14119382202625275,0.060770951211452484
1733902772261523200,4.452523193359375,0.04843179136514664,0.12964457273483276,0.0643341988325119
1733902772271550200,4.46255029296875,0.04849064722657204,0.11503206938505173,0.07076413184404373
1733902772281577500,4.472577392578125,0.058680932968854904,0.10276731848716736,0.06973402947187424
1733902772291604200,4.482604248046875,0.0726310983300209,0.09981361031532288,0.061181820929050446
1733902772301630200,4.492630126953125,0.08203574270009995,0.10386454313993454,0.05309157818555832
1733902772311657200,4.5026572265625,0.09008222073316574,0.1126260757446289,0.04989685118198395
1733902772321684500,4.5126845703125,0.09367410838603973,0.1229427233338356,0.05315797030925751
1733902772331710500,4.52271044921875,0.09751678258180618,0.13115592300891876,0.054703667759895325
1733902772341737200,4.5327373046875,0.09326682984828949,0.14218635857105255,0.058821901679039
1733902772351764000,4.542763916015625,0.08826994150876999,0.1447395384311676,0.066761314868927
1733902772361791000,4.552791015625,0.07869013398885727,0.1429988592863083,0.07375039160251617
1733902772371817000,4.56281689453125,0.07280001789331436,0.1407996118068695,0.07550035417079926
1733902772381843700,4.57284375,0.06834740191698074,0.13130371272563934,0.06724919378757477
1733902772391870700,4.58287060546875,0.06694471836090088,0.12171074748039246,0.05962350219488144
1733902772401897000,4.59289697265625,0.07807467132806778,0.10944807529449463,0.04411366581916809
1733902772411924000,4.602924072265625,0.07344503700733185,0.09368216246366501,0.03617371618747711
1733902772421950700,4.61295068359375,0.06448803097009659,0.07740862667560577,0.04004615172743797
1733902772431977700,4.622977783203125,0.057248491793870926,0.06738075613975525,0.04141581803560257
1733902772442003700,4.633003662109375,0.057289958000183105,0.05975857749581337,0.039707083255052567
1733902772452031000,4.643031005859375,0.059268154203891754,0.05372358858585358,0.03509901836514473
1733902772462057700,4.6530576171875,0.059467170387506485,0.048547953367233276,0.030085131525993347
1733902772472084700,4.663084716796875,0.0539240688085556,0.04839934781193733,0.0255388505756855
1733902772482110700,4.67311083984375,0.04961103945970535,0.05826745182275772,0.020436741411685944
1733902772492138000,4.683137939453125,0.043774187564849854,0.06435037404298782,0.01577141508460045
1733902772502164700,4.693164794921875,0.03293991833925247,0.05734866112470627,0.012187067419290543
1733902772512190700,4.703190673828125,0.022929096594452858,0.044440850615501404,0.013158855959773064
1733902772522217700,4.7132177734375,0.011209933087229729,0.030002206563949585,0.013161297887563705
1733902772532245000,4.723244873046875,0.0005684744101017714,0.014708206057548523,0.010819580405950546
1733902772542271700,4.733271728515625,-0.008185680024325848,0.003447610652074218,0.004926225636154413
1733902772552297700,4.743297607421875,-0.01598394848406315,-0.009176305495202541,-0.005143186077475548
1733902772562324700,4.75332470703125,-0.0197591595351696,-0.018614087253808975,-0.02079354226589203
1733902772572352000,4.76335205078125,-0.01945822313427925,-0.02454042062163353,-0.03313889354467392
1733902772582378000,4.7733779296875,-0.024968115612864494,-0.030535412952303886,-0.03957899659872055
1733902772592404700,4.78340478515625,-0.034120600670576096,-0.040883127599954605,-0.04442248493432999
1733902772602431700,4.793431640625,-0.0361148938536644,-0.05168444663286209,-0.03593216463923454
1733902772612459000,4.803458984375,-0.037000659853219986,-0.04603242129087448,-0.022276807576417923
1733902772622485000,4.813485107421875,-0.03598615154623985,-0.04753526672720909,-0.025862544775009155
1733902772632511700,4.82351171875,-0.030662493780255318,-0.06455206871032715,-0.03641079366207123
1733902772642538800,4.833538818359375,-0.024658434092998505,-0.07403984665870667,-0.042524173855781555
1733902772652564700,4.843564697265625,-0.01938910223543644,-0.07094791531562805,-0.04611358046531677
1733902772662592000,4.853592041015625,-0.014250267297029495,-0.0669473186135292,-0.04906170070171356
1733902772672618800,4.86361865234375,-0.010619047097861767,-0.06004919484257698,-0.04558094963431358
1733902772682645800,4.873645751953125,-0.004339771810919046,-0.05510585755109787,-0.03870934620499611
1733902772692671700,4.883671630859375,-0.0005793883465230465,-0.050795264542102814,-0.03991682082414627
1733902772702699000,4.893698974609375,0.005861811339855194,-0.053339533507823944,-0.04127568379044533
1733902772712725800,4.903725830078125,0.004084150306880474,-0.056408025324344635,-0.04709016531705856
1733902772722751700,4.913751708984375,0.0042859409004449844,-0.06599991023540497,-0.047752607613801956
1733902772732778800,4.92377880859375,0.005475041922181845,-0.06703534722328186,-0.04138392210006714
1733902772742806000,4.933805908203125,0.0038243832532316446,-0.07269938290119171,-0.03697149455547333
1733902772752832800,4.943832763671875,0.008925934322178364,-0.07213932275772095,-0.0334225669503212
1733902772762858800,4.953858642578125,0.016202902421355247,-0.06364908814430237,-0.031186643987894058
1733902772772885800,4.9638857421875,0.028179405257105827,-0.05179242789745331,-0.03047717735171318
1733902772782912800,4.973912841796875,0.04669324308633804,-0.043944258242845535,-0.03545374423265457
1733902772792939000,4.98393896484375,0.06276914477348328,-0.04133835807442665,-0.044864557683467865
1733902772802965800,4.9939658203125,0.07510592043399811,-0.049597084522247314,-0.05512776970863342
1733902772812992800,5.00399267578125,0.08438356965780258,-0.059043850749731064,-0.0612620934844017
1733902772823019800,5.014019775390625,0.0887133926153183,-0.06660883128643036,-0.06405849009752274
1733902772833046000,5.0240458984375,0.09181384742259979,-0.06837157905101776,-0.06360389292240143
1733902772843072800,5.03407275390625,0.09458867460489273,-0.06792247295379639,-0.06176596134901047
1733902772853099800,5.044099853515625,0.09185520559549332,-0.0606568306684494,-0.05478848144412041
1733902772863125800,5.054125732421875,0.08831585943698883,-0.052982911467552185,-0.043053194880485535
1733902772873152800,5.06415283203125,0.08641117066144943,-0.04384373873472214,-0.0293648112565279
1733902772883179800,5.0741796875,0.08624144643545151,-0.040630221366882324,-0.01866118423640728
1733902772893205800,5.084205810546875,0.08462757617235184,-0.03295179829001427,-0.010450657457113266
1733902772903232800,5.094232666015625,0.08268891274929047,-0.02507808804512024,-0.011353366076946259
1733902772913259800,5.104259765625,0.08068913966417313,-0.012616358697414398,-0.014772597700357437
1733902772923287000,5.114287109375,0.07624464482069016,-0.001755118602886796,-0.019432945176959038
1733902772933312800,5.124312744140625,0.07229810953140259,0.008499382995069027,-0.023457514122128487
1733902772943339800,5.13433984375,0.0678081139922142,0.017658917233347893,-0.02647596411406994
1733902772953366800,5.14436669921875,0.06437263637781143,0.018034422770142555,-0.03145687282085419
1733902772963392800,5.154392822265625,0.05784853920340538,0.017747672274708748,-0.034140169620513916
1733902772973420000,5.164419921875,0.05280078575015068,0.01258886232972145,-0.02748173475265503
1733902772983446800,5.17444677734375,0.048855237662792206,-0.0025667513255029917,-0.02467590942978859
1733902772993473800,5.184473876953125,0.04359469562768936,-0.00985635630786419,-0.0142110176384449
1733902773003499800,5.194499755859375,0.04019421711564064,-0.018025528639554977,-0.007331436034291983
1733902773013527000,5.204527099609375,0.03627244755625725,-0.019027410075068474,-0.0031428164802491665
1733902773023553800,5.2145537109375,0.03516773134469986,-0.010772120207548141,-0.004709843546152115
1733902773033579800,5.224579833984375,0.032679539173841476,0.0013508554548025131,-0.010659079998731613
1733902773043606800,5.234606689453125,0.03144664689898491,0.011630585417151451,-0.018164770677685738
1733902773053634000,5.244634033203125,0.030350223183631897,0.017746534198522568,-0.019519787281751633
1733902773063660800,5.254660888671875,0.028657730668783188,0.015756472945213318,-0.015881067141890526
1733902773073686800,5.264686767578125,0.02705317549407482,0.011888496577739716,-0.01181788183748722
1733902773083713800,5.2747138671875,0.027436954900622368,0.009355325251817703,-0.009768946096301079
1733902773093741000,5.284740966796875,0.022321822121739388,0.0033845179714262486,-0.009397968649864197
1733902773103767000,5.29476708984375,0.01779932528734207,0.0003808105830103159,-0.005864475388079882
1733902773113793800,5.304793701171875,0.012236515060067177,-0.004013138823211193,-0.0024990388192236423
1733902773123820800,5.31482080078125,0.005349420011043549,-0.009707678109407425,0.00025697494857013226
1733902773133846800,5.3248466796875,-0.002375876996666193,-0.013078175485134125,0.0004276835825294256
1733902773143874000,5.3348740234375,-0.005534464493393898,-0.013793984428048134,0.00260290689766407
1733902773153900800,5.34490087890625,-0.008544901385903358,-0.01334630697965622,0.0016351144295185804
1733902773163927800,5.354927734375,-0.0066475835628807545,-0.014082333073019981,0.0015341918915510178
1733902773173953800,5.364953857421875,-0.0026816041208803654,-0.015900738537311554,-0.001470919232815504
1733902773183981000,5.37498095703125,0.0022383888717740774,-0.020366737619042397,-0.004046045243740082
1733902773194007800,5.3850078125,0.004270114935934544,-0.020607754588127136,-0.009317772462964058
1733902773204033800,5.39503369140625,0.007244263309985399,-0.021613486111164093,-0.013879917562007904
1733902773214060800,5.405060791015625,0.008176902309060097,-0.020799623802304268,-0.015876756981015205
1733902773224088000,5.415088134765625,0.0073791262693703175,-0.01804286614060402,-0.014668770134449005
1733902773234114800,5.42511474609375,0.005533022340387106,-0.018194399774074554,-0.011889494955539703
1733902773244140800,5.435140869140625,0.004790513776242733,-0.018871957436203957,-0.007609229069203138
1733902773254167800,5.445167724609375,0.007295482791960239,-0.021392105147242546,-0.003690653946250677
1733902773264194800,5.45519482421875,0.01042267121374607,-0.022166721522808075,0.000051795272156596184
1733902773274221000,5.465220947265625,0.012968385592103004,-0.02141464315354824,0.00300763756968081
1733902773284247800,5.475247802734375,0.011966843158006668,-0.01569020375609398,0.004497259855270386
1733902773294274800,5.48527490234375,0.01648889109492302,-0.010321004316210747,0.003117209766060114
1733902773304301800,5.4953017578125,0.01661798171699047,-0.005380550865083933,0.0026113593485206366
1733902773314328000,5.505328125,0.017599890008568764,-0.002915262710303068,-0.002461696043610573
1733902773324354800,5.515354736328125,0.01619301363825798,-0.0027677472680807114,-0.005920493509620428
1733902773334381800,5.5253818359375,0.017132576555013657,-0.006366743240505457,-0.006356985308229923
1733902773344407800,5.53540771484375,0.013095464557409286,-0.006687268614768982,-0.007075369358062744
1733902773354434600,5.5454345703125,0.014828916639089584,-0.006724285893142223,-0.007594685535877943
1733902773364461600,5.555461669921875,0.01361439935863018,-0.004065192304551601,-0.005870393011718988
1733902773374487600,5.565487548828125,0.013779781758785248,-0.004913409240543842,-0.0015909593785181642
1733902773384514600,5.5755146484375,0.015868378803133965,-0.00691257044672966,0.0033035960514098406
1733902773394541600,5.58554150390625,0.019111042842268944,-0.0070332121104002,0.007638690061867237
1733902773404568600,5.595568603515625,0.020887983962893486,-0.00589289516210556,0.009034497663378716
1733902773414594600,5.605594482421875,0.02128399722278118,-0.0036238818429410458,0.009783645160496235
1733902773424621600,5.61562158203125,0.022384559735655785,-0.0037990445271134377,0.006594973616302013
1733902773434648600,5.625648681640625,0.020097702741622925,-0.004090393893420696,0.0013227141462266445
1733902773444674600,5.635674560546875,0.01651099883019924,-0.004587897099554539,-0.0029359241016209126
1733902773454701600,5.64570166015625,0.016640961170196533,-0.009396767243742943,-0.0048249042592942715
1733902773464728600,5.655728515625,0.01552734337747097,-0.017121192067861557,-0.005743857007473707
1733902773474755600,5.665755615234375,0.015064219012856483,-0.022751115262508392,-0.0035520754754543304
1733902773484781600,5.675781494140625,0.01861349493265152,-0.02563616819679737,0.00019237445667386055
1733902773494808600,5.68580859375,0.025125987827777863,-0.03130364045500755,0.004370874259620905
1733902773504835600,5.695835693359375,0.03310146927833557,-0.031203288584947586,0.00534919323399663
1733902773514861600,5.705861572265625,0.037812601774930954,-0.02948608249425888,0.00919346697628498
1733902773524888600,5.715888671875,0.0410427488386631,-0.022301405668258667,0.014013521373271942
1733902773534915600,5.72591552734375,0.03930743411183357,-0.015276785008609295,0.01598106510937214
1733902773544941600,5.735941650390625,0.036967772990465164,-0.003925303928554058,0.0218963623046875
1733902773554968600,5.745968505859375,0.03780826926231384,0.006080458872020245,0.025057800114154816
1733902773564995600,5.75599560546875,0.0433768630027771,0.004251834936439991,0.02204355224967003
1733902773575022600,5.766022705078125,0.04976338893175125,0.0005657540168613195,0.008923489600419998
1733902773585048600,5.776048583984375,0.056611426174640656,-0.008406385779380798,-0.008561620488762856
1733902773595075600,5.78607568359375,0.05950894206762314,-0.020301660522818565,-0.026841824874281883
1733902773605102600,5.7961025390625,0.0617854967713356,-0.02460087463259697,-0.03592322766780853
1733902773615128600,5.806128662109375,0.05354674533009529,-0.029329583048820496,-0.0345626175403595
1733902773625155600,5.816155517578125,0.044139161705970764,-0.03595726937055588,-0.029932919889688492
1733902773635182600,5.8261826171875,0.03539413958787918,-0.037931207567453384,-0.022326134145259857
1733902773645209600,5.836209716796875,0.03491389751434326,-0.03814222663640976,-0.010137724690139294
1733902773655235600,5.846235595703125,0.03767213597893715,-0.03554697334766388,-0.0018249342683702707
1733902773665262600,5.8562626953125,0.042286213487386703,-0.03495076671242714,0.0070470161736011505
1733902773675289600,5.86628955078125,0.04684501141309738,-0.03522959724068642,0.013716903515160084
1733902773685315600,5.876315673828125,0.0478801503777504,-0.027655569836497307,0.02282695099711418
1733902773695342600,5.886342529296875,0.047083333134651184,-0.018430380150675774,0.029105085879564285
1733902773705369600,5.89636962890625,0.04752149432897568,-0.009065130725502968,0.03382805362343788
1733902773715395600,5.9063955078125,0.048706602305173874,-0.002035983605310321,0.03753304108977318
1733902773725422600,5.916422607421875,0.0545656681060791,-0.001766931964084506,0.029705051332712173
1733902773735449600,5.92644970703125,0.06852356344461441,-0.007482341956347227,0.014331421814858913
1733902773745476600,5.9364765625,0.08510356396436691,-0.015569658949971199,-0.0046052392572164536
1733902773755502600,5.946502685546875,0.10589273273944855,-0.031230643391609192,-0.02665781043469906
1733902773765529600,5.956529541015625,0.12457142770290375,-0.0520373173058033,-0.04698491096496582
1733902773775556600,5.966556640625,0.13865315914154053,-0.0707380399107933,-0.06544088572263718
1733902773785582600,5.97658251953125,0.14941206574440002,-0.08542750030755997,-0.07488179206848145
1733902773795609600,5.986609619140625,0.154776468873024,-0.09151708334684372,-0.07439256459474564
1733902773805636600,5.99663671875,0.15646660327911377,-0.09245536476373672,-0.06677348166704178
1733902773815662600,6.00666259765625,0.16127626597881317,-0.09471558779478073,-0.052004922181367874
1733902773825689600,6.016689697265625,0.1637294441461563,-0.09699864685535431,-0.02640455588698387
1733902773835716600,6.026716552734375,0.165789395570755,-0.09788893908262253,-0.0009985326323658228
1733902773845743600,6.03674365234375,0.16711492836475372,-0.10010059922933578,0.017702797427773476
1733902773855769600,6.04676953125,0.16466961801052094,-0.10218345373868942,0.021851737052202225
1733902773865796600,6.056796630859375,0.1578739583492279,-0.09715831279754639,0.02321862056851387
1733902773875823600,6.06682373046875,0.14687377214431763,-0.0924474447965622,0.016638215631246567
1733902773885849600,6.076849609375,0.1331043392419815,-0.09405580163002014,0.006790368817746639
1733902773895876600,6.086876708984375,0.11752884089946747,-0.10316860675811768,0.0009396702516824007
1733902773905903600,6.096903564453125,0.10011421144008636,-0.11382251232862473,-0.0032145094592124224
1733902773915929600,6.1069296875,0.08636164665222168,-0.12292146682739258,-0.00034894817508757114
1733902773925956600,6.11695654296875,0.07225941121578217,-0.12434543669223785,0.0029391590505838394
1733902773935983600,6.126983642578125,0.05957850441336632,-0.12091954797506332,0.007830586284399033
1733902773946010600,6.1370107421875,0.04493998363614082,-0.11704374849796295,0.010943104512989521
1733902773956036600,6.14703662109375,0.030806854367256165,-0.1137547492980957,0.012402516789734364
1733902773966063600,6.157063720703125,0.020498206838965416,-0.11187184602022171,0.011265034787356853
1733902773976090600,6.167090576171875,0.014257356524467468,-0.10681183636188507,-0.0017732689157128334
1733902773986116600,6.17711669921875,0.011202073656022549,-0.1017809584736824,-0.016464505344629288
1733902773996143600,6.1871435546875,0.008636916987597942,-0.09943737089633942,-0.032992616295814514
1733902774006170600,6.197170654296875,0.014881225302815437,-0.09250582009553909,-0.042122695595026016
1733902774016197600,6.20719775390625,0.024676330387592316,-0.08473551273345947,-0.04944372549653053
1733902774026223600,6.2172236328125,0.03273285925388336,-0.0742676705121994,-0.051183417439460754
1733902774036250600,6.227250732421875,0.041177477687597275,-0.06761482357978821,-0.056721195578575134
1733902774046277600,6.237277587890625,0.044406455010175705,-0.06118419021368027,-0.06679744273424149
1733902774056303600,6.2473037109375,0.04708106815814972,-0.05973463132977486,-0.07545191794633865
1733902774066330600,6.25733056640625,0.0424727201461792,-0.0584416389465332,-0.07380840927362442
1733902774076357600,6.267357666015625,0.03894243389368057,-0.053474314510822296,-0.06731295585632324
1733902774086383600,6.277383544921875,0.031504981219768524,-0.04724355414509773,-0.04887831211090088
1733902774096410600,6.28741064453125,0.021474719047546387,-0.03917444124817848,-0.034050364047288895
1733902774106437600,6.297437744140625,0.011867189779877663,-0.027723580598831177,-0.028057977557182312
1733902774116464600,6.307464599609375,0.002521092537790537,-0.0185838770121336,-0.0291256383061409
1733902774126490600,6.31749072265625,-0.010175246745347977,-0.01527753472328186,-0.02840775065124035
1733902774136517600,6.327517578125,-0.025553938001394272,-0.017221376299858093,-0.02234186790883541
1733902774146544600,6.337544677734375,-0.043343812227249146,-0.0332522988319397,-0.01759662665426731
1733902774156570600,6.347570556640625,-0.05908576026558876,-0.05986872687935829,-0.01892048306763172
1733902774166597600,6.35759765625,-0.06270559132099152,-0.08568260818719864,-0.03139754384756088
1733902774176624600,6.367624755859375,-0.06608700752258301,-0.1034216582775116,-0.053567562252283096
1733902774186650600,6.377650634765625,-0.07349558174610138,-0.12081824988126755,-0.07042951881885529
1733902774196677600,6.387677734375,-0.08748330175876617,-0.13263389468193054,-0.0805673748254776
1733902774206704600,6.39770458984375,-0.10253915935754776,-0.14270921051502228,-0.08652224391698837
1733902774216731600,6.407731689453125,-0.11121094971895218,-0.14948402345180511,-0.09304779022932053
1733902774226757600,6.417757568359375,-0.11396156251430511,-0.143270805478096,-0.10107613354921341
1733902774236784600,6.42778466796875,-0.10837478190660477,-0.12841862440109253,-0.1036338284611702
1733902774246811600,6.437811767578125,-0.0973796546459198,-0.10107153654098511,-0.09623127430677414
1733902774256837600,6.447837646484375,-0.08272241801023483,-0.06095687299966812,-0.07784933596849442
1733902774266864600,6.45786474609375,-0.06474275887012482,-0.02134976163506508,-0.057360004633665085
1733902774276891600,6.4678916015625,-0.05003704875707626,-0.0075745610520243645,-0.03964705392718315
1733902774286917600,6.477917724609375,-0.03219737112522125,-0.019338784739375114,-0.0269406046718359
1733902774296944600,6.487944580078125,-0.01545514352619648,-0.03818464279174805,-0.01917882263660431
1733902774306971600,6.4979716796875,0.00198134477250278,-0.051850657910108566,-0.023294299840927124
1733902774316998400,6.507998291015625,0.0072386907413601875,-0.06024946644902229,-0.03590064123272896
1733902774327024600,6.518024658203125,0.011431030929088593,-0.06077609583735466,-0.049439579248428345
1733902774337051600,6.5280517578125,0.008977195248007774,-0.06254097074270248,-0.05999581888318062
1733902774347078700,6.53807861328125,0.00043033971451222897,-0.06747794151306152,-0.06259017437696457
1733902774357105700,6.548105712890625,-0.0051186224445700645,-0.0733209177851677,-0.060878559947013855
1733902774367133000,6.5581328125,-0.001741010812111199,-0.06955210864543915,-0.05983628332614899
1733902774377160000,6.568159912109375,-0.0025194527115672827,-0.06868631392717361,-0.05905730649828911
1733902774387186700,6.578186767578125,0.003406976815313101,-0.06686771661043167,-0.05529588460922241
1733902774397212700,6.588212646484375,0.007158305961638689,-0.06392891705036163,-0.04489118233323097
1733902774407240000,6.598239990234375,0.00791960209608078,-0.06921294331550598,-0.03611813485622406
1733902774417267000,6.608266845703125,0.012717019766569138,-0.0883144661784172,-0.02991137094795704
1733902774427293000,6.61829296875,0.028256766498088837,-0.12017691135406494,-0.02620227262377739
1733902774437319700,6.628319580078125,0.04116111248731613,-0.12909157574176788,-0.020275142043828964
1733902774447347000,6.638346923828125,0.04610219970345497,-0.10676450282335281,-0.015710683539509773
1733902774457373000,6.648373046875,0.042629703879356384,-0.05157608538866043,-0.011527123861014843
1733902774467400000,6.65839990234375,0.04428115114569664,0.01168079674243927,-0.015012804418802261
1733902774477426700,6.6684267578125,0.05746353417634964,0.052630893886089325,-0.02969321422278881
1733902774487452700,6.67845263671875,0.08500238507986069,0.057625140994787216,-0.05084904655814171
1733902774497480000,6.68847998046875,0.12289037555456161,0.03104226663708687,-0.07113833725452423
1733902774507507000,6.6985068359375,0.15923894941806793,-0.011029094457626343,-0.09207994490861893
1733902774517533700,6.70853369140625,0.17690208554267883,-0.05157279223203659,-0.10936306416988373
1733902774527559700,6.7185595703125,0.17575831711292267,-0.0926966741681099,-0.11936716735363007
1733902774537587000,6.7285869140625,0.16395731270313263,-0.12107238918542862,-0.12153151631355286
1733902774547614000,6.738614013671875,0.14709849655628204,-0.12925603985786438,-0.12138199806213379
1733902774557640000,6.748639892578125,0.12656232714653015,-0.11868008971214294,-0.11901018768548965
1733902774567666700,6.758666748046875,0.11908996105194092,-0.11305160075426102,-0.12645380198955536
1733902774577694000,6.76869384765625,0.13476799428462982,-0.11613314598798752,-0.13189756870269775
1733902774587720000,6.778719970703125,0.15229980647563934,-0.06490404158830643,-0.1334707885980606
1733902774597747000,6.788746826171875,0.16099077463150024,-0.006372024305164814,-0.1298624724149704
1733902774607773700,6.798773681640625,0.1539282202720642,0.025767609477043152,-0.11580637097358704
1733902774617801000,6.808801025390625,0.15455806255340576,0.03117941878736019,-0.10444559156894684
1733902774627827000,6.818826904296875,0.16143973171710968,0.021441280841827393,-0.09358883649110794
1733902774637854000,6.82885400390625,0.17095227539539337,0.014878454618155956,-0.08296868205070496
1733902774647880700,6.838880615234375,0.17310543358325958,0.016569826751947403,-0.07207555323839188
1733902774657906700,6.84890673828125,0.17994336783885956,0.03594033047556877,-0.0601123683154583
1733902774667934000,6.858933837890625,0.1920328438282013,0.057196442037820816,-0.04769273102283478
1733902774677961000,6.8689609375,0.20250412821769714,0.07725350558757782,-0.03945504128932953
1733902774687987700,6.87898779296875,0.20136336982250214,0.07616248726844788,-0.03756506368517876
1733902774698013700,6.889013671875,0.19130247831344604,0.05458662286400795,-0.04553830251097679
1733902774708041000,6.899041015625,0.16232208907604218,0.03436862677335739,-0.05509472265839577
1733902774718068000,6.90906787109375,0.12986934185028076,0.022548720240592957,-0.058386120945215225
1733902774728094000,6.919093994140625,0.09371627867221832,0.016470780596137047,-0.055939048528671265
1733902774738120700,6.92912060546875,0.060132745653390884,0.016447611153125763,-0.04373777657747269
1733902774748148000,6.93914794921875,0.03244626149535179,0.024806741625070572,-0.027065854519605637
1733902774758174000,6.949174072265625,0.015516012907028198,0.039686355739831924,-0.007914531975984573
1733902774768201000,6.959200927734375,0.00477198138833046,0.05893437936902046,0.002788424026221037
1733902774778227700,6.969227783203125,-0.0032025882974267006,0.07738049328327179,0.009784281253814697
1733902774788253700,6.979253662109375,-0.013840644620358944,0.0898844450712204,0.018114229664206505
1733902774798281000,6.989281005859375,-0.031691279262304306,0.09683503210544586,0.030014032498002052
1733902774808308000,6.999307861328125,-0.053508203476667404,0.09913735836744308,0.0456041544675827
1733902774818334700,7.009334716796875,-0.08078642934560776,0.0995248481631279,0.058249108493328094
1733902774828360700,7.019360595703125,-0.10962309688329697,0.10515740513801575,0.06609693914651871
1733902774838387700,7.0293876953125,-0.12727800011634827,0.10811298340559006,0.07570615410804749
1733902774848415000,7.0394150390625,-0.1381443738937378,0.10579331964254379,0.08211545646190643
1733902774858441000,7.04944091796875,-0.1464230716228485,0.09826722741127014,0.09543818235397339
1733902774868467700,7.0594677734375,-0.1506461799144745,0.094174824655056,0.10936671495437622
1733902774878494700,7.06949462890625,-0.15407313406467438,0.09259503334760666,0.11330073326826096
1733902774888521000,7.07952099609375,-0.15853707492351532,0.1012374758720398,0.11214221268892288
1733902774898548000,7.0895478515625,-0.16703468561172485,0.12231000512838364,0.10908437520265579
1733902774908574700,7.09957470703125,-0.1687421053647995,0.151984304189682,0.11123955249786377
1733902774918601700,7.109601806640625,-0.16232281923294067,0.18740461766719818,0.11961013078689575
1733902774928627700,7.119627685546875,-0.15136274695396423,0.2198203206062317,0.13370059430599213
1733902774938655000,7.129655029296875,-0.13374461233615875,0.24030882120132446,0.14157342910766602
1733902774948681700,7.139681640625,-0.11127148568630219,0.24775099754333496,0.15005749464035034
1733902774958707700,7.149707763671875,-0.09093745052814484,0.2498394399881363,0.15882354974746704
1733902774968734700,7.159734619140625,-0.06712392717599869,0.2564431130886078,0.16410894691944122
1733902774978762000,7.169761962890625,-0.04366759955883026,0.2635857164859772,0.16476620733737946
1733902774988788000,7.1797880859375,-0.02674040012061596,0.2519577145576477,0.1643422245979309
1733902774998814700,7.189814697265625,-0.004573046695441008,0.23679926991462708,0.16318213939666748
1733902775008841700,7.199841796875,0.01458577811717987,0.224306121468544,0.15581445395946503
1733902775018869000,7.209868896484375,0.03619573265314102,0.21255040168762207,0.1429806798696518
1733902775028895000,7.21989501953125,0.057947661727666855,0.19489870965480804,0.12985511124134064
1733902775038921700,7.229921630859375,0.07390079647302628,0.18761949241161346,0.12913845479488373
1733902775048948700,7.23994873046875,0.09076770395040512,0.17789052426815033,0.14206169545650482
1733902775058974700,7.249974609375,0.09156984835863113,0.16088277101516724,0.16527992486953735
1733902775069002000,7.260001953125,0.08765918016433716,0.12972620129585266,0.1973436325788498
1733902775079028700,7.27002880859375,0.08943551033735275,0.09552694857120514,0.2311636507511139
1733902775089054700,7.2800546875,0.10477627068758011,0.08603499084711075,0.26140227913856506
1733902775099081700,7.290081787109375,0.10631345212459564,0.11846643686294556,0.27762892842292786
1733902775109109000,7.30010888671875,0.09709907323122025,0.1544114351272583,0.27882134914398193
1733902775119135700,7.3101357421875,0.09111414849758148,0.16733203828334808,0.23121388256549835
1733902775129161700,7.32016162109375,0.10216759145259857,0.14626896381378174,0.14506570994853973
1733902775139188700,7.330188720703125,0.12527504563331604,0.12016385793685913,0.07891972362995148
1733902775149216000,7.340216064453125,0.15384423732757568,0.09894277900457382,0.04434872418642044
1733902775159242000,7.350241943359375,0.17089565098285675,0.06064305454492569,0.029876576736569405
1733902775169268700,7.360268798828125,0.17387591302394867,0.03652060404419899,0.030522650107741356
1733902775179295700,7.370295654296875,0.17349162697792053,0.0007482280489057302,0.04047461599111557
1733902775189321700,7.38032177734375,0.1662883758544922,-0.030481498688459396,0.05548933520913124
1733902775199349000,7.390348876953125,0.14640522003173828,-0.06644748896360397,0.07799091190099716
1733902775209375700,7.400375732421875,0.11863259226083755,-0.09321807324886322,0.10836146771907806
1733902775219401700,7.410401611328125,0.1019124686717987,-0.09891963005065918,0.1355171799659729
1733902775229428700,7.4204287109375,0.08306106179952621,-0.10739969462156296,0.1650599241256714
1733902775239456000,7.4304560546875,0.07453761249780655,-0.11402057856321335,0.20091326534748077
1733902775249482800,7.440482666015625,0.07433381676673889,-0.08869122713804245,0.22924810647964478
1733902775259508700,7.4505087890625,0.07693439722061157,-0.040664587169885635,0.24965724349021912
1733902775269535700,7.46053564453125,0.08512579649686813,-0.00619782879948616,0.2584807276725769
1733902775279563000,7.47056298828125,0.06537153571844101,-0.04345491901040077,0.28704923391342163
1733902775289589000,7.480589111328125,0.008951603434979916,-0.1726379245519638,0.35266515612602234
1733902775299615700,7.49061572265625,-0.09568559378385544,-0.3192441165447235,0.43588972091674805
1733902775309642800,7.500642822265625,-0.23577338457107544,-0.42780712246894836,0.5165703296661377
1733902775319668700,7.510668701171875,-0.3596247732639313,-0.5061533451080322,0.5740722417831421
1733902775329696000,7.520696044921875,-0.4247797429561615,-0.4579218029975891,0.6082533597946167
1733902775339722800,7.53072265625,-0.41391512751579285,-0.31067001819610596,0.5941292643547058
1733902775349749800,7.540749755859375,-0.3183034062385559,-0.11202187836170197,0.5447198748588562
1733902775359775000,7.55077490234375,-0.1502329260110855,0.0300910547375679,0.47320735454559326
1733902775369802000,7.560802001953125,0.03123502805829048,0.06864716112613678,0.3859911262989044
1733902775379829200,7.570829345703125,0.17663109302520752,0.025012070313096046,0.28072407841682434
1733902775389855200,7.580855224609375,0.2813126742839813,-0.09259653836488724,0.15441076457500458
1733902775399882000,7.590882080078125,0.33858075737953186,-0.26547643542289734,0.029452312737703323
1733902775409909000,7.600908935546875,0.3433946967124939,-0.4829942584037781,-0.06795753538608551
1733902775419935000,7.61093505859375,0.291493684053421,-0.6654671430587769,-0.11300890147686005
1733902775429962200,7.620962158203125,0.20837023854255676,-0.7565730214118958,-0.1361456960439682
1733902775439989000,7.630989013671875,0.12021294236183167,-0.7624751329421997,-0.1329195350408554
1733902775450016000,7.64101611328125,0.037056125700473785,-0.6889845728874207,-0.1055767610669136
1733902775460042000,7.6510419921875,-0.03258313983678818,-0.5723450183868408,-0.05461797118186951
1733902775470069200,7.6610693359375,-0.09818622469902039,-0.43890705704689026,0.027583017945289612
1733902775480096000,7.671095947265625,-0.1579960435628891,-0.29614245891571045,0.11767536401748657
1733902775490122000,7.6811220703125,-0.22037971019744873,-0.19008088111877441,0.20610782504081726
1733902775500149000,7.69114892578125,-0.2633229196071625,-0.1450692117214203,0.25370705127716064
1733902775510176300,7.70117626953125,-0.2659126818180084,-0.1583837866783142,0.2591218650341034
1733902775520202200,7.7112021484375,-0.22307705879211426,-0.21014659106731415,0.22556763887405396
1733902775530229000,7.72122900390625,-0.14028792083263397,-0.2552123963832855,0.15373855829238892
1733902775540256000,7.731256103515625,-0.047708455473184586,-0.2796269357204437,0.06534186005592346
1733902775550282000,7.741281982421875,0.022512709721922874,-0.2948887050151825,0.0007596730720251799
1733902775560309200,7.751309326171875,0.06972895562648773,-0.3074684143066406,-0.008759263902902603
1733902775570336000,7.7613359375,0.09587094187736511,-0.3070131242275238,0.008727384731173515
1733902775580363000,7.771363037109375,0.07052750140428543,-0.3019528388977051,0.030695801600813866
1733902775590389000,7.781388916015625,0.01905086636543274,-0.2794477045536041,0.034675829112529755
1733902775600416300,7.791416259765625,-0.026275334879755974,-0.24593795835971832,0.028017394244670868
1733902775610443000,7.801443115234375,-0.05359737575054169,-0.219961017370224,0.02469756454229355
1733902775620469000,7.811468994140625,-0.05616280063986778,-0.19408389925956726,0.02536974661052227
1733902775630496000,7.82149609375,-0.04182114452123642,-0.14614593982696533,0.020175516605377197
1733902775640523300,7.831523193359375,-0.03214694559574127,-0.09766148030757904,0.003063374664634466
1733902775650549200,7.84154931640625,-0.05522065982222557,-0.07075871527194977,-0.020394857972860336
1733902775660576000,7.851575927734375,-0.08734211325645447,-0.06624678522348404,-0.03053431026637554
1733902775670603000,7.86160302734375,-0.12064757943153381,-0.08290594816207886,-0.02788560464978218
1733902775680629000,7.87162890625,-0.15426839888095856,-0.09515196084976196,-0.011328465305268764
1733902775690656300,7.88165625,-0.17562304437160492,-0.08833446353673935,0.01642702892422676
1733902775700683000,7.89168310546875,-0.16725219786167145,-0.0380965881049633,0.034564483910799026
1733902775710710000,7.9017099609375,-0.14801348745822906,0.035171061754226685,0.030621394515037537
1733902775720736000,7.911736083984375,-0.12912927567958832,0.0907757356762886,0.007263608276844025
1733902775730763300,7.92176318359375,-0.11385050415992737,0.11653555929660797,-0.013014920055866241
1733902775740790000,7.9317900390625,-0.11242544651031494,0.15250155329704285,-0.020869914442300797
1733902775750816000,7.94181591796875,-0.11647625267505646,0.1713966429233551,-0.012527590617537498
1733902775760843000,7.951843017578125,-0.12042199075222015,0.1726246178150177,0.00038021779619157314
1733902775770870300,7.961870361328125,-0.12718546390533447,0.16604532301425934,-0.005214424803853035
1733902775780896300,7.971896240234375,-0.1389598399400711,0.16091181337833405,-0.020146504044532776
1733902775790923000,7.981923095703125,-0.13684125244617462,0.15187251567840576,-0.03766121715307236
1733902775800950000,7.991949951171875,-0.12827812135219574,0.14023424685001373,-0.03425370529294014
1733902775810977000,8.00197705078125,-0.11600667983293533,0.13778631389141083,-0.0023165137972682714
1733902775821003300,8.012003173828125,-0.09965886920690536,0.1631190925836563,0.03502153605222702
1733902775831030000,8.022030029296875,-0.06801756471395493,0.20308303833007812,0.05823267996311188
1733902775841057000,8.03205712890625,-0.027570538222789764,0.24420809745788574,0.05588537082076073
1733902775851083000,8.0420830078125,0.013477970845997334,0.25807899236679077,0.0397404208779335
1733902775861110300,8.0521103515625,0.06233498826622963,0.24996431171894073,0.0016894410364329815
1733902775871137000,8.062136962890625,0.10044889152050018,0.22648251056671143,-0.038632504642009735
1733902775881163000,8.0721630859375,0.1174265444278717,0.2051583081483841,-0.07013343274593353
1733902775891190000,8.08218994140625,0.12144634127616882,0.19162625074386597,-0.07928502559661865
1733902775901217000,8.092217041015624,0.11924896389245987,0.19722554087638855,-0.07058767229318619
1733902775911243300,8.1022431640625,0.11204495280981064,0.21836593747138977,-0.0487581342458725
1733902775921270000,8.11227001953125,0.10001306235790253,0.2161720246076584,-0.019023410975933075
1733902775931297000,8.122297119140624,0.0840706005692482,0.1969490349292755,0.00648879911750555
1733902775941324000,8.132323974609376,0.06273069232702255,0.17044393718242645,0.01741228811442852
1733902775951350300,8.142350341796876,0.04089086130261421,0.14111588895320892,0.02535354532301426
1733902775961377000,8.152376953125,0.027974797412753105,0.1424408107995987,0.03516249731183052
1733902775971404000,8.162404052734376,0.024529872462153435,0.19761918485164642,0.03856914862990379
1733902775981430000,8.172429931640625,0.036805979907512665,0.26135075092315674,0.051393602043390274
1733902775991457000,8.18245703125,0.07287643849849701,0.3018586039543152,0.05672932788729668
1733902776001484000,8.192484130859375,0.11904686689376831,0.2946169376373291,0.04158153384923935
1733902776011510000,8.202510009765625,0.16151674091815948,0.24906426668167114,-0.004032373894006014
1733902776021537000,8.212537109375,0.19656075537204742,0.18510392308235168,-0.08268031477928162
1733902776031564000,8.22256396484375,0.20591644942760468,0.11972131580114365,-0.16261884570121765
1733902776041591000,8.232591064453125,0.18672090768814087,0.07669635117053986,-0.22582845389842987
1733902776051617000,8.242616943359375,0.153799369931221,0.06396874040365219,-0.2509027123451233
1733902776061644000,8.25264404296875,0.12249525636434555,0.07049215584993362,-0.23395037651062012
1733902776071671000,8.262671142578125,0.11076904833316803,0.07554073631763458,-0.1920679360628128
1733902776081697000,8.272697021484374,0.12103686481714249,0.08532065898180008,-0.14935296773910522
1733902776091724000,8.28272412109375,0.13752539455890656,0.08520437777042389,-0.11917943507432938
1733902776101751000,8.2927509765625,0.15722772479057312,0.07833261787891388,-0.12036719918251038
1733902776111777000,8.302777099609376,0.1517971158027649,0.09799238294363022,-0.15822197496891022
1733902776121804000,8.312803955078126,0.12305309623479843,0.1294211596250534,-0.2314663678407669
1733902776131831300,8.322831298828126,0.07056798785924911,0.17229261994361877,-0.27331072092056274
1733902776141857000,8.33285693359375,0.014803792349994183,0.1931302547454834,-0.2796303927898407
1733902776151884000,8.342884033203125,-0.019941231235861778,0.17509953677654266,-0.2563762366771698
1733902776161911000,8.3529111328125,-0.023160725831985474,0.10688771307468414,-0.21957480907440186
1733902776171938300,8.362938232421875,-0.007566952146589756,0.013603473082184792,-0.17530445754528046
1733902776181964000,8.372964111328125,0.009243186563253403,-0.041262436658144,-0.1420775204896927
1733902776191991000,8.382990966796875,0.007954273372888565,-0.03437085449695587,-0.1319187581539154
1733902776202018000,8.39301806640625,0.001094504026696086,0.02089080587029457,-0.13314087688922882
1733902776212044000,8.4030439453125,-0.004363842308521271,0.10117416828870773,-0.13782551884651184
1733902776222071300,8.4130712890625,0.0171198770403862,0.13324475288391113,-0.12328332662582397
1733902776232098000,8.42309814453125,0.0830918624997139,0.08881155401468277,-0.11055861413478851
1733902776242124000,8.4331240234375,0.12621402740478516,0.04151967540383339,-0.10598330199718475
1733902776252151000,8.443151123046874,0.14076785743236542,-0.02155609056353569,-0.10315021872520447
1733902776262178300,8.45317822265625,0.13803730905056,-0.10815383493900299,-0.09960421919822693
1733902776272204300,8.463204345703126,0.11369997262954712,-0.18998540937900543,-0.11529342085123062
1733902776282231000,8.47323095703125,0.08336896449327469,-0.2437881976366043,-0.16750282049179077
1733902776292258000,8.483258056640626,0.053641971200704575,-0.27457502484321594,-0.22514113783836365
1733902776302285300,8.493285400390626,0.03626537695527077,-0.2636888027191162,-0.2727179527282715
1733902776312311300,8.503311279296875,0.03826802223920822,-0.20259279012680054,-0.2918967008590698
1733902776322338000,8.513338134765625,0.07279084622859955,-0.12643277645111084,-0.2787899672985077
1733902776332365000,8.523364990234375,0.13567553460597992,-0.042460374534130096,-0.2384697049856186
1733902776342391000,8.53339111328125,0.20889168977737427,0.043886762112379074,-0.19447587430477142
1733902776352417800,8.543417724609375,0.2434607893228531,0.07144544273614883,-0.18040598928928375
1733902776362444500,8.553444580078125,0.19551056623458862,0.011195417493581772,-0.21053272485733032
1733902776372470500,8.563470458984375,0.10496845841407776,-0.06473730504512787,-0.22484955191612244
1733902776382497500,8.57349755859375,0.039648305624723434,-0.09343340247869492,-0.2077355533838272
1733902776392524800,8.58352490234375,-0.0024501292500644922,-0.06676968187093735,-0.18544183671474457
1733902776402550800,8.59355078125,-0.01707620918750763,-0.04355330765247345,-0.16154848039150238
1733902776412577500,8.60357763671875,-0.002125229686498642,-0.03856790438294411,-0.14381040632724762
1733902776422604500,8.6136044921875,0.03518538922071457,-0.04808257892727852,-0.1379874050617218
1733902776432631800,8.6236318359375,0.06998634338378906,-0.0682697743177414,-0.14347174763679504
1733902776442657800,8.63365771484375,0.08504332602024078,-0.09945991635322571,-0.15425194799900055
1733902776452684500,8.6436845703125,0.0796646848320961,-0.13302911818027496,-0.16606423258781433
1733902776462711600,8.653711669921876,0.05199817195534706,-0.14603254199028015,-0.17480073869228363
1733902776472737500,8.663737548828125,0.026001203805208206,-0.10970957577228546,-0.18771417438983917
1733902776482764800,8.673764892578125,0.024789199233055115,-0.05736860632896423,-0.19982916116714478
1733902776492791600,8.68379150390625,0.03768341615796089,-0.008672026917338371,-0.20174181461334229
1733902776502817500,8.693817626953125,0.059494439512491226,0.028271876275539398,-0.18910324573516846
1733902776512844500,8.703844482421875,0.07626397162675858,0.05548303574323654,-0.16032801568508148
1733902776522871800,8.713871826171875,0.09298649430274963,0.05493202805519104,-0.12990780174732208
1733902776532897800,8.723897705078125,0.10905192792415619,0.01785687915980816,-0.1047486960887909
1733902776542924500,8.733924560546875,0.11285092681646347,-0.04195106029510498,-0.08411852270364761
1733902776552951600,8.74395166015625,0.09681882709264755,-0.08334438502788544,-0.07069585472345352
1733902776562978800,8.753978759765625,0.059576377272605896,-0.10479561239480972,-0.059334274381399155
1733902776573004800,8.7640048828125,0.0179932601749897,-0.10666127502918243,-0.05788431689143181
1733902776583031600,8.774031494140624,0.0015365220606327057,-0.09812397509813309,-0.08115474879741669
1733902776593058600,8.78405859375,0.01400646660476923,-0.08609634637832642,-0.119955874979496
1733902776603084500,8.79408447265625,0.04646507278084755,-0.06424804031848907,-0.15518894791603088
1733902776613111800,8.80411181640625,0.08343890309333801,-0.036320969462394714,-0.17219173908233643
1733902776623138600,8.814138671875,0.11040101200342178,-0.02095506154000759,-0.1741771250963211
1733902776633164500,8.82416455078125,0.13084092736244202,-0.02876138873398304,-0.16406244039535522
1733902776643191600,8.834191650390625,0.14287683367729187,-0.05747772380709648,-0.14907950162887573
1733902776653218800,8.84421875,0.14415892958641052,-0.08389313519001007,-0.12838919460773468
1733902776663245600,8.85424560546875,0.1398203819990158,-0.08621780574321747,-0.1113651916384697
1733902776673271600,8.864271484375,0.1324165165424347,-0.06516191363334656,-0.09771192818880081
1733902776683298600,8.874298583984375,0.12767209112644196,-0.027842769399285316,-0.09420694410800934
1733902776693325600,8.88432568359375,0.12200610339641571,0.01697176694869995,-0.10215524584054947
1733902776703351800,8.894351806640625,0.11627045273780823,0.044198863208293915,-0.11284970492124557
1733902776713378600,8.904378662109375,0.10096705704927444,0.05031231790781021,-0.11883870512247086
1733902776723405600,8.914405517578125,0.0785597562789917,0.038367241621017456,-0.12053833156824112
1733902776733431600,8.924431640625,0.04517558962106705,0.024716190993785858,-0.10988050699234009
1733902776743458800,8.934458740234374,0.011656777933239937,0.016393810510635376,-0.09092891216278076
1733902776753485600,8.944485595703124,-0.019289791584014893,0.013748273253440857,-0.06229075416922569
1733902776763511600,8.954511474609374,-0.04057670757174492,0.01012797188013792,-0.03164895623922348
1733902776773538600,8.96453857421875,-0.0601954460144043,0.006041260436177254,-0.003755694255232811
1733902776783565600,8.974565673828126,-0.06714150309562683,-0.0005218334263190627,0.021374693140387535
1733902776793592600,8.984592529296876,-0.05955718457698822,-0.014218837022781372,0.04539835825562477
1733902776803618600,8.99461865234375,-0.04510660469532013,-0.01799173653125763,0.06351930648088455
1733902776813645600,9.0046455078125,-0.030531708151102066,0.0027493995148688555,0.07478555291891098
1733902776823672600,9.014672607421875,-0.010203000158071518,0.048586662858724594,0.07965408265590668
1733902776833698800,9.02469873046875,-0.008423414081335068,0.1291714757680893,0.072172150015831
1733902776843725600,9.0347255859375,-0.0023996096570044756,0.22212643921375275,0.07021232694387436
1733902776853752600,9.044752685546875,0.017095549032092094,0.30365273356437683,0.07529639452695847
1733902776863778600,9.054778564453125,0.029801225289702415,0.38392147421836853,0.0826224833726883
1733902776873805600,9.0648056640625,0.017801277339458466,0.43574273586273193,0.09168685227632523
1733902776883832600,9.07483251953125,-0.008487849496304989,0.42413589358329773,0.12271720916032791
1733902776893858600,9.084858642578125,-0.046194471418857574,0.33705276250839233,0.17707841098308563
1733902776903885600,9.094885498046875,-0.08893793821334839,0.21974237263202667,0.23419202864170074
1733902776913912600,9.10491259765625,-0.11656149476766586,0.1445288062095642,0.2716531753540039
1733902776923939600,9.114939697265624,-0.10027093440294266,0.11245475709438324,0.2669582962989807
1733902776933965600,9.124965576171874,-0.053194381296634674,0.11956585198640823,0.2271675169467926
1733902776943992600,9.13499267578125,-0.010643189772963524,0.15044493973255157,0.18525788187980652
1733902776954019600,9.14501953125,0.016548430547118187,0.18199531733989716,0.14802612364292145
1733902776964045600,9.155045654296876,0.031870923936367035,0.18162301182746887,0.11758725345134735
1733902776974072600,9.165072509765626,0.033502910286188126,0.1505817323923111,0.09717971086502075
1733902776984099600,9.175099609375,0.03117823787033558,0.09984851628541946,0.0807139202952385
1733902776994125600,9.18512548828125,0.016078872606158257,0.0417141318321228,0.06134446710348129
1733902777004152600,9.195152587890625,-0.002891889540478587,0.022661076858639717,0.043294623494148254
1733902777014179600,9.2051796875,-0.020173683762550354,0.03616078943014145,0.03511902317404747
1733902777024205600,9.21520556640625,-0.024857385084033012,0.05986185744404793,0.04569763317704201
1733902777034232600,9.225232666015625,-0.02346205897629261,0.09948363900184631,0.05924806743860245
1733902777044259600,9.235259521484375,-0.015263252891600132,0.13331030309200287,0.07825425267219543
1733902777054285600,9.24528564453125,-0.00854072067886591,0.1310967355966568,0.1138651967048645
1733902777064312600,9.2553125,0.010103804059326649,0.1360616683959961,0.14506413042545319
1733902777074339600,9.265339599609375,0.021241260692477226,0.15514035522937775,0.16986200213432312
1733902777084366600,9.27536669921875,0.02861528843641281,0.18005263805389404,0.1851179152727127
1733902777094392600,9.285392578125,0.01259639672935009,0.24122461676597595,0.18018992245197296
1733902777104419600,9.295419677734374,-0.009119817987084389,0.303500235080719,0.15784519910812378
1733902777114446600,9.305446533203124,-0.016210591420531273,0.3105321228504181,0.13668827712535858
1733902777124472600,9.31547265625,-0.014567420817911625,0.22744736075401306,0.13761799037456512
1733902777134499600,9.32549951171875,-0.010987366549670696,0.11867655813694,0.15000537037849426
1733902777144526800,9.33552685546875,0.006404673680663109,0.0026687278877943754,0.16729700565338135
1733902777154552600,9.345552490234375,0.024667033925652504,-0.020370544865727425,0.1513766199350357
1733902777164579600,9.35557958984375,0.04713265970349312,0.021377433091402054,0.09931075572967529
1733902777174606600,9.365606689453125,0.07178471237421036,-0.024300159886479378,0.06924200803041458
1733902777184632600,9.375632568359375,0.08976158499717712,-0.10717826336622238,0.06873574107885361
1733902777194659600,9.38565966796875,0.11745816469192505,-0.20113392174243927,0.08551227301359177
1733902777204686600,9.3956865234375,0.15091997385025024,-0.2951834499835968,0.12143005430698395
1733902777214713600,9.405713623046875,0.19050681591033936,-0.3498208522796631,0.16836729645729065
1733902777224739600,9.415739501953125,0.2294132113456726,-0.3368230164051056,0.21182475984096527
1733902777234766800,9.425766845703125,0.25953182578086853,-0.22183926403522491,0.23075298964977264
1733902777244793600,9.435793701171875,0.26775139570236206,-0.06330953538417816,0.22938358783721924
1733902777254819600,9.445819580078124,0.2674858570098877,0.036175914108753204,0.21797508001327515
1733902777264846600,9.4558466796875,0.2604673504829407,0.045450374484062195,0.1997060626745224
1733902777274873900,9.465873779296874,0.244560107588768,-0.029723908752202988,0.18832218647003174
1733902777284899600,9.475899658203126,0.2188347727060318,-0.11939387023448944,0.17341327667236328
1733902777294926600,9.485926513671876,0.1760982871055603,-0.1883159726858139,0.1576099395751953
1733902777304953600,9.49595361328125,0.13789604604244232,-0.2502720355987549,0.15248174965381622
1733902777314979600,9.5059794921875,0.10242415964603424,-0.3087385892868042,0.16525910794734955
1733902777325006800,9.5160068359375,0.0769377052783966,-0.3282979130744934,0.17113617062568665
1733902777335033600,9.52603369140625,0.05764703452587128,-0.32631915807724,0.17291106283664703
1733902777345060600,9.536060546875,0.0365004688501358,-0.30737394094467163,0.17406579852104187
1733902777355087400,9.54608740234375,0.016757171601057053,-0.288438618183136,0.17937615513801575
1733902777365114000,9.556114013671875,0.008761029690504074,-0.2738093435764313,0.18774248659610748
1733902777375141000,9.56614111328125,0.018232880160212517,-0.26307642459869385,0.1936226338148117
1733902777385167000,9.5761669921875,0.0473734512925148,-0.24359406530857086,0.1845865249633789
1733902777395194400,9.5861943359375,0.08443108946084976,-0.23408007621765137,0.15517880022525787
1733902777405221000,9.59622119140625,0.1095590740442276,-0.26305392384529114,0.12226638942956924
1733902777415247000,9.6062470703125,0.1208970695734024,-0.3090517222881317,0.09340821206569672
1733902777425274000,9.616274169921875,0.11460641771554947,-0.37245118618011475,0.0697401687502861
1733902777435301400,9.62630126953125,0.09223692119121552,-0.44415879249572754,0.06590817868709564
1733902777445327400,9.636327392578124,0.04881380870938301,-0.4915018081665039,0.0741136446595192
1733902777455354000,9.64635400390625,0.007876335643231869,-0.5035651326179504,0.08534593880176544
1733902777465381000,9.656381103515624,-0.014632700942456722,-0.4794585108757019,0.09823057800531387
1733902777475407000,9.666406982421876,-0.011156658641994,-0.41947057843208313,0.10476894676685333
1733902777485434400,9.676434326171876,0.012902604416012764,-0.3502262532711029,0.10525204241275787
1733902777495461000,9.686461181640626,0.04399910941720009,-0.2869117856025696,0.10450490564107895
1733902777505488100,9.696488037109376,0.07716985046863556,-0.23388051986694336,0.09813755005598068
1733902777515514000,9.70651416015625,0.10626152902841568,-0.2078162580728531,0.0937851145863533
1733902777525541400,9.716541259765625,0.12192624062299728,-0.19722512364387512,0.08723373711109161
1733902777535568100,9.726568115234375,0.13927389681339264,-0.19994597136974335,0.0779847651720047
1733902777545594000,9.736593994140625,0.16273421049118042,-0.19233918190002441,0.05803501978516579
1733902777555621000,9.74662109375,0.18420861661434174,-0.16890735924243927,0.01853102259337902
1733902777565648400,9.7566484375,0.2030094712972641,-0.11788013577461243,-0.03700201213359833
1733902777575674400,9.76667431640625,0.21960429847240448,-0.07404030859470367,-0.0992114245891571
1733902777585701000,9.776701171875,0.22651679813861847,-0.0679698958992958,-0.1516892910003662
1733902777595728100,9.78672802734375,0.1869991421699524,-0.13229212164878845,-0.15439963340759277
1733902777605754000,9.796754150390624,0.10038089752197266,-0.18816523253917694,-0.13267648220062256
1733902777615781400,9.806781494140624,0.0011687171645462513,-0.16972893476486206,-0.11085441708564758
1733902777625808100,9.81680810546875,-0.09328321367502213,-0.10408838838338852,-0.08252504467964172
1733902777635835100,9.826835205078124,-0.14391642808914185,-0.04500943422317505,-0.04377002641558647
1733902777645861000,9.836861083984376,-0.1374790370464325,0.005751481279730797,-0.009818986058235168
1733902777655888400,9.846888427734376,-0.10362888127565384,0.05515909940004349,0.006139532662928104
1733902777665915100,9.8569150390625,-0.06992338597774506,0.13370449841022491,-0.0060561466962099075
1733902777675941000,9.866941162109375,-0.054564617574214935,0.18960435688495636,-0.03290668502449989
1733902777685968100,9.876968017578125,-0.054145704954862595,0.20177152752876282,-0.06146908551454544
1733902777695995400,9.886995361328125,-0.06784035265445709,0.18810932338237762,-0.08943403512239456
1733902777706021400,9.897021484375,-0.07535500079393387,0.13330279290676117,-0.10301429778337479
1733902777716048100,9.907048095703125,-0.09165429323911667,0.06786266714334488,-0.09765879064798355
1733902777726075100,9.9170751953125,-0.09693427383899689,0.04346838220953941,-0.08814571052789688
1733902777736101000,9.92710107421875,-0.08452890813350677,0.05103502422571182,-0.07215661555528641
1733902777746128400,9.93712841796875,-0.05922967940568924,0.07590361684560776,-0.052760280668735504
1733902777756155100,9.947155029296875,-0.03891659528017044,0.1245584487915039,-0.035829462110996246
1733902777766182100,9.95718212890625,-0.019936513155698776,0.19680948555469513,-0.037683818489313126
1733902777776208100,9.9672080078125,-0.00514545664191246,0.24203044176101685,-0.03256711736321449
1733902777786235400,9.9772353515625,-0.008842723444104195,0.2695627212524414,-0.02647726610302925
1733902777796262100,9.98726220703125,-0.03465427830815315,0.2725331783294678,-0.012025674805045128
1733902777806288100,9.9972880859375,-0.08608098328113556,0.23410271108150482,0.01882198639214039
1733902777816315100,10.007315185546876,-0.13058410584926605,0.17185096442699432,0.06207890436053276
1733902777826342100,10.017342041015626,-0.1552865207195282,0.12354070693254471,0.09296464920043945
1733902777836368400,10.027368408203126,-0.15124393999576569,0.09596142917871475,0.10398649424314499
1733902777846395100,10.03739501953125,-0.12150628119707108,0.0958048403263092,0.09004750847816467
1733902777856422100,10.047422119140625,-0.07116782665252686,0.10627856850624084,0.05093095451593399
1733902777866448100,10.0574482421875,-0.015402568504214287,0.12761874496936798,-0.006417552940547466
1733902777876475400,10.067475341796875,0.02531016618013382,0.169485405087471,-0.06985945254564285
1733902777886502100,10.077502197265625,0.04828259348869324,0.17483490705490112,-0.10354551672935486
1733902777896528100,10.087528076171875,0.04908004775643349,0.17626230418682098,-0.10466043651103973
1733902777906555100,10.09755517578125,0.031156977638602257,0.18968063592910767,-0.07563704252243042
1733902777916582100,10.10758203125,0.008388036862015724,0.18925879895687103,-0.033735837787389755
1733902777926609200,10.117609130859375,-0.009114524349570274,0.1591981053352356,0.004560951609164476
1733902777936635100,10.12763525390625,-0.0082091661170125,0.14180545508861542,-0.004867274779826403
1733902777946662100,10.137662109375,0.0002080206759274006,0.12417799234390259,-0.055352285504341125
1733902777956689200,10.147689208984374,-0.0013681674608960748,0.1150796115398407,-0.12846003472805023
1733902777966715400,10.15771533203125,-0.03437858074903488,0.11172030866146088,-0.19303050637245178
1733902777976742100,10.1677421875,-0.09844230115413666,0.0894564539194107,-0.21097245812416077
1733902777986769200,10.17776904296875,-0.1603376418352127,0.04934631660580635,-0.2026418298482895
1733902777996795100,10.187795166015626,-0.18269193172454834,0.032996755093336105,-0.1776648759841919
1733902778006822100,10.197822265625,-0.17536237835884094,0.04895121976733208,-0.15145564079284668
1733902778016849200,10.20784912109375,-0.15878155827522278,0.06463978439569473,-0.12855695188045502
1733902778026875100,10.217875244140625,-0.1521281749010086,0.08705667406320572,-0.12144950032234192
1733902778036902100,10.227902099609375,-0.13056248426437378,0.1304418444633484,-0.16065698862075806
1733902778046929200,10.23792919921875,-0.11441546678543091,0.16190895438194275,-0.21841321885585785
1733902778056956400,10.247956298828125,-0.11515588313341141,0.17652280628681183,-0.26449987292289734
1733902778066982100,10.257982177734375,-0.1307191252708435,0.1681186705827713,-0.28564774990081787
1733902778077009200,10.268009033203125,-0.14174878597259521,0.12412000447511673,-0.25505509972572327
1733902778087036200,10.2780361328125,-0.13616973161697388,0.053026385605335236,-0.20582284033298492
1733902778097062100,10.288062255859375,-0.10810152441263199,-0.01877230778336525,-0.1575554460287094
1733902778107089400,10.29808935546875,-0.05853184312582016,-0.06969834119081497,-0.13487064838409424
1733902778117116200,10.3081162109375,0.004795006476342678,-0.1255045384168625,-0.1276218742132187
1733902778127142100,10.31814208984375,0.06507805734872818,-0.1263841837644577,-0.14800357818603516
1733902778137169200,10.328169189453124,0.11682039499282837,-0.05645078420639038,-0.185323104262352
1733902778147196400,10.338196533203124,0.15198929607868195,0.05415961518883705,-0.21241037547588348
1733902778157222100,10.34822216796875,0.1766299456357956,0.1890866607427597,-0.21451032161712646
1733902778167249200,10.358249267578126,0.23538939654827118,0.26201197504997253,-0.18971683084964752
1733902778177276200,10.368276123046876,0.28288722038269043,0.2844151556491852,-0.14939355850219727
1733902778187302100,10.37830224609375,0.279483437538147,0.25824132561683655,-0.11217348277568817
1733902778197329400,10.388329345703125,0.22957268357276917,0.1749667525291443,-0.08373437821865082
1733902778207356200,10.398356201171875,0.16910108923912048,0.05541398376226425,-0.08894699066877365
1733902778217383200,10.408383056640625,0.10639391839504242,-0.07816359400749207,-0.13717879354953766
1733902778227409200,10.4184091796875,0.04185114800930023,-0.1540202647447586,-0.21512551605701447
1733902778237436400,10.4284365234375,-0.0147078987210989,-0.15732769668102264,-0.2685662508010864
1733902778247463200,10.438463134765625,-0.05899600312113762,-0.09059474617242813,-0.2905556857585907
1733902778257489200,10.4484892578125,-0.08914395421743393,-0.007370323874056339,-0.2763725817203522
1733902778267516200,10.45851611328125,-0.10918717086315155,0.05967608839273453,-0.21922433376312256
1733902778277543400,10.46854345703125,-0.1072533056139946,0.0970701053738594,-0.15836310386657715
1733902778287569400,10.4785693359375,-0.06202244758605957,0.07805007696151733,-0.12220962345600128
1733902778297596200,10.48859619140625,0.026956330984830856,0.016140302643179893,-0.13122576475143433
1733902778307623200,10.498623046875,0.11719701439142227,-0.06669358909130096,-0.18791115283966064
1733902778317649200,10.508649169921876,0.19377249479293823,-0.13501356542110443,-0.27399399876594543
1733902778327676400,10.518676513671876,0.24931110441684723,-0.16928258538246155,-0.3694576919078827
1733902778337703200,10.528703125,0.2720429301261902,-0.14943715929985046,-0.45181891322135925
1733902778347729200,10.538729248046875,0.26938003301620483,-0.10499167442321777,-0.5068294405937195
1733902778357755600,10.548755615234375,0.2550600469112396,-0.0751616507768631,-0.5168986916542053
1733902778367782700,10.55878271484375,0.2485230565071106,-0.07111737877130508,-0.48496580123901367
1733902778377809400,10.568809326171875,0.26638951897621155,-0.10276631265878677,-0.4445931017398834
1733902778387835400,10.57883544921875,0.27030089497566223,-0.11615055799484253,-0.4016411006450653
1733902778397862700,10.588862548828125,0.25187262892723083,-0.12863358855247498,-0.35883522033691406
1733902778407889700,10.5988896484375,0.23960210382938385,-0.15964637696743011,-0.29985925555229187
1733902778417915600,10.60891552734375,0.2515723407268524,-0.17576174437999725,-0.22897683084011078
1733902778427942400,10.6189423828125,0.2833864688873291,-0.13004031777381897,-0.1617429405450821
1733902778437969700,10.6289697265625,0.31400418281555176,-0.02498534508049488,-0.1198263168334961
1733902778447995600,10.63899560546875,0.3283863067626953,0.0835571140050888,-0.11135533452033997
1733902778458022700,10.649022705078124,0.3150630593299866,0.16010937094688416,-0.12312312424182892
1733902778468049400,10.65904931640625,0.2854934632778168,0.18741662800312042,-0.12782838940620422
1733902778478075400,10.669075439453126,0.24777361750602722,0.15498141944408417,-0.11220082640647888
1733902778488102700,10.6791025390625,0.20324794948101044,0.07646822929382324,-0.07665108889341354
1733902778498129700,10.689129638671876,0.1475205421447754,-0.006142103113234043,-0.026042979210615158
1733902778508155600,10.69915576171875,0.0848425105214119,-0.05927056819200516,0.029443182051181793
1733902778518182400,10.709182373046875,0.02031027339398861,-0.07193690538406372,0.08429940789937973
1733902778528209700,10.719209716796875,-0.03823666274547577,-0.05514513701200485,0.13430851697921753
1733902778538236700,10.729236572265625,-0.09068868309259415,-0.028809402137994766,0.1755656749010086
1733902778548262700,10.7392626953125,-0.12531723082065582,0.002292855177074671,0.18973714113235474
1733902778558289400,10.749289306640625,-0.13901342451572418,0.015431191772222519,0.16574108600616455
1733902778568316700,10.759316650390625,-0.12643691897392273,-0.0021792263723909855,0.10107820481061935
1733902778578342700,10.7693427734375,-0.09091581404209137,-0.026737874373793602,0.014379766769707203
1733902778588369700,10.77936962890625,-0.05869103968143463,-0.054615311324596405,-0.06077543646097183
1733902778598396400,10.789396484375,-0.03175858408212662,-0.043255168944597244,-0.10053341835737228
1733902778608422400,10.79942236328125,-0.014320203103125095,0.03386278823018074,-0.09228480607271194
1733902778618449700,10.80944970703125,-0.006612592376768589,0.13402754068374634,-0.05421622097492218
1733902778628476700,10.8194765625,-0.008405165746808052,0.20377306640148163,0.002920836443081498
1733902778638502700,10.829502685546874,-0.027800478041172028,0.2500210106372833,0.06520149856805801
1733902778648529400,10.839529296875,-0.05463821440935135,0.31332436203956604,0.1151522845029831
1733902778658556700,10.849556640625,-0.06796090304851532,0.3700520694255829,0.15649601817131042
1733902778668582700,10.859582763671876,-0.07348882406949997,0.37772995233535767,0.2097533792257309
1733902778678609700,10.869609619140626,-0.08772971481084824,0.3699325621128082,0.2615356147289276
1733902778688636400,10.879636474609375,-0.10320587456226349,0.36715275049209595,0.2984046936035156
1733902778698663700,10.88966357421875,-0.1018962413072586,0.36366140842437744,0.31977829337120056
1733902778708689700,10.899689697265625,-0.09339543431997299,0.3508284389972687,0.32768067717552185
1733902778718716700,10.909716552734375,-0.08967063575983047,0.2924443185329437,0.33819687366485596
1733902778728743700,10.91974365234375,-0.07604910433292389,0.21720999479293823,0.32825636863708496
1733902778738769400,10.929769287109375,-0.06565624475479126,0.15982265770435333,0.2930968105792999
1733902778748796700,10.939796630859375,-0.06615452468395233,0.16451594233512878,0.23063981533050537
1733902778758823700,10.94982373046875,-0.06865905225276947,0.20530591905117035,0.1603906750679016
1733902778768849700,10.959849609375,-0.06011270731687546,0.2215581238269806,0.10856664180755615
1733902778778876400,10.96987646484375,-0.03490353375673294,0.22639471292495728,0.0708615779876709
1733902778788903700,10.979903564453124,0.005968532525002956,0.19919051229953766,0.04254578799009323
1733902778798929700,10.9899296875,0.049414683133363724,0.15202894806861877,0.027722833678126335
1733902778808956700,10.999956787109374,0.08269248157739639,0.08808272331953049,0.022006357088685036
1733902778818983700,11.009983642578124,0.08899973332881927,0.007666356861591339,0.03321361169219017
1733902778829009400,11.020009521484376,0.07253101468086243,-0.07342582941055298,0.05831550434231758
1733902778839036700,11.03003662109375,0.04542043060064316,-0.08316197246313095,0.0764690488576889
1733902778849063700,11.040063720703126,0.029992472380399704,-0.03110889345407486,0.08029387891292572
1733902778859090700,11.050090576171876,0.02670862339437008,0.017358044162392616,0.08637521415948868
1733902778869116700,11.06011669921875,0.02106138877570629,0.05944770574569702,0.10224579274654388
1733902778879143700,11.070143798828125,0.0038290778174996376,0.062413424253463745,0.1392657458782196
1733902778889170700,11.080170654296875,-0.02380707673728466,0.027746258303523064,0.2014968991279602
1733902778899196700,11.09019677734375,-0.04458557814359665,0.005715909413993359,0.26681753993034363
1733902778909223700,11.1002236328125,-0.04848418012261391,0.005695136729627848,0.3075210452079773
1733902778919250400,11.11025048828125,-0.024189945310354233,0.03505939990282059,0.3160489499568939
1733902778929276700,11.120276611328125,0.014820038340985775,0.015790097415447235,0.3182665705680847
1733902778939303700,11.1303037109375,0.05623695254325867,-0.054865818470716476,0.33817631006240845
1733902778949330700,11.14033056640625,0.10301884263753891,-0.1150607094168663,0.3548836410045624
1733902778959356700,11.150356689453124,0.13658395409584045,-0.11918794363737106,0.3608003258705139
1733902778969383400,11.160383544921874,0.18330006301403046,-0.07930763810873032,0.3442288041114807
1733902778979410700,11.17041064453125,0.22671841084957123,-0.07043571770191193,0.32689169049263
1733902778989436700,11.180436767578126,0.24644124507904053,-0.07472900301218033,0.3053871989250183
1733902778999463700,11.190463623046876,0.23152485489845276,-0.09941248595714569,0.27444612979888916
1733902779009490400,11.200490478515626,0.18761572241783142,-0.17673151195049286,0.2468848079442978
1733902779019516700,11.2105166015625,0.1278272569179535,-0.2923163175582886,0.224822536110878
1733902779029543700,11.220543701171875,0.06624965369701385,-0.42540591955184937,0.19808200001716614
1733902779039570700,11.23057080078125,0.007121959235519171,-0.5414518117904663,0.17521511018276215
1733902779049597400,11.240597412109375,-0.047964196652173996,-0.6288501024246216,0.16209131479263306
1733902779059623400,11.25062353515625,-0.0911133885383606,-0.6734275817871094,0.15983715653419495
1733902779069650700,11.260650634765625,-0.11093423515558243,-0.6652727127075195,0.16060282289981842
1733902779079677700,11.270677734375,-0.10677863657474518,-0.5990846157073975,0.15652711689472198
1733902779089703700,11.28070361328125,-0.0987153872847557,-0.5334044098854065,0.16301004588603973
1733902779099730400,11.29073046875,-0.08192339539527893,-0.4877868890762329,0.18161894381046295
1733902779109757700,11.3007578125,-0.07404469698667526,-0.43776631355285645,0.2018967866897583
1733902779119783700,11.31078369140625,-0.06436911225318909,-0.4053140878677368,0.22254830598831177
1733902779129810700,11.320810791015624,-0.05301472172141075,-0.37980473041534424,0.2284216433763504
1733902779139837400,11.33083740234375,-0.027583684772253036,-0.33570119738578796,0.21057410538196564
1733902779149863400,11.340863525390626,0.005981996655464172,-0.33219248056411743,0.18355686962604523
1733902779159890700,11.350890625,0.03223662078380585,-0.3640557825565338,0.15145602822303772
1733902779169917700,11.360917724609376,0.06100328639149666,-0.3876897394657135,0.10079178214073181
1733902779179943700,11.370943603515625,0.08935220539569855,-0.40303295850753784,0.04350746423006058
1733902779189970400,11.380970458984375,0.12156526744365692,-0.37888821959495544,-0.00931474007666111
1733902779199997700,11.390997802734375,0.15488684177398682,-0.3365684747695923,-0.043477896600961685
1733902779210024700,11.401024658203125,0.17038856446743011,-0.27474531531333923,-0.06342869997024536
1733902779220050700,11.41105078125,0.17471353709697723,-0.21897022426128387,-0.07319141179323196
1733902779230077400,11.421077392578125,0.1685885339975357,-0.20328527688980103,-0.07081853598356247
1733902779240104700,11.431104736328125,0.13856101036071777,-0.22684499621391296,-0.0561399981379509
1733902779250130700,11.441130615234375,0.08776281774044037,-0.26328903436660767,-0.031805362552404404
1733902779260157700,11.45115771484375,0.025823453441262245,-0.26340892910957336,-0.014450615271925926
1733902779270184400,11.461184326171875,-0.037478554993867874,-0.21631598472595215,-0.004601979628205299
1733902779280210400,11.47121044921875,-0.062005359679460526,-0.1558564454317093,0.002236987231299281
1733902779290237700,11.48123779296875,-0.05433066189289093,-0.12621653079986572,0.023279953747987747
1733902779300264700,11.4912646484375,-0.02177070640027523,-0.1098799780011177,0.060467429459095
1733902779310290700,11.501290771484374,0.013509253971278667,-0.03414686396718025,0.08738506585359573
1733902779320317400,11.5113173828125,0.042219195514917374,0.07587151229381561,0.09528347104787827
1733902779330344700,11.5213447265625,0.07011207938194275,0.18023468554019928,0.08667746186256409
1733902779340371700,11.531371826171876,0.09626562148332596,0.22745399177074432,0.07514644414186478
1733902779350397700,11.541397705078126,0.1292496770620346,0.2272244244813919,0.06264450401067734
1733902779360424200,11.551424072265625,0.1472989171743393,0.21461373567581177,0.05301496759057045
1733902779370451200,11.561451171875,0.13999731838703156,0.21665345132350922,0.04747186601161957
1733902779380477200,11.571477294921875,0.088314488530159,0.21680134534835815,0.05735919997096062
1733902779390504400,11.58150439453125,0.02653154730796814,0.19929185509681702,0.08306029438972473
1733902779400531200,11.59153125,-0.02452928200364113,0.19122810661792755,0.09933032840490341
1733902779410557200,11.60155712890625,-0.04764125868678093,0.18554891645908356,0.09531960636377335
1733902779420584200,11.611584228515625,-0.019166698679327965,0.1926398128271103,0.06784512847661972
1733902779430611500,11.621611572265625,0.03473195433616638,0.2027699500322342,0.039702706038951874
1733902779440637400,11.631637451171875,0.0730404257774353,0.22132064402103424,0.021935006603598595
1733902779450664200,11.641664306640624,0.08499722182750702,0.238412007689476,0.0017253437545150518
1733902779460691200,11.651691162109374,0.06261908262968063,0.24965302646160126,-0.018891317769885063
1733902779470717200,11.66171728515625,0.012340201064944267,0.26973700523376465,-0.04096066951751709
1733902779480744400,11.671744384765624,-0.042737431824207306,0.24722658097743988,-0.036299776285886765
1733902779490771200,11.681771240234376,-0.06779325008392334,0.18707536160945892,-0.0028203774709254503
1733902779500797200,11.691797119140626,-0.06067401170730591,0.15447065234184265,0.0319824256002903
1733902779510824200,11.70182421875,-0.030438881367444992,0.18035738170146942,0.04762956127524376
1733902779520851500,11.7118515625,0.01139343436807394,0.23059529066085815,0.04679568111896515
1733902779530878200,11.721878173828125,0.04432794824242592,0.27744269371032715,0.03292087838053703
1733902779540904200,11.731904296875,0.049191176891326904,0.28713804483413696,0.025619084015488625
1733902779550931200,11.74193115234375,0.01514186430722475,0.2360714077949524,0.03987498581409454
1733902779560958200,11.751958251953125,-0.04468251392245293,0.13576219975948334,0.07558645308017731
1733902779570984400,11.761984375,-0.03917776048183441,0.03956403583288193,0.09201150387525558
1733902779581011200,11.77201123046875,-0.051495857536792755,0.051167115569114685,0.08996091783046722
1733902779591038200,11.7820380859375,-0.08503223955631256,0.10187343508005142,0.08498506993055344
1733902779601064200,11.792064208984375,-0.10231005400419235,0.16758963465690613,0.07643692940473557
1733902779611091500,11.802091552734375,-0.08023351430892944,0.22398260235786438,0.06711825728416443
1733902779621118200,11.8121181640625,-0.011663202196359634,0.22518712282180786,0.04636586457490921
1733902779631144200,11.822144287109374,0.040617842227220535,0.21793133020401,0.007885050028562546
1733902779641171200,11.832171142578124,0.056735146790742874,0.17875418066978455,-0.037363018840551376
1733902779651198200,11.8421982421875,0.05243733525276184,0.127761572599411,-0.07747581601142883
1733902779661225200,11.85222509765625,0.031018517911434174,0.07769788801670074,-0.1043984666466713
1733902779671251200,11.862251220703126,-0.003947723191231489,0.034124311059713364,-0.10298432409763336
1733902779681278200,11.8722783203125,-0.032600175589323044,0.0013676048256456852,-0.07929965108633041
1733902779691305200,11.88230517578125,-0.048022277653217316,-0.022227469831705093,-0.04875372722744942
1733902779701331500,11.89233154296875,-0.041595108807086945,-0.048006825149059296,-0.029413461685180664
1733902779711358200,11.902358154296875,-0.011759183369576931,-0.0984838455915451,-0.021160058677196503
1733902779721385200,11.91238525390625,0.027827631682157516,-0.11220057308673859,-0.04975544661283493
1733902779731411200,11.9224111328125,0.06552600860595703,-0.061643924564123154,-0.11032025516033173
1733902779741438200,11.932438232421875,0.11075080931186676,0.04727132245898247,-0.19393691420555115
1733902779751465200,11.94246533203125,0.15534090995788574,0.17437733709812164,-0.27114245295524597
1733902779761491200,11.9524912109375,0.19829455018043518,0.26212993264198303,-0.3147079348564148
1733902779771518200,11.962518310546875,0.215044766664505,0.2728039026260376,-0.3102002739906311
1733902779781545200,11.972545166015625,0.18981747329235077,0.22369584441184998,-0.2857480049133301
1733902779791572200,11.982572265625,0.1394171565771103,0.1516067236661911,-0.27304500341415405
1733902779801598200,11.99259814453125,0.062399763613939285,0.06137891113758087,-0.27176424860954285
1733902779811625200,12.002625244140624,-0.0488111786544323,-0.03702089190483093,-0.27858778834342957
1733902779821652200,12.01265234375,-0.16000312566757202,-0.09206872433423996,-0.2855709195137024
1733902779831678200,12.02267822265625,-0.2522701919078827,-0.10300419479608536,-0.2880426049232483
1733902779841705200,12.032705322265626,-0.28644755482673645,-0.0823446586728096,-0.25995656847953796
1733902779851732200,12.042732177734376,-0.24671240150928497,-0.09941045939922333,-0.20197263360023499
1733902779861758200,12.05275830078125,-0.20804603397846222,-0.0938129723072052,-0.130742609500885
1733902779871785200,12.06278515625,-0.19014079868793488,-0.08646398037672043,-0.06461817771196365
1733902779881812200,12.072812255859375,-0.18497182428836823,-0.07243302464485168,-0.034289851784706116
1733902779891838200,12.082838134765625,-0.18469005823135376,-0.02588682621717453,-0.052383098751306534
1733902779901865200,12.092865234375,-0.1798778921365738,0.06008795648813248,-0.10930909216403961
1733902779911892200,12.102892333984375,-0.16660656034946442,0.15932372212409973,-0.18002639710903168
1733902779921918200,12.112918212890625,-0.1461723893880844,0.23413622379302979,-0.2217804342508316
1733902779931945200,12.1229453125,-0.09781739115715027,0.24891862273216248,-0.21088357269763947
1733902779941972200,12.13297216796875,-0.013888806104660034,0.19928494095802307,-0.1664332151412964
1733902779951999200,12.142999267578125,0.0729406327009201,0.12730556726455688,-0.11700735241174698
1733902779962025200,12.153025146484374,0.10748501867055893,0.04282887652516365,-0.0778299868106842
1733902779972052200,12.16305224609375,0.08989963680505753,-0.04264261573553085,-0.0437505841255188
1733902779982079200,12.173079345703124,0.053204040974378586,-0.08466681092977524,-0.057752009481191635
1733902779992105200,12.183105224609376,0.020593633875250816,-0.06349574774503708,-0.10012636333703995
1733902780002132200,12.19313232421875,0.021760333329439163,-0.0004649388138204813,-0.14695075154304504
1733902780012159200,12.2031591796875,0.046199362725019455,0.11184082925319672,-0.17791318893432617
1733902780022185200,12.213185302734376,0.06100963428616524,0.2145514041185379,-0.17681747674942017
1733902780032212200,12.223212158203125,0.05971667170524597,0.2562359869480133,-0.14930810034275055
1733902780042239200,12.2332392578125,0.05172641947865486,0.23007561266422272,-0.11985613405704498
1733902780052265200,12.24326513671875,0.029834439978003502,0.14412875473499298,-0.09787626564502716
1733902780062292200,12.253292236328125,-0.008641984313726425,0.056630782783031464,-0.09738271683454514
1733902780072319200,12.2633193359375,-0.05043603852391243,0.02026825025677681,-0.10998638719320297
1733902780082346200,12.27334619140625,-0.08114098012447357,0.04512554034590721,-0.13427022099494934
1733902780092372200,12.283372314453125,-0.10382445901632309,0.10179494321346283,-0.16124804317951202
1733902780102399200,12.293399169921875,-0.1137690544128418,0.1641816645860672,-0.18992233276367188
