time,seconds_elapsed,z,y,x
1733902858637028900,0.02902880859375,1.40638246293962,1.4977368045568464,-1.262573711463809
1733902858647054800,0.039054931640625,1.5155571234077214,1.4860650714635848,-1.4728221435308455
1733902858657081900,0.049081787109375,1.576800988921523,1.4749205771148204,-1.6949609198778868
1733902858667109000,0.059109130859375,1.4899679241210222,1.4058201528817413,-1.5933318524837492
1733902858677135000,0.069135009765625,1.323840957853198,1.7184136916577815,-1.6957617148667572
1733902858687161900,0.079161865234375,0.41751930962800976,2.338115615797043,-2.177085095885396
1733902858697188900,0.08918896484375,-0.2520209966525435,2.7006080347299575,-2.6232600066334006
1733902858707214800,0.09921484375,0.14773264692127705,2.696446238875389,-2.4628385585308075
1733902858717242000,0.1092421875,0.7117120993167162,2.418280454879999,-1.8506980095565317
1733902858727268900,0.119268798828125,1.3026871106654405,2.0155805287212134,-1.0403361509174107
1733902858737294800,0.129294921875,1.6723615500569342,1.7216221323102712,-0.5963976209193468
1733902858747321900,0.13932177734375,1.9375451028823851,1.595758787369728,-0.37033085747361183
1733902858757349000,0.14934912109375,2.0922674625605344,1.7048171279817819,-0.2433843934714794
1733902858767375000,0.159375,2.0107333809509873,1.8469816193819044,-0.2343868480235338
1733902858777401900,0.16940185546875,1.8860346958756447,1.9685364534735679,-0.6033031625241041
1733902858787428900,0.179428955078125,1.6614093634098768,2.22127787335515,-0.88421795296669
1733902858797454800,0.189454833984375,1.1582286631092429,2.369821836659312,-1.1390163053780793
1733902858807482000,0.199482177734375,0.5673074277743697,2.3713807565391063,-1.5323790788710117
1733902858817508900,0.2095087890625,0.2622890004277229,2.5001924298912286,-1.4971435148388146
1733902858827534800,0.219534912109375,-0.08189180900603532,2.5126047522187234,-1.1602543237179517
1733902858837561900,0.229561767578125,-0.5828831825688481,2.5669360618650914,-1.166764728525281
1733902858847589000,0.239589111328125,-0.709174105271697,2.477429393941164,-1.1353326484292745
1733902858857615000,0.249614990234375,-0.512731203456223,2.39492880538702,-0.5006166950315237
1733902858867641900,0.259641845703125,-0.2475949969038367,2.000996707573533,0.022824995270371434
1733902858877668900,0.2696689453125,-0.0660898442402482,1.4311474863618612,1.2285980843648314
1733902858887694800,0.27969482421875,-0.3510124090194702,1.202386077004671,1.5482055935561656
1733902858897722000,0.28972216796875,-0.661903820052743,1.0925947459429501,1.538916956207156
1733902858907748900,0.299748779296875,-0.9742615042462944,1.1442384239405392,0.94029873662889
1733902858917774800,0.30977490234375,-1.237310090869665,1.2924533014208077,0.44738516332060096
1733902858927801900,0.3198017578125,-0.8927300529852509,1.1279805321007967,0.3977379198372364
1733902858937829000,0.3298291015625,-0.40951603591442104,0.9690946230024099,0.9359981168255209
1733902858947855000,0.339855224609375,-0.46371553587466474,0.7628530884891748,1.5143798963218926
1733902858957881900,0.3498818359375,-0.8411620705723762,0.4979243872076273,1.8094953538134693
1733902858967908900,0.359908935546875,-1.239950960767269,0.7052309206038713,1.384246618977189
1733902858977934800,0.369934814453125,-1.4014346312738954,0.8282131571501493,0.7788312866047025
1733902858987962000,0.379962158203125,-1.4179462056137622,0.6687187607645988,0.6430640950262546
1733902858997988900,0.38998876953125,-1.5313725321769713,0.5237970796108246,1.0001146151661873
1733902859008016000,0.400015869140625,-1.7783562653146683,0.30247663390934465,1.14677349537611
1733902859018041900,0.410041748046875,-1.94692156464532,-0.3215186035096645,0.9603761867567896
1733902859028068900,0.42006884765625,-2.0097570832647382,-0.6913771672964095,1.0953642106562853
1733902859038096000,0.430095947265625,-1.6833600600637495,-0.9235802415400743,1.4134864497259259
1733902859048121900,0.440121826171875,-1.0057904688455164,-1.022157520148158,1.3331424546837807
1733902859058148900,0.45014892578125,-0.5582452926576137,-0.9307014717221259,1.1072136384040117
1733902859068176000,0.46017578125,-0.4207541268307715,-0.8594295486688613,0.9609314825519919
1733902859078202000,0.4702021484375,-0.49404725351333617,-0.8449228844106197,1.3343629363894463
1733902859088228900,0.480228759765625,-0.8091910612940788,-0.8746703724205493,1.576870254765451
1733902859098256000,0.490255859375,-1.081163324411586,-0.9288596432477235,1.5919883289203047
1733902859108281900,0.50028173828125,-1.1238275040745735,-0.964547627222538,1.6626082178056238
1733902859118308900,0.510308837890625,-1.2296294732391833,-0.8243062128394841,1.5934662925183771
1733902859128336000,0.5203359375,-1.3966390675604343,-0.6157680918216705,1.3737290243551135
1733902859138361900,0.53036181640625,-1.642953084743023,-0.5500467886328697,1.3881561936363578
1733902859148388900,0.540388916015625,-1.6783680969953536,-0.6387146676450968,1.4943988923057914
1733902859158416000,0.550415771484375,-1.5690379537045955,-0.5963140342891216,1.5043313805162906
1733902859168442000,0.560442138671875,-1.5396809263169764,-0.633881840661168,1.2711828421160578
1733902859178468900,0.57046875,-1.7425521076142787,-0.5910685348510741,1.152077447003126
1733902859188496000,0.580495849609375,-1.8266157077014444,-0.6690642132014035,0.9046186436995863
1733902859198521900,0.59052197265625,-1.592530472972989,-0.6323106458216905,0.048776013606786725
1733902859208548900,0.600548828125,-1.2225164263635873,-0.4647866722375154,-0.5611906984597445
1733902859218576000,0.610575927734375,-1.0697352638810873,-0.39284956327378745,-0.5460808076113463
1733902859228601900,0.620601806640625,-1.0051666378587483,-0.5273270073026418,-0.2866226466953754
1733902859238628900,0.63062890625,-1.1830056692302227,-0.6028665246725082,0.21615707158893346
1733902859248656000,0.64065576171875,-1.3829723612576723,-0.4274965137630701,0.3662044251933694
1733902859258682000,0.65068212890625,-1.3124094632565975,-0.11436579937040806,0.1743668252162635
1733902859268708900,0.660708984375,-0.3803051389992237,1.1758961294859647,-1.1873998125359415
1733902859278736000,0.67073583984375,1.3027525771170854,1.3263058866620063,-2.008425834660977
1733902859288761900,0.680761962890625,1.1902180848270654,0.7466659237980842,-1.1709176104210317
1733902859298788900,0.690788818359375,-0.07399698236929253,0.33041444214880467,0.038717999320477245
1733902859308816000,0.70081591796875,-0.21398760032905265,-0.5227069462865591,0.6061648355655371
1733902859318841900,0.710841796875,0.7856161244392394,-0.6353168419003487,0.5939052195817232
1733902859328868900,0.720868896484375,1.3806710985779762,-0.3249427327394485,0.5717590003557503
1733902859338896000,0.730895751953125,1.772130668798089,-0.010270049601793289,0.5413230916902423
1733902859348922000,0.740922119140625,1.823282179364562,0.36530455374419685,0.5368525221474468
1733902859358948900,0.750948974609375,1.6575006655335425,1.1108300753355025,0.43848128750547766
1733902859368976000,0.760975830078125,2.133602950903028,2.3644886589378116,0.49597968288064
1733902859379001900,0.771001953125,2.610532042485475,2.4473867223769425,0.5581089529268444
1733902859389028900,0.78102880859375,2.1719144152492285,1.773348227894306,0.06749985716864466
1733902859399056000,0.791055908203125,-0.09803659586012363,1.1691402254849672,0.6863865194022655
1733902859409081900,0.801081787109375,-1.132614621642232,1.188788344284892,2.78224382314831
1733902859419108900,0.81110888671875,0.2511345692068338,1.3374345989197491,4.135770601952076
1733902859429136000,0.821135986328125,-0.18053250823915004,2.4528116700351235,3.7230437872976063
1733902859439162000,0.831162109375,-2.8099592208087443,2.3809219073444603,2.447433337997645
1733902859449188900,0.84118896484375,-4.471691240301728,1.9963865834295749,1.1870203116990625
1733902859459216100,0.851216064453125,-5.535096132117509,1.8346651586443186,0.9501391626417637
1733902859469242000,0.8612421875,-5.952145486146211,1.228725217875838,1.416523917725682
1733902859479269000,0.87126904296875,-6.571450519922375,0.9100134884804487,1.6600146941810845
1733902859489296000,0.8812958984375,-6.1937289676755665,0.29570319425165653,1.7234920178353785
1733902859499321900,0.89132177734375,-5.219817884302139,-0.15268939254581929,1.2473700048521161
1733902859509349000,0.90134912109375,-4.55758965460062,-0.6694955903559923,0.8259089718610048
1733902859519376100,0.911376220703125,-4.02375048892498,-1.3060329139620066,1.054140512125194
1733902859529403000,0.92140283203125,-3.606005553847551,-1.2654863840401172,1.5581354514181613
1733902859539428900,0.931428955078125,-3.1949785288482904,-0.9470610703706741,1.6735209492251275
1733902859549456100,0.9414560546875,-2.689702609834075,-0.6796008047848939,1.6793071314111352
1733902859559483100,0.951483154296875,-2.4056726099804044,-0.8167705566376448,1.5557456336721778
1733902859569509000,0.961509033203125,-2.1567428573414684,-0.8203630281716585,0.9695955582618713
1733902859579536000,0.971535888671875,-1.9221750997930764,-0.7282219200909137,0.42141923967599865
1733902859589563100,0.981563232421875,-1.7871470361441373,-0.6254787539750337,-0.07331365801393985
1733902859599589000,0.991589111328125,-1.743823442724347,-0.6040910980314016,-0.7312094114691019
1733902859609616100,1.0016162109375,-1.7623843508094548,-0.7152998946756124,-1.3034157172009349
1733902859619643000,1.011642822265625,-1.5899954015374183,-0.89540804002285,-1.6731611760020255
1733902859629668900,1.0216689453125,-1.390984987321496,-0.7999334036052227,-1.9390014391705392
1733902859639696100,1.031696044921875,2.026967015132308,2.2192186027377843,2.1464064645051955
1733902859649723100,1.04172314453125,9.75797277059257,9.239563813760876,11.35775599117279
1733902859659749000,1.0517490234375,3.407438791745901,3.8815368976861238,3.969306658814847
1733902859669776000,1.06177587890625,-1.5502233631193636,0.25473347048163414,0.464436835886538
1733902859679803100,1.07180322265625,-3.015312282049656,-1.371560740405321,-1.0649453992560505
1733902859689829000,1.0818291015625,-3.29841259983778,-1.6131851384669542,-1.2878949074640869
1733902859699856100,1.091856201171875,-3.445288922190666,-1.193183948895335,-1.3737714021921157
1733902859709883000,1.1018828125,-3.0935511215060947,-0.819233731880784,-1.355361300754547
1733902859719908900,1.111908935546875,-2.3541414524465796,-0.5070213013768196,-0.992345442469418
1733902859729936100,1.12193603515625,-1.6468781492322682,-0.09972937125265598,-0.6146297354415059
1733902859739963100,1.131963134765625,-0.854126181563735,-0.26975977469980716,-0.6495651474833488
1733902859749989000,1.141989013671875,-0.3715916711896658,0.09272241510003805,-0.9596320903912186
1733902859760016000,1.152015869140625,-0.34936873346567154,-0.20436872637867926,-1.1613362737357615
1733902859770043100,1.162043212890625,-0.1849216831088066,-1.183892388936877,-1.3658461621508002
1733902859780069000,1.172069091796875,-0.22666472933888435,-1.9273390584275125,-1.770349338339269
1733902859790096100,1.18209619140625,-0.5271259317725897,-2.269856318563223,-2.451638242341578
1733902859800123000,1.192122802734375,-0.8984358634114264,-2.351186986555159,-2.807098862941563
1733902859810148900,1.20214892578125,-0.7559469623625278,-2.063151842713356,-2.7324416813641785
1733902859820176100,1.212176025390625,0.05030395382642746,-1.5740549050837753,-1.4407126025646924
1733902859830203100,1.222203125,2.142273894745111,0.5371699175335467,3.8293171733662486
1733902859840229000,1.23222900390625,3.0145220084547995,3.006811580207944,8.136304465940594
1733902859850256000,1.242255859375,1.1143313614547252,2.5810586952418086,4.84325193183124
1733902859860283100,1.252283203125,-0.0022831425011157988,1.0146269054476171,0.36553193275928497
1733902859870309000,1.26230908203125,0.27984569990634917,0.4137923980593681,-1.8175474351048468
1733902859880336100,1.272336181640625,-1.381685828578472,0.5593534365626052,-3.3408681782513856
1733902859890363000,1.28236279296875,-0.47845747019350526,0.06884892912346403,-1.6453554697096346
1733902859900388900,1.292388916015625,0.519732314389944,0.2062240353891626,0.08427285892367363
1733902859910416100,1.302416015625,0.29963293491601944,1.1886253357429057,1.6699322770833969
1733902859920443100,1.312443115234375,3.337499578601122,1.3474318229295312,3.8942864891439672
1733902859930469000,1.32246923828125,3.438162431311607,0.7928258366223424,3.428601114501059
1733902859940496000,1.332495849609375,2.144590939515829,0.0706662122450769,0.8444979369968175
1733902859950523100,1.342523193359375,0.8133002501785754,-0.5676587254300713,-1.28384241720289
1733902859960550100,1.352550048828125,0.3726666069447994,-0.9529761396333575,-1.449560802669823
1733902859970576100,1.362576171875,1.8361814084261654,-2.2310928726658226,-0.9791367090672254
1733902859980603000,1.372602783203125,3.4780776775926348,-3.8228131982997056,-1.065977664913237
1733902859990628900,1.38262890625,4.89847580640316,-5.1865656030416485,-0.7856725308015942
1733902860000656100,1.39265625,5.120781171488762,-5.046825708439946,0.43886867938786744
1733902860010683100,1.40268310546875,4.77025625372529,-3.7506022408306596,1.6225260905250907
1733902860020710000,1.4127099609375,4.918695587611198,-2.54150000731349,1.787856061196327
1733902860030736000,1.42273583984375,4.755480709397792,-1.888739132528752,1.3475970964938402
1733902860040763100,1.43276318359375,3.8904643005073067,-0.8428319034807383,0.8770952614799141
1733902860050790100,1.4427900390625,2.8280811529546974,0.16426212224401532,0.10477803294435142
1733902860060816100,1.452816162109375,2.3470061937391757,0.36869200422540305,-0.5386288841702044
1733902860070843000,1.4628427734375,1.6755144611299038,0.6710023416571319,-0.8894950165867805
1733902860080870000,1.472869873046875,0.4277607176572084,1.013154640937969,-1.0942159904692321
1733902860090896100,1.482896240234375,-1.1271885049402712,1.1452025927975773,-1.5231266818791627
1733902860100923100,1.492923095703125,-2.3000071266770363,1.493504281553626,-1.9104870000869034
1733902860110950000,1.502949951171875,-3.1620377977550027,1.9873225486166775,-2.016433784549683
1733902860120976000,1.512975830078125,-3.703215635755658,2.718783742889762,-1.9945424168676136
1733902860131003100,1.523003173828125,-3.8555817876964804,3.756718385623395,-1.6815398588992654
1733902860141030100,1.533030029296875,-3.7851615130364893,4.758238775934279,-1.4319129177764058
1733902860151057000,1.543056884765625,-3.3450866727292534,5.725193172037601,-1.043815079074353
1733902860161083000,1.553082763671875,-2.758769131797552,6.574073269641399,-0.5445244450148194
1733902860171110000,1.56310986328125,-2.198276936995983,6.87360975844562,-0.2336434823103249
1733902860181137200,1.57313720703125,-1.797345189553499,6.78267159641385,-0.10423486597836017
1733902860191163100,1.5831630859375,-1.4730091905355454,6.347014572548866,-0.31096710661798715
1733902860201190000,1.59318994140625,-1.0076052631825207,5.65033403814733,-0.8074595613263547
1733902860211217000,1.603216796875,-0.4584522085189819,5.157832260510325,-1.0185624182656408
1733902860221243000,1.613242919921875,0.09509352814555168,4.919796826851368,-0.9850826118595898
1733902860231270100,1.623270263671875,0.5510363841921091,4.748625436675549,-0.9171822110660374
1733902860241297000,1.633296875,0.7731114476531743,4.309981505954266,-1.1534979813255368
1733902860251324000,1.643323974609375,0.9797463653981685,3.601348960213363,-1.5574927696004508
1733902860261350000,1.653349853515625,1.3179934008687735,2.7862916372343896,-1.9678795970000325
1733902860271377200,1.663377197265625,1.5386089131712912,1.889062811525166,-2.2966063783228394
1733902860281404000,1.67340380859375,2.0341326689779757,1.6828231767080724,-2.357271421035379
1733902860291430000,1.683429931640625,2.184364146977663,1.590796927178651,-2.1870035555705427
1733902860301457000,1.693456787109375,2.259124496668577,1.28177686297521,-1.939115713199973
1733902860311484200,1.703484130859375,2.2140929302871224,0.689598028794676,-1.930538438990712
1733902860321511000,1.713510986328125,2.3325340162724255,0.06330320919640361,-1.9555533455207943
1733902860331537000,1.723536865234375,2.4521914923101664,-0.321436624314636,-1.8139324594780801
1733902860341564000,1.73356396484375,2.75217104870677,-0.3787701845169067,-1.5802832780793308
1733902860351591200,1.743591064453125,2.5787632777810097,-0.6838868115410208,-1.351692549113929
1733902860361617200,1.7536171875,2.4680022249042985,-0.8743420172490179,-1.3898876936040818
1733902860371644000,1.763643798828125,2.5794384005635975,-1.0277755061604081,-1.1474015641465782
1733902860381671000,1.7736708984375,2.0677029301464556,-1.2356421576574443,-0.8621865922920405
1733902860391698200,1.7836982421875,1.7015993349790572,-1.25690209556818,-0.7073869295939803
1733902860401724200,1.79372412109375,1.32864865039587,-1.1816159684374927,-0.2853755692437291
1733902860411751000,1.8037509765625,0.7492892580389976,-1.009097985958308,-0.045165860285609954
1733902860421778000,1.81377783203125,0.9184148216009139,-0.753649279879406,0.10468611687719821
1733902860431804000,1.823803955078125,0.8096043182700872,-0.6658330492604524,0.1371336576260626
1733902860441831400,1.83383154296875,0.4312725251704454,-0.7877649730361997,0.04108443619087338
1733902860451858200,1.843858154296875,0.2729471725642681,-1.2348276264041662,0.6982755485080182
1733902860461885400,1.853885498046875,-0.4750403552263975,-1.4030845904380083,1.1147152462057768
1733902860471911400,1.863911376953125,-1.11385614515841,-0.480957908707112,0.6893325097262859
1733902860481938400,1.8739384765625,-1.1148457407176493,0.5265463783189654,0.1369032098710537
1733902860491965200,1.883965087890625,-1.0076818355500698,0.9761173612460493,-0.5088179755352438
1733902860501992400,1.893992431640625,-0.7406845113009214,1.2557955956310034,-1.0613216558009386
1733902860512018400,1.904018310546875,-0.8955681990206241,1.422657452044636,-0.6004055413864553
1733902860522045400,1.91404541015625,-0.8465957860589027,0.9650196286484598,-0.5835163659058511
1733902860532072200,1.924072265625,-0.25657237634658814,0.6363537837326526,-0.23306465950906274
1733902860542098200,1.93409814453125,-0.04681143553555012,0.6693064975246786,0.2691287833198905
1733902860552125400,1.94412548828125,0.110011111292243,0.7098417754001916,0.4157797724843025
1733902860562152400,1.95415234375,0.47524727597534655,0.6004045184731484,-0.03544263091161847
1733902860572179200,1.96417919921875,0.598351677596569,0.8539775668732822,-0.40608927633613345
1733902860582205200,1.974205078125,0.6472247218370437,1.3059662784665822,-0.34009529368579383
1733902860592232400,1.984232421875,1.1863351059138774,0.9585014789260923,-0.48295288191661234
1733902860602259500,1.994259521484375,1.5365829603016377,-0.3887606865249574,-0.9732511581599712
1733902860612286200,2.0042861328125,1.562119552618265,-1.1882082063093782,-1.2972715153574943
1733902860622312200,2.014312255859375,1.665662929201126,-1.564810983659327,-0.941136064235866
1733902860632339500,2.02433935546875,1.9624632710397243,-2.297493974812329,0.3805024151369929
1733902860642366500,2.034366455078125,1.6155214724600313,-2.8647561021402477,1.9239055768474935
1733902860652393200,2.044393310546875,1.8329063322782515,-3.689639530345797,2.411683833093941
1733902860662419200,2.054419189453125,1.63777363627851,-3.586990472254157,2.9726378001883624
1733902860672446500,2.064446533203125,1.0773100830495357,-3.6252795786380765,2.9339725539684296
1733902860682473500,2.074473388671875,0.7895961339861154,-4.201243775598704,2.437068741980195
1733902860692499500,2.08449951171875,0.48839083518683907,-4.605102808664739,1.4744462376013396
1733902860702526200,2.094526123046875,-0.09042086015939713,-4.815891631218791,0.17144874581247568
1733902860712553500,2.104553466796875,-0.7854980510175228,-4.496876827223598,-0.8903402352392673
1733902860722580500,2.11458056640625,-1.6928262459367514,-4.249576429352164,-1.4549892574593424
1733902860732606500,2.1246064453125,-2.104631269571185,-3.68762000721693,-1.3843290365636347
1733902860742633200,2.13463330078125,-2.0497282975167033,-2.75442730320096,-2.0658368440136314
1733902860752660500,2.144660400390625,-1.844296910342574,-2.403785481059551,-2.330854392622411
1733902860762687500,2.1546875,-1.3463660933941601,-1.9603578231930732,-2.1046951285876334
1733902860772713500,2.16471337890625,0.9392997887194157,-0.8067962751120329,-2.305695985968411
1733902860782740500,2.174740478515625,1.499956818693876,1.314152507531643,-1.919960346353054
1733902860792767200,2.184767333984375,0.4846200844764709,1.12105511675179,-1.3002344568163156
1733902860802794500,2.19479443359375,-0.656661243224144,0.2913981905341148,-1.003085739931464
1733902860812820500,2.204820556640625,-0.7634872947394847,-0.17211948468089103,-1.0203828386258333
1733902860822847500,2.214847412109375,-0.28006781822443005,-1.0631845270633697,-1.0880956809580324
1733902860832874200,2.224874267578125,-0.5866594862371682,-1.5851538067251443,-0.8367347556494176
1733902860842901500,2.234901611328125,-0.7766402063012122,-1.7569991506397724,-0.7497768223602325
1733902860852927500,2.244927490234375,-0.7711988920301198,-1.208917524600029,-0.8898759056631476
1733902860862954500,2.25495458984375,-0.35290099924504753,-1.355415661290288,-1.2755211635813117
1733902860872981200,2.264981201171875,0.19432605579197407,-1.6351614079535006,-1.4265603047020732
1733902860883007200,2.27500732421875,1.1801923653751611,-1.4688538244217633,-0.6825880039021373
1733902860893034500,2.285034423828125,2.830932450732589,-0.5898427924484014,0.5886189497418701
1733902860903061500,2.2950615234375,4.111007332095504,1.1771668800741433,1.0061782991193233
1733902860913088300,2.305088134765625,3.49791225887537,2.8530513435602187,1.2815364783480763
1733902860923114200,2.3151142578125,-2.7799399301201104,3.040449061393738,-0.5929477727264165
1733902860933141500,2.3251416015625,-3.6982828555285927,1.6656781267702578,-1.418426536476612
1733902860943168500,2.33516845703125,3.742145378130674,1.3781617461055515,-0.2599137957289815
1733902860953195300,2.3451953125,4.472599587318301,0.100189974501729,2.3820154016695914
1733902860963221200,2.35522119140625,3.8362259298413988,-0.11983750877976417,1.3338117322474716
1733902860973248500,2.36524853515625,2.3621190071970224,0.6403951680779457,1.1444821695685385
1733902860987662300,2.379662353515625,0.25063304942548276,0.41418578129112715,0.6157094935022294
1733902860997689600,2.389689697265625,-0.6980073990911245,-0.2585334472864866,-0.08380787176042795
1733902861007715600,2.399715576171875,-2.0316987198293206,-2.1864725174337623,-1.105696804100275
1733902861017742300,2.409742431640625,-1.5190414583921432,-2.2944529996812344,-0.9582710311710834
1733902861027769300,2.419769287109375,1.0412176099270583,-1.1904840422868728,0.06316431218236684
1733902861037796600,2.429796630859375,1.0046984358251094,-1.1329103897184132,0.08630772575214504
1733902861047822600,2.439822509765625,0.9636462944686413,-0.8617682207494973,0.9766095286771654
1733902861057849300,2.449849365234375,-0.04608487482666969,-0.4979354931235313,0.9839464474365115
1733902861067876400,2.45987646484375,-1.4263456390380858,-0.806128166592121,1.1475048783905804
1733902861077902300,2.46990234375,-1.0758207212746143,-0.5938344924330711,1.2147582134522497
1733902861087929600,2.4799296875,0.6376537604153156,0.7076122627824545,0.31455081032365556
1733902861097956400,2.489956298828125,1.4909879148185252,2.10559163903594,-0.6324982773482799
1733902861107983400,2.4999833984375,0.2674579274982214,4.644606259274482,-0.4408711052514612
1733902861118009300,2.51000927734375,1.0230834028214215,4.789731354045868,0.39513811260238285
1733902861128036600,2.52003662109375,1.6540052246332169,3.8127848484992977,0.7991736712791025
1733902861138063400,2.5300634765625,1.0950099903911352,3.822593125808239,0.42958354917019603
1733902861148090400,2.54009033203125,-0.3826087397664785,3.7654660479635,1.6697531211242078
1733902861158116400,2.550116455078125,-0.6538157906651496,3.0695009683549404,1.3740956657104193
1733902861168143600,2.5601435546875,-1.1693652664124965,1.4329787934422493,-0.5504406102560461
1733902861178170400,2.57017041015625,-0.9977665907353163,-0.09846855753660201,-0.901846987029165
1733902861188197400,2.580197265625,0.22691841183900832,-0.1857014353096485,0.30624475427120923
1733902861198223400,2.590223388671875,0.2805412809550762,1.8120862470895052,0.8993408494271338
1733902861208250400,2.60025048828125,-1.4819687420606613,2.9756571480095384,0.3112109983764589
1733902861218277400,2.61027734375,-2.533146020466089,2.5425743585467337,0.86663568065539
1733902861228304400,2.620304443359375,-2.2907331023752686,1.6958353646248578,1.724915182506293
1733902861238330400,2.630330322265625,-1.5875976927459239,-0.7068488771945237,1.5664169575512408
1733902861248357400,2.640357421875,-0.7185574351668358,-2.9319109452635046,-0.19287461487464605
1733902861258384400,2.65038427734375,-0.7609171519905328,-3.135534406232834,-1.132373798623681
1733902861268411400,2.660411376953125,-0.679307959318161,-3.1607308068096636,-3.2187697388023135
1733902861278437400,2.670437255859375,-0.437657257771492,-2.154456499969959,-3.961100848266482
1733902861288464400,2.68046435546875,-0.10896306354403495,-0.3959393459826708,-3.4926159060329196
1733902861298491400,2.690491455078125,0.25105799683928487,1.3199042029261587,-2.3997955346405506
1733902861308518400,2.700518310546875,0.8288847728013992,2.822919240146875,-0.5530567110385746
1733902861318544400,2.71054443359375,1.641835478889942,3.7545746515929697,1.260076341690123
1733902861328571400,2.7205712890625,2.3297902705222366,3.7470758202701804,2.621670399354398
1733902861338598400,2.730598388671875,2.7941438120394944,2.7800515738010403,2.7310496424838897
1733902861348625400,2.74062548828125,2.8184944094419477,1.1816986782848835,1.709387066245824
1733902861358651400,2.7506513671875,1.450679869827628,1.2435901940524576,0.8644552678763866
1733902861368678400,2.760678466796875,-2.2119617634773254,1.7296762594282626,2.5926485952705143
1733902861378705400,2.770705322265625,-0.5115466698467731,-3.4293910958349705,1.1398504911798983
1733902861388732400,2.780732421875,-2.4363047718703745,-1.952620506939292,0.7183217267148196
1733902861398758400,2.79075830078125,-1.8378893813878296,-3.261938433921337,-2.4575191170737147
1733902861408785400,2.800785400390625,-0.7691682629853487,-4.6331695039808745,-3.3274662603646514
1733902861418812400,2.8108125,-0.8811322619110346,-4.093104595658183,-3.2739605878874656
1733902861428839400,2.82083935546875,-0.052854807353019714,-3.2396114513009784,-3.8363516020476816
1733902861438865200,2.830865234375,0.9404641563236713,-1.1939449963957072,-1.7985590953879058
1733902861448892200,2.84089208984375,1.3529209218651055,0.007823825493454933,0.07024663512613624
1733902861458919200,2.850919189453125,1.1449947952657937,0.3787520643383264,0.4016266343714669
1733902861468946200,2.8609462890625,1.7628432004928587,0.009196282890439033,-0.8477611035112291
1733902861478972200,2.87097216796875,1.6642442945748566,0.0027799861073493958,-1.1531738639377056
1733902861488999200,2.880999267578125,2.5489398019254206,-1.9773136341691016,-0.7249386606365442
1733902861499026200,2.891026123046875,4.429051537492871,-8.988103665861487,-0.5206672571524977
1733902861509053200,2.90105322265625,3.488780857914686,-9.742520934438705,-1.3622260719574988
1733902861519079200,2.9110791015625,-0.8877028724730014,-5.166017320531607,-2.044771844153106
1733902861529106200,2.921106201171875,-5.1398511981397865,-0.842175047007203,-1.4708879605978726
1733902861539133200,2.93113330078125,-3.90800814050436,2.346210659447312,-1.1215319404833017
1733902861549160200,2.94116015625,-2.0237159043818713,4.625265598988533,-0.921896526236832
1733902861559186200,2.951186279296875,-0.6384931338489055,5.375210106065869,0.29238194087445735
1733902861569213200,2.961213134765625,-0.09786883807778358,4.209639555761218,1.4419038581758736
1733902861579240200,2.971240234375,0.6724591163367033,2.028923409897089,2.061034996689856
1733902861589267200,2.98126708984375,2.531688222873211,0.6658619100287556,1.4922811694994569
1733902861599293200,2.991293212890625,2.9320518150389194,0.11701426805257796,1.4627359260633588
1733902861609320200,3.0013203125,2.1930875516593455,0.15266425810456274,0.33437720829993484
1733902861619347200,3.01134716796875,1.7760089715361593,0.6355839684039354,-2.378028231729567
1733902861629374200,3.021374267578125,-1.446444424214959,-0.3126747873187065,-3.7619045560896396
1733902861639401200,3.031401123046875,-0.9990414329767227,-1.3501333369731903,-1.0284814624726772
1733902861649427200,3.04142724609375,-2.223325453534722,-1.496090790915489,1.766483602821827
1733902861659454200,3.0514541015625,-4.153671000301838,-0.4757794831559062,1.607181806398928
1733902861669481000,3.06148095703125,-3.0764182003974914,0.8506263567492365,2.057623726941645
1733902861679508200,3.07150830078125,-1.6625415823101997,1.153672314979136,3.1923221691206094
1733902861689534200,3.0815341796875,-0.5193295788079499,0.99508334300071,2.310177223035693
1733902861699561200,3.091561279296875,1.1036036312133073,1.5373457613676786,1.3230959847047925
1733902861709588000,3.101587890625,1.7736755601525305,1.6213330813482403,0.48319794271886346
1733902861719615200,3.111615234375,-1.1320131486177443,0.43782530781477685,0.661407560968399
1733902861729641200,3.12164111328125,-0.9436614910602569,0.2574775084927678,1.9245092418290675
1733902861739668200,3.131668212890625,0.2759048533260822,0.22389643366932868,-0.06698737760186195
1733902861749695000,3.141695068359375,2.3335768033236266,-1.7348074848368762,-0.600006897457689
1733902861759722200,3.15172216796875,1.4356319382995366,-1.9412670460149644,-1.331535896269977
1733902861769748200,3.161748291015625,0.25622692390978336,-0.43516251834630965,-1.2834135242663323
1733902861779775200,3.171775146484375,-0.13401859434545038,-0.008264847259223461,-0.8058217309914529
1733902861789802000,3.181802001953125,0.5764420436054468,-0.7763394697889685,-0.23072321094945072
1733902861799829200,3.191829345703125,0.6513748272538185,-0.4544540787935257,0.12145298115238547
1733902861809856300,3.201856201171875,0.4517956732392311,0.3478016302794218,0.4417581172190606
1733902861819882200,3.21188232421875,0.4116565550744533,-0.024563947892189023,1.0191634528987108
1733902861829909000,3.221908935546875,-0.024676760616898535,-0.3807107971906662,1.1179868152223527
1733902861839936300,3.231936279296875,-0.5573410372942685,-0.8392518530368804,0.6822365601159632
1733902861849963300,3.24196337890625,-1.1254933914601801,-1.050265131996572,0.46251112852096554
1733902861859989200,3.2519892578125,-0.744829356020689,-0.873536984476447,1.1085406492240726
1733902861870016000,3.26201611328125,-0.08609013747870922,-0.24173633400350808,1.7440959760554133
1733902861880043000,3.27204296875,0.22096447187066076,-0.13586948290914297,1.448211580017954
1733902861890070300,3.2820703125,0.32876667494177814,-0.15304039794057606,0.8495262865528463
1733902861900097000,3.292096923828125,0.44680736343264577,-0.3023138445630669,0.39462563303560017
1733902861910123000,3.302123046875,0.6123603292047977,-0.4253025108501315,0.28691519990116354
1733902861920150000,3.31214990234375,0.5471007983088493,-0.11152677655220031,0.4772182837873697
1733902861930177300,3.32217724609375,0.007818564796447753,0.510922108207643,0.3273458483584225
1733902861940204000,3.3322041015625,-1.3701876984864472,0.8914525803953409,-0.8440333882249891
1733902861950230000,3.34222998046875,-1.3775287088990211,0.8680246507957577,-1.5602625265747307
1733902861960257000,3.352257080078125,-0.6991127299845218,0.5778264837011694,-1.8795166922837494
1733902861970284300,3.3622841796875,-0.11861644255220889,-0.00495703788548708,-1.3455129836961626
1733902861980311000,3.37231103515625,0.38925066199898717,-0.5207859150961042,-0.5334491434447467
1733902861990338000,3.382338134765625,0.5765355671077966,-0.6070309508755802,-0.17003858675360678
1733902862000364000,3.392364013671875,0.4896142395019531,-0.5243099975690245,-0.04066007329896092
1733902862010391300,3.402391357421875,0.3054793228566646,-0.39513445934057234,0.02891498270854354
1733902862020418000,3.41241796875,0.12535130376517772,-0.20852847640663383,0.07332154905945062
1733902862030445000,3.422445068359375,-0.010409165811538695,-0.06187807176411152,0.06816036690399051
1733902862040472000,3.43247216796875,-0.12007950084209441,0.025348668529093264,0.08617898480594158
1733902862050498300,3.442498291015625,-0.1998924577474594,0.06091068803668022,0.10144260491132735
1733902862060525000,3.452525146484375,-0.23753683648705481,0.07551116805821657,0.059980421449244016
1733902862070552000,3.462552001953125,-0.21112696846723555,0.062442427648603915,0.048368601849675175
1733902862080579000,3.4725791015625,-0.16543956852555275,0.06900602394789457,0.05123524332717061
1733902862090606300,3.4826064453125,-0.0837771843612194,0.06991787809580564,0.045416912437230346
1733902862100632000,3.492632080078125,-0.02972936783134937,0.06781681416332722,0.07400836227983236
1733902862110659000,3.5026591796875,-0.03187982386350632,0.09109101450592279,0.11946268411800265
1733902862120686000,3.51268603515625,-0.0946305868089199,0.12687924398481845,0.18437807775139808
1733902862130713300,3.52271337890625,-0.14005144476890563,0.14816606990247963,0.2522154963113367
1733902862140740000,3.532739990234375,-0.19574527494013308,0.1494613704100251,0.28115079115554686
1733902862150766000,3.54276611328125,-0.22183190235495567,0.1562783569484949,0.33566388710960743
1733902862160793000,3.55279296875,-0.20787118154168127,0.13763766162544488,0.37056320492476225
1733902862170820400,3.5628203125,-0.18154665371775627,0.09685235451161861,0.35655601462125774
1733902862180847000,3.57284716796875,-0.1342892279803753,0.058279170489311215,0.3105991500884294
1733902862190874000,3.5828740234375,-0.09423895714282989,0.039025019443035124,0.2516420803375542
1733902862200900000,3.592900146484375,-0.05115384865403175,0.021942367216944692,0.14996508214846252
1733902862210927400,3.60292724609375,0.01187514671087265,0.059754795999825,0.04526084509268403
1733902862220954000,3.6129541015625,0.03710311146974563,0.11466887397021054,-0.028361732739955185
1733902862230981000,3.622981201171875,0.05478022245764732,0.15098755706399677,-0.13018982983753086
1733902862241008000,3.633008056640625,0.06389233419597148,0.1750268965601921,-0.24880992565155027
1733902862251034400,3.643034423828125,0.03274842339158058,0.19948300016373394,-0.37855347302630543
1733902862261061000,3.65306103515625,-0.019380407774448393,0.19065964223891496,-0.5746219885714352
1733902862271088000,3.663088134765625,-0.10350713622570037,0.18973200599998236,-0.7301295072779059
1733902862281115100,3.673115234375,-0.14142331764400004,0.18440642706304788,-0.7723227814935147
1733902862291142100,3.68314208984375,-0.15850012465119362,0.20750293275117873,-0.7682081857815385
1733902862301169200,3.693169189453125,-0.13428688989281654,0.24037264443486928,-0.7261234865069389
1733902862311195100,3.703195068359375,-0.1164893673956394,0.27532734569907186,-0.6525415329456329
1733902862321222100,3.71322216796875,-0.043270401927828786,0.3117959586575627,-0.5556788031704724
1733902862331249200,3.723249267578125,-0.0038169279396533962,0.35100276440829037,-0.4680703700833022
1733902862341276200,3.733276123046875,-0.005485153412818908,0.37996553178131576,-0.4061757855758071
1733902862351303200,3.74330322265625,-0.01980360162258148,0.37980975669771433,-0.33523645547777414
1733902862361329200,3.7533291015625,-0.019662731847167013,0.3355380687728524,-0.29309286562278863
1733902862371356200,3.763356201171875,0.025541268491744994,0.23158611138910054,-0.2765162632226944
1733902862381383200,3.773383056640625,0.04997428348064422,0.10175766220986843,-0.2911798716083169
1733902862391410200,3.78341015625,0.014422493106126784,-0.06993745957911014,-0.3123762427635491
1733902862401437000,3.79343701171875,-0.046647184884548186,-0.21792992648035286,-0.3296732683926821
1733902862411464200,3.803464111328125,-0.10793547406196594,-0.3095964027866721,-0.30667569303438064
1733902862421490200,3.813490234375,-0.15562895312905312,-0.35400077718049283,-0.2407987608924508
1733902862431517200,3.82351708984375,-0.14895955836772917,-0.33705870246887204,-0.13277151689380406
1733902862441544000,3.8335439453125,-0.11214110905826091,-0.2951870614230633,-0.019501988327503203
1733902862451571000,3.843571044921875,-0.08731471083760262,-0.2115478242278099,0.06925824514329433
1733902862461598000,3.853597900390625,-0.02241173829436302,-0.1592857220709324,0.1402814541324973
1733902862471625000,3.863625,0.05823416230380535,-0.12088117261379956,0.2243098367758095
1733902862481651000,3.87365087890625,0.14510639007091522,-0.09186638279259204,0.2763800696223974
1733902862491678000,3.883677978515625,0.18173370072245595,-0.10245879621654748,0.2649292858034372
1733902862501705000,3.893705078125,0.18548516221046446,-0.15511223577857017,0.19725582563355565
1733902862511732000,3.90373193359375,0.11851824287474155,-0.22160949177592992,0.12083645668923854
1733902862521758700,3.9137587890625,0.07470423558950423,-0.2589890820994973,0.07163987958282232
1733902862531786000,3.923785888671875,0.03231587719321251,-0.2875286556243896,0.05570771256610751
1733902862541812000,3.93381201171875,-0.001432078629732132,-0.2955404049053788,0.07375263395309448
1733902862551839000,3.9438388671875,-0.029102175843715668,-0.3064107584878802,0.08055413066148757
1733902862561865700,3.95386572265625,-0.05473229166269302,-0.29786797107011076,0.07352057876288891
1733902862571893000,3.96389306640625,-0.08332534894049168,-0.28460370808839797,0.07493453721404075
1733902862581920000,3.973919921875,-0.12797989870309828,-0.25940204681456086,0.09299933234527706
1733902862591946800,3.98394677734375,-0.17328151419758794,-0.2378635842233896,0.13330854637995362
1733902862601974000,3.99397412109375,-0.21640520113110542,-0.22887714469134807,0.1598610377408564
1733902862612000000,4.004,-0.22232290074229238,-0.19391776725202797,0.17762158922851085
1733902862622027000,4.014027099609375,-0.1407154616355896,-0.1703849159732461,0.1822685382515192
1733902862632053800,4.0240537109375,-0.06596797142624855,-0.13117635665684937,0.17054332140535114
1733902862642080800,4.034080810546875,-0.04253215078115463,-0.1056520392999053,0.14655264335647225
1733902862652108000,4.04410791015625,-0.043047699087858195,-0.08941723607480526,0.1415505972854793
1733902862662134800,4.054134765625,-0.0972094973862171,-0.10998743815571069,0.12703019676283
1733902862672161800,4.064161865234375,-0.1493815831720829,-0.12293430575132369,0.09276903072074055
1733902862682187800,4.074187744140625,-0.2040308727264404,-0.16483049671649933,0.07523366629108787
1733902862692215000,4.084215087890625,-0.1919534814417362,-0.2084612563893199,0.10218027153611182
1733902862702241800,4.09424169921875,-0.16798925300836562,-0.2498085813000798,0.11948738016784191
1733902862712268800,4.104268798828125,-0.13360825997889042,-0.2923538838237524,0.11546703861057758
1733902862722296000,4.114296142578125,-0.07708616228997707,-0.3071709292054176,0.1051835450053215
1733902862732322800,4.12432275390625,0.05350713378190994,-0.30001462770998477,0.09561667523682117
1733902862742349800,4.134349853515625,0.14932546907067298,-0.1886380732834339,0.051754591026157135
1733902862752375800,4.144375732421875,0.2093868468016386,-0.013780395810306071,0.02043649269863963
1733902862762403000,4.154403076171875,0.2474760466992855,0.15017010320127008,0.023955022213608027
1733902862772429800,4.164429931640625,0.24923779567480087,0.28945290168523785,0.05000730896741151
1733902862782456800,4.174456787109375,0.2140133375585079,0.36038229491114615,0.08388912030309438
1733902862792483800,4.18448388671875,0.14812836824059486,0.36319676780998705,0.12057166827321052
1733902862802511000,4.194510986328125,0.07599895157516003,0.35416122843921183,0.16282923989668488
1733902862812537900,4.204537841796875,-0.022376082459092138,0.3476201362326741,0.20928528612330555
1733902862822563800,4.214563720703125,-0.15073825847804545,0.3099243195667863,0.23775120989009738
1733902862832590800,4.2245908203125,-0.30242110432982444,0.2699661109268665,0.2352184765420854
1733902862842618000,4.2346181640625,-0.365084188991785,0.2201344507873058,0.21419249351769684
1733902862852644900,4.244644775390625,-0.3658393912732601,0.1731947126969695,0.17778145596534012
1733902862862672000,4.254671875,-0.2744540699958801,0.1525309871137142,0.14836992191150783
1733902862872699000,4.264698974609375,-0.18349661874175072,0.17651508929133414,0.08338204756379126
1733902862882726000,4.274725830078125,-0.16698913605511187,0.25230390524715185,0.019132716623693702
1733902862892753000,4.2847529296875,-0.23970073652267454,0.34932723241150376,-0.022240034989267587
1733902862902779000,4.29477880859375,-0.39943887853622434,0.4472071764051914,-0.0701329821512103
1733902862912806000,4.304805908203125,-0.585692102509737,0.4885962946310639,-0.12813435861244796
1733902862922833000,4.3148330078125,-0.7053940022110938,0.47470308609604833,-0.18218480549082158
1733902862932860000,4.32485986328125,-0.6644663640171289,0.3678364103093743,-0.2529841425962746
1733902862942887000,4.334886962890625,-0.5496463911384344,0.21752543733268975,-0.3219973269373178
1733902862952914000,4.344913818359375,-0.423600675368309,0.08298077328652143,-0.38225042784810065
1733902862962941000,4.35494091796875,-0.2980506341606378,0.004498188202083111,-0.4208018384300172
1733902862972968000,4.364968017578125,-0.2380085456520319,-0.003786532801389694,-0.42831791314855217
1733902862982994000,4.374993896484375,-0.20611527778506278,-0.0011667056918144225,-0.4227364597544074
1733902862993021000,4.38502099609375,-0.17861469191908835,0.009885141937434673,-0.3872055660374462
1733902863003048000,4.3950478515625,-0.15526011981666088,-0.0018970657929778098,-0.3894606514878571
1733902863013075000,4.405074951171875,-0.10482815569639205,0.0288850259616971,-0.3539873331770301
1733902863023101700,4.415101806640625,-0.02447276247739792,0.08268062129616736,-0.30894466087967154
1733902863033129000,4.42512890625,0.07404431037604808,0.15630378365069628,-0.27362667926102874
1733902863043156000,4.435156005859375,0.18630115476846693,0.21264877120703457,-0.23081103536337613
1733902863053182700,4.4451826171875,0.2654401579350233,0.19623948819786308,-0.2721811566278338
1733902863063210000,4.4552099609375,0.35785482226014137,0.10509937385320663,-0.36575799660012126
1733902863073236000,4.465236083984375,0.5222124407678842,-0.04642155943512916,-0.4539465676628053
1733902863083263000,4.475262939453125,0.6564028845489025,-0.2078235430076718,-0.4843981122888624
1733902863093289700,4.485289794921875,0.6926940951138735,-0.34735447103381156,-0.3808494750089943
1733902863103316700,4.495316650390625,0.7193745967686176,-0.45157267813831564,-0.2638518658302724
1733902863113344000,4.505343994140625,0.6962707845568656,-0.47184009788036346,-0.26139599711075423
1733902863123371000,4.51537109375,0.5908271273106336,-0.4709352579951286,-0.2913128503382206
1733902863133397800,4.525397705078125,0.3486182073593139,-0.4473354789599776,-0.22468962987363336
1733902863143425000,4.535425048828125,-0.0012122983992099762,-0.27379268347769975,0.031127982582896944
1733902863153452000,4.5454521484375,-0.38688159478008743,-0.35382132896035906,0.10980565184801816
1733902863163478000,4.55547802734375,-0.6958353157490491,-0.2180482921630144,0.18545593611598013
1733902863173504800,4.5655048828125,-0.8733698112159967,-0.10651362456530332,0.025366350316256284
1733902863183532000,4.575531982421875,-0.8932324495494365,0.12673691290467975,-0.04481339358612895
1733902863193559000,4.58555908203125,-0.6076122578948736,0.4620636770144105,-0.005336100330948829
1733902863203585800,4.595585693359375,-0.22675182310044764,0.4244757046371698,-0.20745193321630356
1733902863213612800,4.60561279296875,0.06391863768100738,0.2436538580626249,-0.3167677557207644
1733902863223640000,4.61564013671875,0.06942717196941375,0.11782441539168358,-0.10382643130794167
1733902863233666800,4.625666748046875,-0.24055998370051382,-0.08609685948044062,0.18611878393888473
1733902863243692800,4.63569287109375,-0.5510954209029674,-0.3489066689118743,0.3832115279652178
1733902863253719800,4.6457197265625,-0.7196072364807129,-0.670797905126214,0.435366078094393
1733902863263747000,4.6557470703125,-0.6202455294966698,-0.9720283383667468,0.4019757035374641
1733902863273773800,4.66577392578125,-0.30043256086111064,-1.289826752309501,0.12793591343089938
1733902863283800800,4.67580078125,0.19468319866657255,-1.4968413170218466,-0.11533917444720863
1733902863293828000,4.685828125,0.7675789479672909,-1.592795261389017,-0.37663901770710945
1733902863303854800,4.695854736328125,1.361353819167614,-1.540983533348143,-0.5756875719763338
1733902863313881900,4.7058818359375,1.7687819428920746,-1.3227338733941316,-0.6913377120688557
1733902863323908900,4.715908935546875,1.89527481790781,-0.8934136513352393,-0.6542043515913188
1733902863333934800,4.725934814453125,1.6812673255681991,-0.5377396802455187,-0.5515267980575561
1733902863343961900,4.7359619140625,1.1201339102536438,-0.11096651232093573,-0.31844226480424404
1733902863353988900,4.74598876953125,0.6499842496782541,0.5500859515994787,0.013977671948075294
1733902863364015900,4.756015869140625,0.4740834928929806,0.7747180060669779,0.07643179003447294
1733902863374043000,4.76604296875,0.5269616811215877,0.7565177479878068,0.012169745743274687
1733902863384070000,4.77606982421875,0.6552583906888961,0.6788406340673565,-0.003633680327236652
1733902863394097000,4.786096923828125,0.7371972537070512,0.6608019962906837,-0.02537935592830181
1733902863404124000,4.7961240234375,0.6056850892245769,0.3805076758340001,-0.2482119597584009
1733902863414151000,4.80615087890625,0.36220834129452706,0.41148470563888545,-0.17735884663909673
1733902863424177000,4.816177001953125,0.2869388730376959,1.2887681831672786,0.21846856340169904
1733902863434204000,4.826203857421875,0.19690555089116096,1.550888841290772,0.07843494655042886
1733902863444231700,4.836231689453125,-0.0717605833530426,1.052618709385395,-0.2155485843017697
1733902863454258700,4.8462587890625,-0.2909422634601593,0.7378305831745267,-0.24000965634137392
1733902863464285700,4.85628564453125,-0.42351591969430447,0.401755923306942,-0.25408172857463357
1733902863474312400,4.8663125,-0.43664486585855483,0.024202421103417873,-0.30106501354575155
1733902863484339700,4.876339599609375,-0.48098844997584816,-0.5630275584980845,-0.4934270757883787
1733902863494366700,4.88636669921875,-0.5392442395895719,-0.6245631004348396,-0.447851319527626
1733902863504392700,4.896392822265625,-0.48710780963897704,-0.5827078260019422,-0.4323486299693584
1733902863514419500,4.90641943359375,-0.43620998157262797,-0.7213795068502425,-0.5351669071480631
1733902863524446700,4.91644677734375,-0.3925461964130401,-0.9002768151029944,-0.6210512929216027
1733902863534473700,4.9264736328125,-0.31437106984257696,-1.09708065918535,-0.618818419303
1733902863544500500,4.93650048828125,-0.21240531783998012,-1.22361182038486,-0.48303106171935795
1733902863554527700,4.94652783203125,-0.0488905798971653,-1.1757719185844062,-0.16856792967915535
1733902863564554800,4.9565546875,0.1613806485235691,-0.9398650213867425,0.2345285945817828
1733902863574581500,4.96658154296875,0.25852234137058255,-0.5391609452202916,0.6637137920841574
1733902863584607500,4.976607421875,0.19158172551989555,-0.05492576840817928,0.9634846741661429
1733902863594634500,4.986634521484375,0.06385667836070061,0.39538843410164115,1.064759813556075
1733902863604661800,4.996661865234375,-0.06526771420240401,0.757839644241333,1.0314987644672393
1733902863614688500,5.0066884765625,-0.1712754350721836,0.9853910932868718,0.9583201310098171
1733902863624715500,5.016715576171875,-0.22201894935965535,1.1256196481883525,0.9346484557822347
1733902863634742800,5.02674267578125,-0.2088455795317888,1.235295828437805,0.9599594226494431
1733902863644769800,5.036769775390625,-0.15862170520424843,1.319592068237066,1.0013511712238192
1733902863654796500,5.046796630859375,-0.1265285308510065,1.3745938244909048,1.0346993140742182
1733902863664822500,5.056822509765625,-0.06449965243935585,1.333060037097335,1.0618734444648026
1733902863674849800,5.066849853515625,0.09275894771814346,1.2027625091016292,0.9905667423591017
1733902863684876800,5.076876708984375,0.3763742292910814,1.0063508792072533,0.7969763073652982
1733902863694903600,5.086903564453125,0.7004156292766333,0.664013067291677,0.5033417360812426
1733902863704930600,5.0969306640625,1.0357996765315531,0.21861118674278257,0.1880778090521693
1733902863714957800,5.106957763671875,1.2908791839718818,-0.3307672011092305,-0.1156988015398383
1733902863724984600,5.116984619140625,1.3955658853709696,-0.8787629024311899,-0.35730595620572564
1733902863735011600,5.127011474609375,1.3586328697711227,-1.280554481573403,-0.5168158424213528
1733902863745037600,5.13703759765625,1.204691431337595,-1.5175582340970635,-0.6126020290061831
1733902863755064800,5.14706494140625,1.0187526801407336,-1.524530411197245,-0.6514604597106576
1733902863765091600,5.157091552734375,0.9043354428440332,-1.3350900816202163,-0.6738757051363587
1733902863775118600,5.16711865234375,0.7891752782255411,-1.01487116253227,-0.7297101128220558
1733902863785145900,5.177145751953125,0.522617514437437,-0.6427496222496032,-0.7306523621082306
1733902863795172600,5.187172607421875,0.16689268994331358,-0.2582794725254178,-0.5358537203684449
1733902863805199600,5.19719970703125,-0.07195289105474949,0.14415683426111936,-0.21739099729806183
1733902863815226600,5.2072265625,-0.15336568437218664,0.36951574169844387,-0.013091829024255274
1733902863825252600,5.217252685546875,-0.14746668946146965,0.5030930220171809,0.12712094378620387
1733902863835279600,5.227279541015625,-0.11681728417575359,0.6103682786047459,0.2531710434705019
1733902863845306600,5.237306640625,-0.017307693153619765,0.4736193825125694,0.2386047579795122
1733902863855333600,5.247333740234375,0.057286652320623396,0.21180998229533432,0.09969429993927478
1733902863865360600,5.257360595703125,-0.0014952069938182829,-0.03334492798000574,0.05302724131047725
1733902863875387600,5.2673876953125,-0.1459264742821455,-0.17935411210954189,0.014696633872389793
1733902863885414700,5.27741455078125,-0.3947662105500698,-0.28833821844160556,-0.1807192629829049
1733902863895440600,5.287440673828125,-0.7014788745939731,-0.323367738507688,-0.40700171500593424
1733902863905467600,5.297467529296875,-0.9746610249578952,-0.34082828413546085,-0.5342170590773224
1733902863915494700,5.30749462890625,-1.1240344248235226,-0.2677861365392804,-0.5302569232746959
1733902863925521700,5.317521728515625,-1.039476319217682,-0.19853461339771747,-0.4889465693734586
1733902863935548400,5.32754833984375,-0.7618254990071058,-0.19285978263169526,-0.4787739887967705
1733902863945575700,5.33757568359375,-0.3410521560192108,-0.12554478051066398,-0.4264839757196605
1733902863955602700,5.347602783203125,0.200184134170413,-0.02504033323228359,-0.3114078361228108
1733902863965629700,5.357629638671875,0.7012345444440842,0.0445268317297101,-0.21488383678272366
1733902863975655700,5.36765576171875,1.0390279909282922,0.15909867506623268,-0.1662656440861523
1733902863985682700,5.3776826171875,1.1195043801784514,0.14345131634026764,-0.14768135512545705
1733902863995709700,5.387709716796875,0.9636451254248618,0.10693857197910546,-0.0359444429539144
1733902864005736700,5.39773681640625,0.7427239081740379,0.1236748949855566,0.21633578915670512
1733902864015763700,5.407763671875,0.5880524019002914,0.1129106321260333,0.36092034731060263
1733902864025790700,5.417790771484375,0.5121066418170929,0.03197159380018711,0.4080785504572093
1733902864035817700,5.427817626953125,0.5489911421000957,-0.048827743794023985,0.5057834301449358
1733902864045843700,5.43784375,0.6993477077841759,-0.180590375906229,0.6181615628294647
1733902864055870500,5.447870361328125,0.9500894782811403,-0.18698972155451773,0.7385160812206566
1733902864065897700,5.457897705078125,1.165710835558176,-0.1098044828042388,0.7593905269451439
1733902864075924700,5.4679248046875,1.2459423101365565,-0.03290829012840986,0.700926063016802
1733902864085951500,5.477951416015625,1.1332827301621435,0.0165828860104084,0.6082710140645504
1733902864095978800,5.487978759765625,0.8019090875923633,0.03075081983357668,0.5018775087475776
1733902864106005800,5.498005859375,0.47894554597139355,0.04522913478016853,0.39017040719240903
1733902864116031700,5.50803173828125,0.29265140546560287,0.05603226834535598,0.3087327716946602
1733902864126058500,5.51805859375,0.262643220692873,0.05418605595678091,0.18393895568177102
1733902864136085800,5.528085693359375,0.3582236555725336,0.07239800447374582,0.09265782543122768
1733902864146112800,5.53811279296875,0.4295417558550834,0.07885054161399603,0.01829246640726924
1733902864156139500,5.548139404296875,0.487370844489336,0.10538783540576696,-0.049607788255810734
1733902864166166500,5.55816650390625,0.4942635266125202,0.16084639551639557,-0.10523819780200719
1733902864176193800,5.56819384765625,0.4604828375637531,0.2313528871551156,-0.08133709773272275
1733902864186219800,5.5782197265625,0.5428033933758736,0.2972963086619973,-0.08396919980198145
1733902864196246500,5.58824658203125,0.5591583158493042,0.35881928337812424,-0.09667465985715389
1733902864206273500,5.5982734375,0.4478314457833767,0.37358898248672484,-0.22346067260056732
1733902864216300800,5.60830078125,0.2519336106300354,0.38959494539201256,-0.3801822432719171
1733902864226327600,5.61832763671875,0.08398585867583751,0.4332020319283008,-0.5227750430867075
1733902864236354600,5.6283544921875,-0.020341946282982824,0.48816637878119945,-0.5871294418364763
1733902864246381800,5.6383818359375,-0.17195348046422004,0.468232136516273,-0.5974618891499937
1733902864256407800,5.64840771484375,-0.23965339024960994,0.4451867764934897,-0.5063872412569821
1733902864266434600,5.6584345703125,-0.21852643106877803,0.31982319776862855,-0.39352030214220285
1733902864276461600,5.668461669921875,-0.15737784262299537,0.10873071609288454,-0.2988226414464414
1733902864286488600,5.678488525390625,-0.15092705904841422,-0.05167319635301828,-0.18221417771577833
1733902864296515600,5.688515625,-0.2270329781293869,-0.22381021669059992,-0.16284472972676156
1733902864306542600,5.69854248046875,-0.32015783655047414,-0.3413268813073635,-0.21301438964903355
1733902864316569600,5.708569580078125,-0.48505730684995646,-0.1949447722122073,-0.13559534214287997
1733902864326595600,5.718595703125,-0.7262567574977874,-0.10818711073547602,-0.06069558398127556
1733902864336622600,5.72862255859375,-0.8778174382746219,-0.0525873885884881,0.008580196818709373
1733902864346649600,5.738649658203125,-0.9138204795479774,0.023483166918158528,0.036899113330245016
1733902864356676600,5.748676513671875,-0.9442541962563991,0.03331599414646625,0.018352672161906957
1733902864366703900,5.758703857421875,-0.9573463175415993,-0.0031131635844707487,0.003986147026717663
1733902864376730600,5.768730712890625,-0.9422820194005965,-0.0365641822874546,0.007262684479355811
1733902864386756600,5.778756591796875,-0.9504360997617244,-0.09412380633056164,0.05133315074369311
1733902864396783600,5.78878369140625,-1.0548948376238345,-0.10366846426725387,0.10820099313035607
1733902864406811000,5.798810791015625,-1.1930857492178677,-0.11124123760908841,0.16345891610234975
1733902864416837600,5.808837646484375,-1.3203490240842104,-0.17079583486169575,0.16638269459456204
1733902864426864600,5.81886474609375,-1.3592682450652123,-0.29473113434910775,0.15648250121846793
1733902864436891600,5.8288916015625,-1.3271966980218886,-0.29294541997611523,0.1961740217462182
1733902864446918100,5.838918212890625,-1.2148925073564052,-0.3502838024839759,0.19631430699974298
1733902864456944000,5.848944091796875,-1.1741139222443102,-0.405258378469944,0.1754164803996682
1733902864466971100,5.85897119140625,-1.2605197015434504,-0.41466625828444953,0.1738806491345167
1733902864476998100,5.868998046875,-1.3523235404938458,-0.3881584828481078,0.19767244361042977
1733902864487025200,5.879025146484375,-1.3756629150271416,-0.35060791987180706,0.20617256093025207
1733902864497052200,5.88905224609375,-1.3359890762865543,-0.31118279519528147,0.1932166332453489
1733902864507079200,5.8990791015625,-1.3613000431537627,-0.2688631181210279,0.19100524080619216
1733902864517105200,5.909105224609375,-1.446692846018076,-0.2174535411402583,0.18107523681372403
1733902864527132200,5.919132080078125,-1.555827174475789,-0.2087245835006237,0.15064020493105054
1733902864537159200,5.9291591796875,-1.623276908892393,-0.10623919153809547,0.1606827293872833
1733902864547186200,5.939186279296875,-1.72822664514184,-0.05241437010914087,0.1160923309020698
1733902864557213200,5.949213134765625,-1.78721659424901,-0.07970043644160031,0.05164236282333731
1733902864567240200,5.959240234375,-1.7352882540911434,-0.14123714742213486,-0.011559797151386737
1733902864577267200,5.96926708984375,-1.640356638509035,-0.1402004978507757,-0.045524172203987835
1733902864587293200,5.979293212890625,-1.6321873605787753,-0.13104980766773222,-0.012423574373871087
1733902864597320200,5.9893203125,-1.6921546302855013,-0.13497136502563953,0.07562967987135052
1733902864607347200,5.99934716796875,-1.7019594004631042,-0.17252397382855414,0.15730360834300516
1733902864617374200,6.009374267578125,-1.5904840618371963,-0.14946049362719058,0.2386696399092674
1733902864627401200,6.019401123046875,-1.4592168120265006,-0.048508594842255115,0.32811405625194306
1733902864637428200,6.02942822265625,-1.2079390349566936,0.07137479890584945,0.3774589557878673
1733902864647454200,6.0394541015625,-0.9992004229307174,0.13380378255099057,0.3977770828038454
1733902864657481200,6.049481201171875,-0.8757739497482776,0.16114742428958415,0.3483966735631227
1733902864667508200,6.05950830078125,-0.8831576302587986,0.1706874060511589,0.23508374424651263
1733902864677535200,6.06953515625,-0.9361182360738516,0.09416063120961189,0.09761530170813203
1733902864687562200,6.079562255859375,-0.9497978018581866,0.05621142430454492,-0.03958469915241003
1733902864697589200,6.08958935546875,-0.8297825984239577,0.165828860104084,-0.11078574892655015
1733902864707615200,6.099615234375,-0.6581202098608017,0.24000118077397345,-0.174627960370481
1733902864717642200,6.109642333984375,-0.6270774213433266,0.26672259896099565,-0.19405922154933214
1733902864727669200,6.119669189453125,-0.5718272432863712,0.28045798658579585,-0.10464783069342375
1733902864737696300,6.1296962890625,-0.5212064785957337,0.27139965086132284,0.07292158995643258
1733902864747723000,6.139722900390625,-0.5252718283385038,0.26364538347274064,0.24502806902527807
1733902864757750300,6.149750244140625,-0.46941316299438474,0.2549474054932594,0.34403453283086416
1733902864767777300,6.15977734375,-0.346184258210659,0.21211714854836464,0.34250659261122346
1733902864777803300,6.16980322265625,-0.18240940802693367,0.23362609278410673,0.29457331343889237
1733902864787830000,6.179830078125,-0.05126724590063095,0.23192454956322908,0.24476474191397427
1733902864797857300,6.189857177734375,0.09913082083761691,0.2580292971566319,0.2011380738943815
1733902864807884300,6.19988427734375,0.023283844953775404,0.22835925829708575,0.15841113119348882
1733902864817911000,6.2099111328125,-0.1964461166858673,0.16021744996309278,0.10471680427640676
1733902864827938000,6.21993798828125,-0.230949274790287,0.06944003145098686,0.04190086714029312
1733902864837964300,6.22996435546875,-0.07597498617768288,0.11325842265039682,-0.036764088773727416
1733902864847991300,6.2399912109375,-0.032894553864002224,0.1928194506213069,-0.12650003540888427
1733902864858018000,6.25001806640625,-0.11030512580275535,0.24966040500104425,-0.2407331483103335
1733902864868045000,6.260045166015625,-0.2176642612814903,0.2933686138242483,-0.3222923643611371
1733902864878072300,6.270072265625,-0.32830607169270515,0.34083792874664065,-0.34030674447938797
1733902864888099000,6.28009912109375,-0.2735924847304821,0.32421295716017484,-0.3613393033750355
1733902864898125000,6.290125,-0.2723334245800972,0.2501595866948366,-0.3271365895219147
1733902864908152000,6.300152099609375,-0.4556184463977813,0.10590484501719474,-0.32148996193706986
1733902864918179300,6.310179443359375,-0.6170902803361416,-0.05884001924246549,-0.2922318648792803
1733902864928206000,6.3202060546875,-0.7185884148269891,-0.16579349652975797,-0.273455560477823
1733902864938233000,6.330233154296875,-0.834523070949316,-0.22045476878285405,-0.3021704905696213
1733902864948260400,6.34026025390625,-0.8221282842785119,-0.24983371574133634,-0.3522951423063874
1733902864958286300,6.350286376953125,-0.5579974553763866,-0.2630745978474617,-0.37826749569177626
1733902864968313300,6.360313232421875,-0.04944587569236755,-0.24825258402973413,-0.36734672709628935
1733902864978340000,6.370340087890625,0.3041068654596805,-0.22765900107324122,-0.3559016423657536
1733902864988367000,6.3803671875,0.1630973893135786,-0.1723568005681038,-0.32863793399557467
1733902864998394400,6.390394287109375,-0.17779986840486525,-0.1316895668759942,-0.27480741347819565
1733902865008421000,6.400421142578125,-0.5491431177914142,-0.1637935548841953,-0.2778402053028345
1733902865018447000,6.410447021484375,-0.6923229237139225,-0.23793051197975873,-0.26313538812398907
1733902865028474000,6.42047412109375,-0.7787117518782615,-0.3132648621663451,-0.24362083257585762
1733902865038501400,6.43050146484375,-0.647048780748248,-0.3426689435660839,-0.21212007115781306
1733902865048528100,6.440528076171875,0.030662849289178847,-0.24518998158872127,-0.17372677374705672
1733902865058555100,6.45055517578125,0.6685574327230454,-0.08086071239262818,-0.22508330536633728
1733902865068582400,6.46058251953125,0.556726704788208,0.06579524520784616,-0.34065175852477547
1733902865078608400,6.4706083984375,-0.2283434762060642,0.12237667186856269,-0.45049847303554413
1733902865088635100,6.48063525390625,-1.1004068809986114,0.08796060752570628,-0.5010976104162633
1733902865098662100,6.490662109375,-1.4329694410920142,-0.003570259702205658,-0.4202760609902441
1733902865108689400,6.500689453125,-0.8924047665536403,-0.06121522394120693,-0.1281290979154408
1733902865118716200,6.510716064453125,0.19039982225894928,-0.08919424097388982,0.12757073338031769
1733902865128743200,6.5207431640625,0.765441351416707,-0.14189181193858386,0.2032354845650494
1733902865138769200,6.53076904296875,0.49060091245174403,-0.14841244587898253,0.06886500804200768
1733902865148796200,6.540796142578125,0.04307400257289409,-0.16610533895790575,-0.16466814576163888
1733902865158823200,6.5508232421875,-0.2779886738628149,-0.1658341208010912,-0.3528364095762372
1733902865168850200,6.56085009765625,-0.6597504414111376,-0.24340748208612203,-0.4221066374182701
1733902865178877200,6.570877197265625,-0.9866501534372567,-0.29520839647203684,-0.3372812591783702
1733902865188904200,6.580904296875,-1.0203431642025709,-0.28439532603472467,-0.07682400422245264
1733902865198930200,6.59093017578125,-0.4337199183225631,-0.14277765486240387,0.24037965869754552
1733902865208957200,6.600957275390625,0.6291477978765964,0.15231383723169564,0.3878388955049217
1733902865218984200,6.610984130859375,1.3785761721253393,0.5150467869222164,0.38825361378565426
1733902865229011200,6.62101123046875,1.2829963217675686,0.728404290920496,0.23077874052897093
1733902865239038200,6.6310380859375,0.7019727955907583,0.6213853471815586,0.08612886205390095
1733902865249065200,6.641065185546875,0.08289572535157202,0.3488277584567666,0.009218933113664387
1733902865259091200,6.65109130859375,-0.31779286098480225,0.14631854233965277,-0.077443451295048
1733902865269118200,6.6611181640625,-0.3531032438188791,0.04103723604828119,-0.1967540135912597
1733902865279145200,6.671145263671875,-0.0711246235370636,-0.08683160349577665,-0.2753650473609566
1733902865289172200,6.681172119140625,0.3638870881617069,-0.21658494161218403,-0.29107933384329077
1733902865299199200,6.69119921875,0.889177036678791,-0.3697461894534528,-0.2582505386918783
1733902865309226200,6.701226318359375,1.3610130429059266,-0.493953291619569,-0.1967525522865355
1733902865319252200,6.711252197265625,1.5207541075289248,-0.5438689767807722,-0.17495456197634338
1733902865329279200,6.721279296875,1.4287304883480072,-0.5550694391004741,-0.17119126392006873
1733902865339306200,6.73130615234375,1.1504711808502674,-0.47240971446186303,-0.17994111821725964
1733902865349333200,6.741333251953125,0.7956132023185492,-0.28328385766148567,-0.09066285222172736
1733902865359360300,6.7513603515625,0.5028904851824045,-0.1309092301532626,-0.05914382449463009
1733902865369387300,6.76138720703125,0.3633388066291809,0.2004616359375417,-0.04598886710628867
1733902865379413200,6.771413330078125,0.49827743842899797,0.5093938757270574,-0.0019905892953276634
1733902865389440300,6.781440185546875,0.7698340334177016,0.7737810174778104,0.014414309799671171
1733902865399467300,6.79146728515625,1.1346166091144085,0.8424619011245668,0.03623714229017496
1733902865409494300,6.801494384765625,1.4682289705216884,0.775095461077243,0.04104585774615407
1733902865419521000,6.81152099609375,1.555515624308586,0.678496642935276,0.035061668770015236
1733902865429548300,6.82154833984375,1.3689905976563692,0.3624886195406318,-0.015184125128388404
1733902865439574300,6.83157421875,1.0017454312384129,0.2153013315424323,0.0717208358645439
1733902865449600800,6.841600830078125,0.6669149262130261,0.07030892324000597,0.15405015950500964
1733902865459627800,6.851627685546875,0.3780032917976379,-0.020872838289290666,0.1884476652778685
1733902865469654800,6.86165478515625,0.15272855551242828,-0.0745325322844088,0.14719284095615148
1733902865479681800,6.871681884765625,0.10767010112404822,-0.07911737585663794,0.055651306203752755
1733902865489707800,6.881707763671875,0.20648235753178595,0.0020700842723250386,-0.0011250585071742533
1733902865499734800,6.89173486328125,0.2894821277797222,-0.07479615165665746,-0.12951090766265988
1733902865509761800,6.90176171875,0.2164016939997673,-0.1961531250886619,-0.21314882968366144
1733902865519788800,6.911788818359375,-0.07335632811188697,-0.2726609029687941,-0.1847569940663874
1733902865529815600,6.921815673828125,-0.42430911589860915,-0.16629370113685726,-0.001202361527085304
1733902865539842800,6.9318427734375,-0.7147860999345779,0.011154138959944248,0.13740940582752226
1733902865549868800,6.941868896484375,-0.976921955627203,-0.1099267940096557,0.07951412008926272
1733902865559895800,6.951895751953125,-1.118076393201947,-0.2564440737918019,0.03031973493993282
1733902865569922600,6.961922607421875,-1.0585632970035075,-0.28307240686789154,-0.052107934508472675
1733902865579949800,6.97194970703125,-0.6717202806681394,-0.2297637182675302,-0.11598375596106052
1733902865589976800,6.981976806640625,-0.21411270627975462,-0.07949424634501337,-0.23111513287648558
1733902865600003800,6.99200390625,0.2374456510722637,0.012336626742780209,-0.38932752662748094
1733902865610029800,7.00202978515625,0.4568886124640703,0.004882657475024461,-0.49508244177997107
1733902865620056800,7.012056884765625,0.3324292891025543,-0.05293737106993794,-0.4343078012131154
1733902865630083800,7.022083740234375,-0.04325988053381443,0.035571371857821936,-0.20030454567968844
1733902865640110800,7.03211083984375,-0.40497196274399755,0.34726123979240653,0.2040840642184019
1733902865650137600,7.0421376953125,-0.6740612908363341,0.27616028939187526,0.2597613816462457
1733902865660164900,7.052164794921875,-0.8420341772317886,0.3033753363147378,0.22516177743002772
1733902865670190800,7.06219091796875,-0.8751239614069461,0.3150254420980811,0.17035744344443082
1733902865680217900,7.0722177734375,-0.8001344791352748,0.4473350405685603,0.15339476433619856
1733902865690244600,7.08224462890625,-0.5759656582653522,0.5923087441705167,0.15398118592202661
1733902865700271900,7.09227197265625,-0.21732290049791333,0.5927459665440022,0.12559534165412187
1733902865710299000,7.102298828125,0.11003390764594077,0.7481832695584744,0.25495222779884935
1733902865720324900,7.112324951171875,0.3658721244990825,0.5672376504737884,0.31188597502857446
1733902865730351600,7.1223515625,0.38708208578824993,0.20441190793327985,0.29600378463342786
1733902865740379000,7.13237890625,0.24318682507276534,-0.05304558068476617,0.3944529068171978
1733902865750406000,7.142406005859375,0.04411562058031559,-0.30459304154142736,0.41959100133553145
1733902865760432600,7.1524326171875,-0.18122049050331115,-0.4832334524236619,0.3624894963234663
1733902865770460000,7.1624599609375,-0.2940694555699825,-0.6257591052863747,0.1989797268167138
1733902865780486000,7.17248583984375,-0.24155951613187787,-0.8767642028946429,-0.05131108504235744
1733902865790513000,7.182512939453125,-0.08173720296621322,-1.0984202372260392,-0.2626033270739019
1733902865800539600,7.19253955078125,0.11705284649729727,-1.3216848027326167,-0.47321518562585113
1733902865810566700,7.202566650390625,0.40985856574177737,-1.2528553043954074,-0.4780135258182883
1733902865820594000,7.212593994140625,0.672899845841527,-1.0606474828664212,-0.3652472705990076
1733902865830620000,7.222619873046875,0.862539205121994,-0.867178043903783,-0.2028039612799883
1733902865840646700,7.232646728515625,0.9878431626141071,-0.6588738777723163,-0.04054974479228258
1733902865850673700,7.242673583984375,1.1168857221126556,-0.40658246668055653,0.07362367381118237
1733902865860701000,7.252700927734375,1.3051730822622776,-0.11010076233707368,0.05659158272854983
1733902865870727700,7.262727783203125,1.4395838907957077,0.1612124523498118,-0.00431610963344574
1733902865880754700,7.272754638671875,1.4295815522193909,0.3899325067833066,-0.10203282588943839
1733902865890780700,7.28278076171875,1.3746002542316913,0.5971806610558181,-0.18757723911888896
1733902865900808000,7.292807861328125,1.3476082024097442,0.7424681067820638,-0.266215672352165
1733902865910834700,7.302834716796875,1.4222574929416179,0.5313582355801015,-0.28160598757714034
1733902865920861700,7.31286181640625,1.3125585163384674,0.14028255011104046,-0.22520174411423502
1733902865930889000,7.322888916015625,1.1217103657901286,-0.02999927081391215,-0.1239018356092274
1733902865940915000,7.3329150390625,0.9742898535579443,-0.07287804307565092,-0.00788403124809265
1733902865950941700,7.342941650390625,0.8649304841727018,-0.14010953163169323,0.07009666872881352
1733902865960968700,7.35296875,0.8148632617115974,-0.24694464323632417,0.09363529216125607
1733902865970995700,7.36299560546875,0.7641244235992432,-0.3675900343328714,0.03727123457826674
1733902865981022700,7.373022705078125,0.7488730784535408,-0.4472935395143926,-0.08610467746071516
1733902865991049700,7.3830498046875,0.6861304988145828,-0.4765021714072674,-0.1893401571381837
1733902866001075700,7.39307568359375,0.5628466489732266,-0.4186448065266013,-0.20781265628747642
1733902866011102700,7.403102783203125,0.38827918661832805,-0.32369587448351084,-0.17562866184562442
1733902866021129700,7.413129638671875,0.19713176086246967,-0.24087080321535467,-0.1155873039893806
1733902866031156700,7.42315673828125,0.03938800753653049,-0.19529826182499527,-0.04898943716175854
1733902866041183700,7.433183837890625,-0.08092880919277667,-0.18359218807071445,-0.012685294049978256
1733902866051209700,7.443209716796875,-0.10415595552325248,-0.19223054481744764,0.02756130307726562
1733902866061236700,7.45323681640625,-0.0015898995399475098,-0.23143092082738875,0.04269947017207742
1733902866071263700,7.463263671875,0.20601707810759542,-0.29659327495917676,0.01062624262832105
1733902866081290800,7.473290771484375,0.4848690908014774,-0.3858247792035341,-0.0844792682159692
1733902866091318000,7.483318115234375,0.7062123328566551,-0.49488706533834337,-0.24594737582728265
1733902866101344800,7.4933447265625,0.8002227419406175,-0.5492858872629702,-0.41302974312379953
1733902866111370800,7.503370849609375,0.6544108339488506,-0.5171387907654047,-0.5700840528808534
1733902866121397800,7.513397705078125,0.2767722838103771,-0.4148784397304058,-0.6074722649022937
1733902866131424800,7.5234248046875,-0.2030781020462513,-0.2762342314109206,-0.5571705760981888
1733902866141451800,7.53345166015625,-0.6003922435134649,-0.20945260551422834,-0.46614188623875374
1733902866151478800,7.543478759765625,-0.7539186714053153,-0.21426555875390768,-0.32014022782854734
1733902866161505800,7.553505859375,-0.6745020203411579,-0.22645079432725906,-0.13915361914634702
1733902866171531800,7.56353173828125,-0.4845943655133247,-0.21063158616572616,0.039245676456391806
1733902866181558800,7.573558837890625,-0.22734511281847952,-0.16752017419189213,0.1497933788433671
1733902866191585800,7.583585693359375,-0.0442459689617157,-0.09695113871097565,0.22178959758318958
1733902866201612800,7.59361279296875,0.0007598784565925597,-0.06926730523258447,0.30223025793284175
1733902866211639800,7.603639892578125,-0.06682604956030845,-0.08070771378800272,0.33428602288514375
1733902866221665800,7.613665771484375,-0.18642215079963206,-0.17103125105276704,0.3390865550346672
1733902866231692800,7.62369287109375,-0.25589199286699293,-0.3431896064393222,0.3411219333197921
1733902866241719800,7.6337197265625,-0.23761107076704502,-0.5792537400253117,0.29153540704771874
1733902866251746600,7.64374658203125,-0.15446692361235617,-0.7743086946137249,0.19800671706609427
1733902866261773800,7.65377392578125,-0.05065232887268066,-0.9133705438233911,0.030275019015371798
1733902866271799800,7.6637998046875,-0.027639117553830146,-0.8970882481947541,-0.15956234705522657
1733902866281826800,7.673826904296875,-0.1329378133714199,-0.6826371037408709,-0.3119681734193116
1733902866291853600,7.683853515625,-0.3592120820879936,-0.3071002020567655,-0.44162133909687395
1733902866301880800,7.693880859375,-0.5421978286981582,0.07406944481730461,-0.5062977363426238
1733902866311907800,7.703907958984375,-0.6627835254967213,0.4302025578513741,-0.5249616664107889
1733902866321934600,7.7139345703125,-0.6083972707927227,0.7121241872489452,-0.499728879346326
1733902866331960600,7.723960693359375,-0.2593254744470119,0.9178191937953233,-0.4716391684807837
1733902866341987800,7.73398779296875,0.32319267420172687,1.06185941593945,-0.3678605218373239
1733902866352014800,7.744014892578125,0.9858774154990911,1.0839318392768502,-0.25873700703457
1733902866362041600,7.75404150390625,1.599600849750638,0.9838090847924351,-0.1326934832215309
1733902866372068900,7.76406884765625,2.022425864571333,0.8189537458956241,-0.01821282529979944
1733902866382094800,7.7740947265625,2.1642016489148137,0.5810702879279852,0.07502404212839901
1733902866392121900,7.784121826171875,2.0807079576700924,0.3366331705331802,0.1849620881844312
1733902866402148600,7.794148681640625,1.7778993153274059,0.1255982642635703,0.22235621849000453
1733902866412175600,7.804175537109375,1.3425742998957633,-0.05659107127189636,0.2553254450254142
1733902866422203000,7.814202880859375,0.9175602505981921,-0.20132278281152247,0.19183562721572817
1733902866432229600,7.824229736328125,0.6674982790589332,-0.23036036898642778,0.12821071178428828
1733902866442255600,7.834255615234375,0.6193459503084421,-0.22982816180586813,0.05729775823652744
1733902866452283600,7.84428369140625,0.7382242586672305,-0.18880495428293942,-0.0112672439455986
1733902866462310700,7.854310546875,0.7612064903259277,-0.07853051587939262,-0.08871982839517295
1733902866472337700,7.864337646484375,0.6415665499448776,0.1636184905782342,-0.11978278291784226
1733902866482364700,7.87436474609375,0.4454506881266832,0.3600722060486674,-0.09938742594718933
1733902866492390700,7.884390625,0.41333354837596414,0.47908173957169053,-0.11778313353322446
1733902866502417700,7.894417724609375,0.5643827724993229,0.5362178775057196,-0.08128814402446151
1733902866512444700,7.904444580078125,0.717458534014225,0.43782121616154906,0.02148855903483927
1733902866522471700,7.9144716796875,0.7925900551050901,0.26731588867902756,0.13617343429178
1733902866532498700,7.924498779296875,0.8269488363027572,0.02866583025306463,0.25298311968296766
1733902866542524700,7.934524658203125,0.8292986142992973,-0.264683494348824,0.32854967119023204
1733902866552551700,7.9445517578125,0.7921043174147605,-0.5162245985299349,0.3157401662386954
1733902866562578700,7.95457861328125,0.6832885533869266,-0.5784773488253354,0.315416341111809
1733902866572605700,7.964605712890625,0.4877005148351192,-0.5034726689845324,0.3102254944704473
1733902866582632400,7.974632568359375,0.15534955166578293,-0.4204246756806969,0.28124694500640035
1733902866592659700,7.98465966796875,-0.20228198323249816,-0.2929895513787866,0.23921952887699008
1733902866602685700,7.994685791015625,-0.5561088651508093,-0.19490707055032253,0.12576134587079285
1733902866612712700,8.004712646484375,-0.8594125975340604,-0.04194616758674383,-0.01016629696637392
1733902866622739500,8.014739501953125,-1.0967641405820845,0.07092705513834953,-0.20707243237942455
1733902866632766700,8.0247666015625,-1.2041396426737307,0.15591010815799236,-0.4414901139326393
1733902866642793700,8.034793701171875,-1.1619091051876544,0.3078741090387106,-0.7474772401809692
1733902866652819700,8.04481982421875,-1.118436458685994,0.4516594796389341,-0.9993430462718009
1733902866662846500,8.054846435546875,-1.059979593542218,0.6339139893651008,-1.1806881860680878
1733902866672873700,8.064873779296875,-1.0868617552489042,0.8615256441652774,-1.2389455831170082
1733902866682900700,8.074900634765624,-1.3374801916271448,1.1125476929083467,-1.1416839171521365
1733902866692927500,8.084927490234374,-1.5439695634216068,1.3418883634582162,-0.9435681136883795
1733902866702954500,8.09495458984375,-1.8416490261822938,1.4815110614210367,-0.689188717341423
1733902866712980700,8.104980712890624,-2.3965093525767327,1.4746949516654013,-0.436095269151777
1733902866723007700,8.1150078125,-2.9199323381781577,1.327555886723101,-0.3059596537195146
1733902866733034500,8.125034423828126,-3.424637179306149,1.0040496165275574,-0.277828953256458
1733902866743061500,8.1350615234375,-3.682907007220387,0.5592129686459899,-0.23515330235138535
1733902866753088800,8.1450888671875,-3.465345037269592,-0.06192717160284519,-0.15958543566986919
1733902866763114800,8.15511474609375,-2.9034558351516724,-0.7870891196012496,-0.06148205818384885
1733902866773141500,8.1651416015625,-2.5708839227080342,-1.3601315838962793,0.037131753042340274
1733902866783168500,8.17516845703125,-2.6523440622985364,-1.7457959118410944,0.16118921760469673
1733902866793195800,8.18519580078125,-2.872252887636423,-1.9833914927780627,0.3632293549053371
1733902866803222800,8.195222900390625,-2.9506776050537824,-2.0737045086488126,0.6485846120133996
1733902866813248500,8.20524853515625,-2.8719816694796085,-2.001509625531733,0.8996072452783584
1733902866823275500,8.215275634765625,-2.5905203510701655,-1.7581886526852846,0.9742148886255919
1733902866833302800,8.225302734375,-2.0725766736626623,-1.4481857149243353,0.8834656732946634
1733902866843329800,8.235329833984375,-1.5937667367696762,-1.1647609874874352,0.7842990504913031
1733902866853356500,8.2453564453125,-1.2775433170586823,-0.8916104013055562,0.777266375375539
1733902866863383600,8.255383544921875,-0.9225193343102931,-0.6723708535313606,0.8001189893051981
1733902866873409800,8.265409912109375,-0.45884734531641,-0.44330841540098187,0.7239294835940003
1733902866883436800,8.275436767578125,-0.004453472277522087,-0.12000526656210422,0.589382043068856
1733902866893463600,8.285463623046875,0.3685615097135305,0.23058307182639837,0.47583662017062306
1733902866903490600,8.295490478515624,0.6479501135021448,0.5164107687518,0.4661198205374181
1733902866913517800,8.305517822265625,0.9499170443236827,0.6582818301633,0.5448861909992992
1733902866923543800,8.315543701171874,1.3737363308787345,0.6779974612414836,0.6440690342850983
1733902866933570600,8.325570556640624,1.6482628815889357,0.6818290022283792,0.6329764162540436
1733902866943597600,8.33559765625,1.783354073601961,0.705960696183145,0.5694302651472389
1733902866953624800,8.345624755859374,1.983038441556692,0.748919255682826,0.5013242587789893
1733902866963651600,8.355651611328126,2.239851640921831,0.7623723192349076,0.40460181425735353
1733902866973677600,8.365677490234376,2.31861245842576,0.769883717778325,0.2880916963346302
1733902866983704600,8.37570458984375,2.158065338116884,0.8123185456648468,0.18144728499650953
1733902866993731800,8.38573193359375,2.018096895456314,0.8588944188788533,0.06990662604942917
1733902867003758600,8.395758544921875,1.8576625878721476,0.8948328704833984,-0.07096855619251728
1733902867013785600,8.40578564453125,1.7396049482464788,0.8652455414712429,-0.21755729377567767
1733902867023812600,8.4158125,1.6693652908504009,0.7875733959868549,-0.3480461065597832
1733902867033838800,8.4258388671875,1.5192945563703775,0.6116238316237926,-0.4866292323417961
1733902867043865600,8.435865478515625,1.242920331966877,0.32772388789057727,-0.5363629850648344
1733902867053892600,8.445892578125,0.9284691826254129,0.00689589699357748,-0.49300563550591464
1733902867063919600,8.455919677734375,0.6561497865706681,-0.26161270860135555,-0.4479181011535227
1733902867073946600,8.465946533203125,0.3740215286850929,-0.42249972838908434,-0.4099146798431873
1733902867083972600,8.47597265625,0.17326514758467673,-0.5422235476613044,-0.3951373819500208
1733902867093999600,8.48599951171875,-0.0010164835661649703,-0.632755466979742,-0.38951179715320466
1733902867104026600,8.496026611328125,-0.28423078312277794,-0.6464677659898996,-0.3732398767881095
1733902867114053600,8.5060537109375,-0.6570926203787326,-0.6249491771429777,-0.3953219447366893
1733902867124080600,8.51608056640625,-1.0227028790712356,-0.5814411670669913,-0.4343465257883072
1733902867134106600,8.526106689453124,-1.1320149021834134,-0.5841434117630123,-0.4808015491016209
1733902867144133600,8.536133544921874,-1.220719021552801,-0.5805071010872721,-0.5576574097670615
1733902867154160600,8.54616064453125,-1.414150174331665,-0.5839633790209889,-0.6040890522047877
1733902867164187600,8.556187744140624,-1.6122773759722708,-0.5658484611377119,-0.6060749653249978
1733902867174214700,8.566214599609374,-1.6919664142370223,-0.5847700192287564,-0.5051682208560407
1733902867184241400,8.576241455078126,-1.7490145816266536,-0.6197317347556353,-0.43984863033592697
1733902867194267600,8.586267578125,-1.8761855020344256,-0.6118821902990341,-0.37792978817000983
1733902867204294700,8.596294677734376,-2.022179196333885,-0.6068845281422138,-0.2849780943587422
1733902867214321700,8.60632177734375,-2.081628579646349,-0.6300003230527043,-0.1921789607606828
1733902867224348700,8.6163486328125,-1.9881097534716128,-0.6860875364556909,-0.16318082981333135
1733902867234375700,8.626375732421875,-1.7461375648856161,-0.5610480751186608,-0.0749484196089208
1733902867244401700,8.636401611328125,-1.5547925707310437,-0.3427133672297001,-0.05980988718792796
1733902867254428700,8.6464287109375,-1.3395523217260836,-0.059955871529877185,0.005952770924568176
1733902867264455700,8.65645556640625,-1.3579226756751537,0.20605419524759053,0.011769786640256642
1733902867274482700,8.666482666015625,-1.338494337105751,0.3966688293009996,0.030895927392691373
1733902867284509700,8.676509765625,-1.1879741052925585,0.4586147056043148,0.06010054069757461
1733902867294535700,8.68653564453125,-1.0801765783965587,0.39010932465493675,0.049167204881459474
1733902867304562700,8.696562744140625,-0.8634709330141543,0.2552896430596709,0.14915230446085334
1733902867314589700,8.706589599609375,-0.6459142237603664,0.19107260695397854,0.3139798785679042
1733902867324616700,8.71661669921875,-0.7510428237080573,0.24619623602181673,0.521859535676986
1733902867334643700,8.726643798828125,-1.0795821196347475,0.37162703476399184,0.6748714381754398
1733902867344670500,8.73667041015625,-1.2123071670383214,0.4423372322812676,0.7390750302776694
1733902867354696700,8.74669677734375,-1.1126724883317947,0.5343514991119503,0.7339224698200821
1733902867364723700,8.7567236328125,-0.7438532044649123,0.675156392596662,0.7522635976746678
1733902867374750700,8.766750732421874,-0.23978724576234817,0.7959352738797664,0.7635022000476718
1733902867384777500,8.776777587890624,-0.10630816512107849,0.8527455408602952,0.6980149978756904
1733902867394804700,8.7868046875,-0.15414543657302857,0.8296805993542075,0.6329150414556265
1733902867404830700,8.796830810546876,-0.053743280625343316,0.7996405581384897,0.5126617914818227
1733902867414857700,8.806857666015626,-0.2168681424677372,0.799488874708116,0.28770824997499583
1733902867424884500,8.816884521484376,-0.6736743373453616,0.775446904863417,0.01906768856346607
1733902867434911700,8.826911865234376,-0.8925345304131508,0.6563619680166244,-0.20315905832797287
1733902867444938800,8.836938720703126,-0.5186591322004794,0.4745800442382693,-0.3934991132237017
1733902867454965200,8.84696533203125,-0.009977788656949996,0.22449206147491932,-0.5316418017618357
1733902867464991200,8.8569912109375,0.34660219136178494,0.0028287936851382253,-0.5977925824090838
1733902867475018200,8.867018310546875,0.4045417546331882,-0.12077771223932504,-0.6220001180790364
1733902867485045200,8.877045166015625,0.059171735414862627,-0.1889230277046561,-0.6732663410663604
1733902867495072300,8.887072265625,-0.4095405858337879,-0.1646858275488019,-0.751466894339025
1733902867505099300,8.897099365234375,-0.7030272730797529,-0.055545946133136744,-0.8699008199311792
1733902867515126300,8.907126220703125,-0.7941589118570089,0.11485036801695823,-0.9526964459091425
1733902867525152300,8.91715234375,-0.8516659289300441,0.24845628990828988,-0.9721095869094133
1733902867535179300,8.92717919921875,-0.7573854707330465,0.31898937729299065,-0.8881552924156189
1733902867545206300,8.937206298828125,-0.4409948777616024,0.25180589259713887,-0.7256605451703071
1733902867555233300,8.9472333984375,0.042189620953798294,0.0016065584138035772,-0.5456323331914842
1733902867565260300,8.95726025390625,0.4047685491263866,-0.284066532471776,-0.36358810521513224
1733902867575286300,8.967286376953124,0.29182489151358604,-0.4968216866627335,-0.2139228827960789
1733902867585313300,8.977313232421874,-0.2797615287542343,-0.5912547050729393,-0.07978855311647057
1733902867595340300,8.98734033203125,-0.7210287937164306,-0.4794406360119581,0.057397857610136264
1733902867605367300,8.9973671875,-0.8333879294395447,-0.23721973336189983,0.13509426075294614
1733902867615394300,9.007394287109374,-0.6782610806137322,0.05265080921351909,0.15059797322452068
1733902867625421300,9.01742138671875,-0.1705132185280323,0.3239408622205257,0.11234174619689583
1733902867635447300,9.027447265625,0.5503238520085811,0.458752360509336,0.037220600369572636
1733902867645474300,9.037474365234376,1.2440753472208976,0.3873977276086807,-0.06824103092476726
1733902867655501300,9.047501220703126,1.4780419240057467,0.134271107801795,-0.1893051588900387
1733902867665528300,9.0575283203125,1.097000287425518,-0.2082534588575363,-0.29567908272370697
1733902867675555300,9.067555419921876,0.4157715891778469,-0.44104953055828805,-0.4129867807649076
1733902867685582000,9.07758203125,-0.20203414595127103,-0.49068099195063114,-0.5007251238420606
1733902867695608300,9.0876083984375,-0.6751730514705181,-0.41209523875266313,-0.5413426731735468
1733902867705635300,9.09763525390625,-0.8669698810458183,-0.28062194497585297,-0.5305483074367046
1733902867715662300,9.107662353515625,-0.5991863748550414,-0.07134791089892387,-0.46391953401416536
1733902867725689000,9.117689208984375,0.2093260565251112,0.12282909181118011,-0.4301280313104391
1733902867735716400,9.12771630859375,1.3172434592843054,0.2266509930744767,-0.46791678695678707
1733902867745743400,9.137743408203125,2.1170815858215093,0.12509294508993624,-0.5869958785846829
1733902867755770000,9.14777001953125,2.1405840419620272,-0.14220453114956616,-0.6293431743182242
1733902867765796000,9.157796142578125,1.6366197900682686,-0.35378055855855345,-0.605998392957449
1733902867775823400,9.1678232421875,1.065171901488304,-0.40857714762911196,-0.518153666896373
1733902867785850400,9.177850341796875,0.44944297263324257,-0.31844182641282676,-0.4188609334953129
1733902867795877000,9.187877197265625,-0.19325053551495075,-0.136335639116168,-0.2311632098019123
1733902867805904400,9.197904296875,-0.7999410023897886,0.1427501823335886,0.03788827049806714
1733902867815931400,9.207931396484375,-1.2560825958788395,0.4147206188201904,0.4156754353269934
1733902867825957400,9.217957275390624,-1.2394821742117403,0.6922269159935415,0.8259278226919472
1733902867835984100,9.227984130859374,-0.5786112043380737,0.9738611067518591,1.1388073388025164
1733902867846011100,9.23801123046875,0.5176245284557343,1.1540141141541302,1.2625061991855502
1733902867856038400,9.248038330078124,1.5456225913256405,1.1260068939402699,1.0383872088067232
1733902867866065200,9.258065185546876,1.968653357851505,0.694618487305194,0.6660884853262454
1733902867876092200,9.268092041015626,1.6411439894944428,-0.046940907134115695,0.4370929749522358
1733902867886118100,9.2781181640625,0.9632248541861772,-0.6617592970155179,0.42353601263426244
1733902867896145400,9.2881455078125,0.2719827114462852,-0.8849174795381725,0.4054807890489697
1733902867906172200,9.298172119140625,-0.1834440117716789,-1.0380915868610143,0.2891642209369689
1733902867916199200,9.30819921875,-0.56619712844491,-0.8171944811381399,0.24870456558093426
1733902867926226400,9.318226318359375,-0.7754729160875081,-0.3112112906374037,0.29882516219709065
1733902867936253200,9.328253173828125,-0.7271463998138904,0.028661007947474716,0.20951803543325512
1733902867946280200,9.3382802734375,-0.5558323862969875,0.2624818926513195,-0.0360618953211233
1733902867956306200,9.34830615234375,-0.26074936977028845,0.38622736865505575,-0.3104725645666942
1733902867966333400,9.35833349609375,0.16181903994083405,0.35808614679798484,-0.5613322258222848
1733902867976360400,9.3683603515625,0.5887374615550041,0.1976902715280652,-0.7254190645646303
1733902867986387200,9.37838720703125,0.9193880505472422,0.006114245096594095,-0.7519345118507742
1733902867996414200,9.388414306640625,1.0760720656871796,-0.20109569605737923,-0.642923517511785
1733902868006441500,9.39844140625,0.9904939693838357,-0.3975996804103255,-0.4379354171257466
1733902868016467500,9.408467529296875,0.7762368861973286,-0.5140012233920395,-0.137773042374989
1733902868026494200,9.418494140625,0.501787492376566,-0.5574810302868485,0.06125073364600539
1733902868036521200,9.428521240234375,0.2975771714299917,-0.49883565683364867,0.1580653499631211
1733902868046548500,9.438548583984375,0.3234451876580715,-0.5838341996833681,0.19345341940959915
1733902868056575200,9.4485751953125,0.2887935609936714,-0.2951918837286532,0.2756087747226469
1733902868066602200,9.458602294921874,0.2994809592247009,-0.10282689887657762,0.2868613508220762
1733902868076629200,9.468629150390624,0.3591062836259603,-0.06992883788123726,0.24743474657451733
1733902868086655500,9.478655517578124,0.4129658841073513,-0.12684607236757875,0.13349013175824656
1733902868096682200,9.48868212890625,0.4216337592095136,-0.044009091465920205,0.07931167458603158
1733902868106709200,9.498709228515626,0.3910071502774954,-0.056710605998337264,0.05692053612170275
1733902868116736300,9.508736328125,0.22349311356544493,-0.01234656361490488,0.06432319076075219
1733902868126763300,9.51876318359375,0.014186930784583092,0.07194660744443536,0.08394986491384916
1733902868136790300,9.528790283203126,-0.08272446043789386,0.10968626325204968,0.07794477928015403
1733902868146817300,9.5388173828125,-0.11380875000953673,0.2679224762700498,0.08831939436811953
1733902868156843300,9.54884326171875,-0.047887540334463116,0.4833588323689997,0.14664362784186377
1733902868166870300,9.558870361328125,0.06032207449376583,0.5508091513074934,0.13280030459687112
1733902868176897300,9.568897216796875,0.11563830352425575,0.5895202824957668,0.055709301734995095
1733902868186924300,9.57892431640625,0.13700140954852102,0.6400871250420809,-0.005077284997981041
1733902868196951300,9.588951416015625,0.1475426773071289,0.5603901957318187,-0.061973038304876535
1733902868206978300,9.598978271484375,0.12327274392545222,0.3593431611217558,-0.17894485545521602
1733902868217005300,9.60900537109375,0.04082417781949043,0.2861439232677221,-0.18954554351717232
1733902868227031300,9.61903125,-0.04980711022019386,0.08464505323693156,-0.26352741964887827
1733902868237058000,9.62905810546875,-0.17241408371329306,-0.02144917687252164,-0.31915384713970124
1733902868247085300,9.639085205078125,-0.25366496446728704,-0.06653919544294476,-0.2741099327333271
1733902868257112300,9.6491123046875,-0.3062006228685379,-0.13057459137141703,-0.1753210389348678
1733902868267139000,9.65913916015625,-0.2620201203584671,-0.2607137139350176,-0.07123789291949942
1733902868277166300,9.669166259765625,-0.1965419782757759,-0.34932489432394503,0.011578337455075234
1733902868287193300,9.679193359375,-0.083393738001585,-0.33098625068739057,0.03611508681308478
1733902868297219300,9.68921923828125,0.018027824121713637,-0.2716420813150704,0.04436561328601092
1733902868307246300,9.699246337890624,0.09296469942331313,-0.19138722586110232,0.042354346528835594
1733902868317273300,9.7092734375,0.1232341654807329,-0.13903613024652003,-0.014686952728591858
1733902868327300400,9.71930029296875,0.2035176625072956,-0.26939181817024943,-0.11478756844643503
1733902868337327400,9.729327392578124,0.21619360420703887,-0.5028219499908387,-0.1808731018377468
1733902868347354000,9.73935400390625,0.18385902231335638,-0.3389236195579171,-0.32712723717167974
1733902868357381400,9.74938134765625,0.15257424173355102,-0.23443360977470873,-0.4545981634393334
1733902868367407400,9.759407470703126,0.06083996088802814,-0.14437018475085497,-0.47030759108345954
1733902868377434400,9.769434326171876,-0.027453824114799498,-0.08677154387161135,-0.4513887364061549
1733902868387461000,9.779461181640626,-0.05129238034188747,0.036092765383422376,-0.39436292697880415
1733902868397488400,9.78948828125,0.14750994408130644,0.09769640412032604,-0.29472159933578224
1733902868407515400,9.799515380859376,0.38844635987877846,-0.08216025068387389,-0.14850052602123467
1733902868417542100,9.809542236328125,0.451245638141036,-0.2289139695703983,-0.08378978811446577
1733902868427569400,9.8195693359375,0.3804676360845566,-0.28104382364973424,-0.11383468816839158
1733902868437596400,9.829596435546875,0.3699655312925577,-0.27010610391944645,-0.10041589221209286
1733902868447622400,9.839622314453125,0.46126025167703627,-0.22646175411269068,-0.08502652683518827
1733902868457649400,9.8496494140625,0.5485276162415742,-0.18989727956429123,-0.11454455347079782
1733902868467676400,9.859676513671875,0.589955605173111,-0.17028832373097538,-0.16045878443829714
1733902868477703400,9.869703369140625,0.5897919390439987,-0.1554931979201734,-0.20651384864859282
1733902868487730400,9.87973046875,0.5613374134540557,-0.0984212112635374,-0.2437842247103341
1733902868497757400,9.88975732421875,0.5165595295727252,-0.05514949416145682,-0.2557492964606732
1733902868507784400,9.899784423828125,0.48791561889052387,-0.06783814921230077,-0.2682735547300428
1733902868517810400,9.909810546875,0.46344227189123627,-0.1268261986233294,-0.23466765599260106
1733902868527837400,9.91983740234375,0.4300619803369045,-0.19201397945731877,-0.18191446411684153
1733902868537864400,9.929864501953125,0.391418069165945,-0.23130466409921643,-0.1316010848749429
1733902868547891500,9.939891357421875,0.3698597328305244,-0.21369258117154238,-0.09103880026149563
1733902868557918200,9.949918212890625,0.382495927041769,-0.17876301434859632,-0.07098331993680912
1733902868567945500,9.959945556640625,0.39988311517238617,-0.12176409292817116,-0.05736941696694121
1733902868577972500,9.969972412109374,0.48502340458035464,-0.09474661440402268,-0.06049953168621287
1733902868587998500,9.97999853515625,0.654343029409647,-0.0633415684454143,-0.10416119795395061
1733902868598025200,9.990025146484374,0.8641501474499702,-0.06886164704114198,-0.1824139563378878
1733902868608052500,10.000052490234374,1.0174024345755577,-0.07578399365022778,-0.28498629593150687
1733902868618079500,10.01007958984375,0.9880880772858858,-0.056089259229600424,-0.37421829336620865
1733902868628106200,10.020106201171876,0.8310358133554459,-0.009180793060362338,-0.41711547806747257
1733902868638133200,10.03013330078125,0.733062930381298,-0.017630056975781915,-0.43747543493118135
1733902868648160500,10.040160400390626,0.7792968582898377,-0.06794526284858585,-0.42989886219706386
1733902868658187300,10.050187255859376,0.9076526045680046,-0.193700471239537,-0.43141401600036766
1733902868668213200,10.060213134765625,1.035056164687872,-0.3379191186904907,-0.4258590122217312
1733902868678240300,10.070240234375,1.0855389822125434,-0.421233946236968,-0.43425260042715813
1733902868688267500,10.080267578125,1.0173697013497351,-0.4493452113471925,-0.42549551267158237
1733902868698294500,10.09029443359375,0.8292728953361511,-0.42993937687054273,-0.3884374459199607
1733902868708321300,10.1003212890625,0.5518196435242891,-0.3810876676790416,-0.329794191358611
1733902868718348500,10.1103486328125,0.2487573186814785,-0.29219153286889193,-0.2408042407851666
1733902868728375600,10.12037548828125,-0.055025137129426,-0.18739479522407054,-0.09612002164907753
1733902868738401500,10.130401611328125,-0.3400035237491131,-0.06958323931396007,0.08821750489622354
1733902868748428300,10.14042822265625,-0.562750787383318,0.011887421670556068,0.2403012596990913
1733902868758455600,10.15045556640625,-0.6682908907413482,0.08850392062216997,0.34431239992417395
1733902868768482600,10.160482666015625,-0.6690051764905453,0.11080664558410644,0.4213307576749474
1733902868778509300,10.17050927734375,-0.5406266338586807,0.12069397947862744,0.4466982039697468
1733902868788536300,10.180536376953125,-0.34637539686858654,0.10130334257110953,0.4022247829277068
1733902868798563600,10.1905634765625,-0.08717734819352627,0.05566606538146734,0.31790910777561365
1733902868808590300,10.20059033203125,0.16935937231779097,-0.05525821523293852,0.21293606371581553
1733902868818616300,10.2106162109375,0.3480348545134067,-0.16123583322539925,0.07037358597405255
1733902868828643300,10.220643310546874,0.4140940113544464,-0.24650413292720913,-0.06413301108404994
1733902868838670600,10.230670654296874,0.36754561066925523,-0.3229484901823103,-0.15454356904514133
1733902868848697300,10.240697265625,0.25182956573367116,-0.29803236785158516,-0.22719934767223893
1733902868858724400,10.250724365234374,0.0379804788261652,-0.24018004447221755,-0.23143618152439593
1733902868868751400,10.26075146484375,-0.1516997969865799,-0.1595800288423896,-0.18892010509520768
1733902868878778400,10.2707783203125,-0.21786767489910125,-0.06660568480789661,-0.08884455075338482
1733902868888804400,10.280804443359376,-0.10964929224252701,0.03423310899138451,0.02109787921682
1733902868898831400,10.290831298828126,0.15896774216294288,0.11059300283342599,0.10513400677517055
1733902868908858400,10.3008583984375,0.48418753827810285,0.16866320674717425,0.11502002549543976
1733902868918885400,10.310885498046876,0.7208090134859084,0.1634451798379421,0.09309081002101302
1733902868928912400,10.320912353515626,0.805968007594347,0.17598726602494716,0.04449497528672218
1733902868938939400,10.330939453125,0.8354992225050926,0.19622429062873123,0.0030785306625068184
1733902868948966400,10.34096630859375,0.8834662578165531,0.20205109708607197,-0.027629619073122738
1733902868958993400,10.350993408203125,0.8471849841237068,0.223539583055675,-0.06323211672157049
1733902868969019400,10.361019287109375,0.7455132466316222,0.21427958727926014,-0.1269337506510317
1733902868979046400,10.37104638671875,0.5951648642539977,0.16830197221934795,-0.19415873640105127
1733902868989073400,10.381073486328125,0.3915677067697048,0.06832008751034736,-0.3382647172577679
1733902868999100400,10.391100341796875,0.19133739537000655,0.036403731028735634,-0.4707403199449181
1733902869009127400,10.40112744140625,0.08195581415295601,-0.046799160575866694,-0.6039829614818096
1733902869019154400,10.411154541015625,-0.03836684779524803,-0.03683627722710371,-0.7009294240176678
1733902869029181400,10.421181396484375,-0.14206278459131716,0.0042304771766066545,-0.7346598441839217
1733902869039207400,10.43120751953125,-0.2229413249015808,0.06618336774259806,-0.7049458200521767
1733902869049234400,10.441234375,-0.22777648997306824,0.11818944931179284,-0.6600932634994388
1733902869059261400,10.451261474609375,-0.22164076369702815,0.21392127536088226,-0.5606669668465852
1733902869069288400,10.461288330078125,-0.2913023289442062,0.2488046649545431,-0.46479850880578155
1733902869079315500,10.4713154296875,-0.38657705887556076,0.2346291323468089,-0.3251088830865919
1733902869089342500,10.481342529296874,-0.4109434383690357,0.2080678731575608,-0.16746303717717528
1733902869099369200,10.491369140625,-0.43751931060552596,0.12360095296651125,-0.04082826947271823
1733902869109395500,10.5013955078125,-0.41378713736236095,0.02214081239849329,0.044156537112593645
1733902869119422500,10.51142236328125,-0.3229962748467922,-0.06591214958578348,0.06490311867371201
1733902869129449500,10.521449462890626,-0.23938684826791284,-0.1439288707241416,0.08029109581112862
1733902869139476200,10.531476318359376,-0.21810499078631398,-0.1463154735997319,0.055350861952453846
1733902869149503500,10.54150341796875,-0.2612064658880234,-0.16659662960618735,0.018172493289411066
1733902869159530500,10.551530517578126,-0.2792120781779289,-0.15102379742115735,-0.059048255165666336
1733902869169557200,10.56155712890625,-0.2600456054151058,-0.13416677064448596,-0.12011135728508233
1733902869179583200,10.571583251953125,-0.20445172848701476,-0.09166618404537438,-0.17017448809295893
1733902869189610500,10.581610595703125,-0.04584405180811882,-0.04963146139234304,-0.20021131443828344
1733902869199637500,10.591637451171875,0.1276449676603079,0.008626374047994613,-0.21593027709573506
1733902869209664300,10.601664306640625,0.2970774052143097,0.10288725076168775,-0.2179348949164152
1733902869219691500,10.61169140625,0.25757307782173156,0.20398440323621034,-0.17563304575979707
1733902869229718500,10.621718505859375,0.0928308439105749,0.2965422754243016,-0.10636018756926059
1733902869239745300,10.631745361328125,-0.14254618419408796,0.40680005495399235,-0.054825522904098034
1733902869249771300,10.641771240234375,-0.33501989011764527,0.4647095153480768,-0.004358487470448017
1733902869259798300,10.65179833984375,-0.44449441031515596,0.5162219681814313,0.020929098521173
1733902869269825500,10.661825439453125,-0.4593593864917755,0.4919765847191214,0.018655308370292185
1733902869279852300,10.671852294921875,-0.49478258205056186,0.41423195852041245,-0.036624680303037165
1733902869289879300,10.68187939453125,-0.68272273619771,0.3132423580735922,-0.04983808988034725
1733902869299906600,10.691906494140625,-1.0078209517598151,0.1742284396588802,0.010247545509040355
1733902869309932500,10.7019326171875,-1.3454466404616832,0.014657470905780791,0.14571575414091348
1733902869319959300,10.711959228515624,-1.482407133477926,-0.1329404437199235,0.2592860192194581
1733902869329986300,10.721986328125,-1.4583867909431456,-0.29952801323682066,0.3252846780449152
1733902869340013600,10.732013671875,-1.503802972728014,-0.44068683472573755,0.3480643728688359
1733902869350040300,10.742040283203124,-1.5502368071228265,-0.5546566205158829,0.37364772693663834
1733902869360067300,10.7520673828125,-1.6137889495790003,-0.6219838975965977,0.39690936005860566
1733902869370094300,10.76209423828125,-1.6449135711610317,-0.6471846820876002,0.388217811819911
1733902869380120600,10.77212060546875,-1.5551695873498916,-0.6751976013898849,0.30036855571418997
1733902869390147300,10.782147216796876,-1.423963712337613,-0.683306381304562,0.1696437422171235
1733902869400174300,10.79217431640625,-1.3498013285398482,-0.6633011196300387,0.04681465040594339
1733902869410201300,10.802201416015626,-1.5230617999494074,-0.6204916132122278,-0.06748451346904039
1733902869420228600,10.812228515625,-1.7381600101351737,-0.6012739947840571,-0.11799947969764471
1733902869430255400,10.82225537109375,-1.7066759075909852,-0.6275184431090951,-0.19662819525450467
1733902869440282400,10.832282470703126,-1.4784475821971892,-0.6182166540175676,-0.30819062764197586
1733902869450308400,10.842308349609375,-1.3423749779313803,-0.5373892593726516,-0.42747196384370323
1733902869460335600,10.852335693359375,-1.3747019610404967,-0.383327701690793,-0.46277825502455233
1733902869470362400,10.8623623046875,-1.3236065645754336,-0.2478548168838024,-0.3936798766180873
1733902869480389400,10.872389404296875,-1.2567945435404777,-0.13342764271497726,-0.2938376926407218
1733902869490416400,10.88241650390625,-1.1484440589368343,-0.07017769807577133,-0.1928162357509136
1733902869500443400,10.892443359375,-0.9444318909108638,-0.03043342444747686,-0.10602905591875314
1733902869510469400,10.902469482421875,-0.6093056178092956,-0.06183452488332986,-0.02338818211108446
1733902869520496400,10.912496337890625,-0.36220483416318894,-0.06074994451701641,0.06780570824742317
1733902869530523400,10.9225234375,-0.3194283532321453,-0.05291822797805071,0.13983692523539065
1733902869540550400,10.93255029296875,-0.33737317524552346,0.09169716370552777,0.20483312902003525
1733902869550577400,10.942577392578125,-0.3169967421710491,0.17866846793293953,0.27220103037208315
1733902869560604400,10.9526044921875,-0.33379531675875185,0.30513766981214285,0.26187662023454905
1733902869570630400,10.96263037109375,-0.36503508915305133,0.39364188269525763,0.1764116289168596
1733902869580657400,10.972657470703124,-0.2125543709218502,0.40427199778109785,0.12875585151165722
1733902869590684400,10.982684326171874,0.011684592574834823,0.45240562183111904,0.06543722555041313
1733902869600711400,10.99271142578125,0.08503507546782493,0.44304216568022964,0.08661649944037199
1733902869610738400,11.002738525390624,-0.04544306979179382,0.3823872059702873,0.08792436716854572
1733902869620765400,11.012765380859374,-0.2775824311494827,0.29877514904290436,0.073982935577631
1733902869630792400,11.02279248046875,-0.19102292259335515,0.20304624560326337,0.06277735869139432
1733902869640818400,11.032818359375,0.013341127610206603,0.1359568689316511,0.027487434123456476
1733902869660245500,11.05224560546875,0.23101474124193191,0.07448913153409957,-0.00345949280411005
1733902869670272300,11.062272216796876,0.28143793753385543,0.10543693524450064,-0.014867314264178276
1733902869680298200,11.07229833984375,0.11845219190120697,0.14261895716935397,-0.024481530305743217
1733902869690325500,11.082325439453125,0.025763386809825897,0.17503361856192348,-0.03906798180192709
1733902869700352500,11.0923525390625,0.06091185708045959,0.21080343560129403,-0.0647092035368085
1733902869710379300,11.102379150390625,0.06724690532088279,0.22374241215139626,-0.14914923572093247
1733902869720406300,11.11240625,0.06813420954942703,0.20247166058570146,-0.21680969027876854
1733902869730433500,11.12243359375,0.14740239205360411,0.17627192818522452,-0.25512451562583444
1733902869740459500,11.13245947265625,0.22351766348481178,0.1270078388005495,-0.2762161112323403
1733902869750486300,11.142486328125,0.17731296167075633,0.10335282244682312,-0.27871289648413655
1733902869760513300,11.15251318359375,0.03780219964981079,0.06007043782025575,-0.24797201352268455
1733902869770540500,11.16254052734375,-0.11097966406345366,0.07006196274161339,-0.21040508393347263
1733902869780567300,11.1725673828125,-0.14147475557029246,0.10582096612602472,-0.18039397655129433
1733902869790594300,11.18259423828125,-0.09042787442207335,0.1640261945962906,-0.1703708874478936
1733902869800620300,11.192620361328125,-0.15897358738183975,0.18212533038854598,-0.19035627537816763
1733902869810647600,11.2026474609375,-0.24694646986722946,0.18811638749688864,-0.1823915801092982
1733902869820674300,11.21267431640625,-0.3858241946816444,0.14246522791236638,-0.18468787435293196
1733902869830701300,11.222701416015624,-0.4396504774153232,0.07788345014750957,-0.20269524020850657
1733902869840728300,11.232728271484374,-0.29896015022099015,0.03823562263101339,-0.2345075517937541
1733902869850755300,11.24275537109375,-0.3188385706454515,0.05889058038592338,-0.27148732914477586
1733902869860781300,11.25278125,-0.5902957969129086,0.07062953349649906,-0.31044395952671766
1733902869870808300,11.262808349609376,-0.8691028014212846,0.05148936421871185,-0.3075502839118242
1733902869880835300,11.27283544921875,-0.9627771104186773,-0.0013902853146195411,-0.33016192869246
1733902869890862600,11.282862548828126,-0.898020852869749,-0.040890813314914704,-0.3053364072546363
1733902869900889300,11.292889404296876,-0.7960580234766006,-0.06891016235798597,-0.29799744266867634
1733902869910916400,11.302916259765626,-0.8023919026732445,-0.08928308830112218,-0.25953619458824395
1733902869920942300,11.3129423828125,-0.7707078936427831,-0.07784984013885259,-0.2086868818387389
1733902869930969600,11.322969482421875,-0.7731091095656156,-0.012119476860761641,-0.1875099460363388
1733902869940996400,11.332996337890625,-0.9058663056731223,0.036112931388616556,-0.21069383774697778
1733902869951023400,11.3430234375,-0.9122259038329124,0.07258125208616256,-0.23391543111950158
1733902869961050600,11.353050537109375,-0.9460288047134876,0.08258359066247939,-0.26534692669361826
1733902869971077400,11.363077392578125,-1.102317098534107,0.016317513072490693,-0.25957068137973544
1733902869981103400,11.373103271484375,-1.1644207957476376,-0.08161269980370998,-0.1830097120076418
1733902869991130400,11.38313037109375,-1.109011043214798,-0.20798691687583923,-0.07266103932410478
1733902870001157400,11.393157470703125,-0.9455413134574889,-0.306571502007544,0.05321896449029445
1733902870011184400,11.403184326171875,-0.6626718818157911,-0.34673400104790925,0.1282885262608528
1733902870021211400,11.41321142578125,-0.22352233965992926,-0.31223990303277965,0.17575491857379674
1733902870031238400,11.42323828125,0.0609638795286417,-0.1800987929970026,0.148514152687788
1733902870041264400,11.433264404296875,-0.07140051786899566,-0.040246670192480086,0.06698124012202024
1733902870051291400,11.44329150390625,-0.4310404699802398,0.025450959859788416,0.05716244141906499
1733902870061318400,11.453318359375,-0.5694985080778598,0.05778729531913995,0.14603548761457205
1733902870071345400,11.463345458984374,-0.34528877067565916,0.1140779223397374,0.28453824163675306
1733902870081372400,11.473372314453124,-0.029570962399244307,0.1575689812809229,0.4255883420541882
1733902870091399400,11.4833994140625,-0.025251345634460447,0.1739960922077298,0.5002677354633808
1733902870101425400,11.49342529296875,-0.2967413051277399,0.16550971115231514,0.49828299138695
1733902870111452400,11.503452392578126,-0.43833881029486654,0.17347732903063295,0.5021896434366703
1733902870121479400,11.5134794921875,-0.32773908545970915,0.2041170897051692,0.49712826839387414
1733902870131506400,11.52350634765625,-0.058227732563018796,0.21045096890181303,0.4492623553693294
1733902870141533400,11.533533447265626,0.18549919073581694,0.15057956078499554,0.3675581778898835
1733902870151560200,11.543560302734376,0.2470353171944618,0.04261047671437263,0.275644156563282
1733902870161586200,11.553586181640625,0.07989829710125923,-0.0890212224945426,0.21522855856716633
1733902870171613400,11.563613525390625,-0.10012801518142223,-0.17667641733288764,0.18139292446076868
1733902870181640400,11.573640380859375,0.0075672203838825225,-0.2256950075238943,0.19654110149294138
1733902870191667200,11.583667236328125,0.31421091084480285,-0.19195844987779856,0.16836013214737175
1733902870201694500,11.593694580078125,0.5305360324770212,-0.10007979212552308,0.08270210247561335
1733902870211720400,11.603720458984375,0.450943440324068,0.009537643674015998,-0.06914031785205006
1733902870221747500,11.61374755859375,0.07572013463377952,0.06709755997806788,-0.22252309948951005
1733902870231774200,11.623774169921875,-0.26508769123554227,-0.003267477363348007,-0.2791474885091185
1733902870241801500,11.633801513671875,-0.44028643723130223,-0.13436959974020718,-0.2594379949107766
1733902870251828500,11.643828369140625,-0.5391068769454955,-0.24346827236264942,-0.19167612580507992
1733902870261855500,11.65385546875,-0.5786030210316181,-0.26350626726299525,-0.07109086739793419
1733902870271881200,11.663881103515624,-0.5085118321955203,-0.20570523567944765,0.0253340554818511
1733902870281908500,11.673908447265624,-0.23225626573562622,-0.0816878108665347,0.04172799479141831
1733902870291935500,11.683935546875,0.3837468038856983,-0.002249240231513977,-0.060261138086766
1733902870301962500,11.69396240234375,0.9638058689445257,-0.029000176773965356,-0.3216343388438225
1733902870311989200,11.7039892578125,1.1701917803645134,-0.15946926194429398,-0.6248707050792872
1733902870322015200,11.71401513671875,0.9310802419066428,-0.31215865449011326,-0.8052632203258574
1733902870332042500,11.72404248046875,0.5546943221777677,-0.37441403513401744,-0.7943313458144664
1733902870342069500,11.734069580078126,0.19111118539869784,-0.2843818820312619,-0.6871709477782248
1733902870352096300,11.74409619140625,-0.12026187167167662,-0.14258242455124853,-0.5817563704960048
1733902870362123500,11.75412353515625,-0.32989129505753517,0.048130701440572736,-0.4558296049304306
1733902870372150500,11.764150634765626,-0.32600597805678844,0.21512977436780928,-0.2794714597664773
1733902870382176500,11.774176513671875,-0.11387304741740226,0.3186290195479989,-0.11975699088945985
1733902870392203300,11.784203369140625,0.23588673119246958,0.3841311270281672,-0.00722527507841587
1733902870402230500,11.79423046875,0.8051502614706754,0.3381038276076317,0.04430398275926709
1733902870412257500,11.804257568359375,1.436934837591648,0.2106783479169011,-0.027829963950812817
1733902870422284300,11.8142841796875,1.8168799111068248,0.04575608126372099,-0.13022636245563626
1733902870432310300,11.824310302734375,1.7128350147426128,-0.10529664999097585,-0.18685396634563803
1733902870442337500,11.834337646484375,1.233569150775671,-0.19119111876711248,-0.15526187338232994
1733902870452364500,11.844364501953125,0.6848433816134929,-0.1497016089066863,-0.08002280026376248
1733902870462391300,11.854391357421875,0.2529343121051788,-0.11564122613370417,-0.0031515958987176416
1733902870472418600,11.86441845703125,-0.040078327888250345,0.10314034873992205,0.16884177818447352
1733902870482445600,11.874445556640625,-0.14374270050227642,0.2509668114244938,0.3056789370819926
1733902870492471600,11.884471435546875,-0.06604103666245938,0.3023131139107048,0.42194545550718904
1733902870502498300,11.894498291015625,0.18871873730421065,0.2843393580637872,0.464289536370337
1733902870512525600,11.904525634765625,0.4860661916315555,0.21031842856332658,0.4490985431097448
1733902870522552600,11.914552490234374,0.6380360377311706,0.10306333798095584,0.347901875783503
1733902870532579300,11.924579345703124,0.6166062962114811,-0.019753625001013277,0.23387451458722353
1733902870542606300,11.9346064453125,0.4758627775251865,-0.07530906961485744,0.10742876664884388
1733902870552632300,11.94463232421875,0.27808278188705443,-0.11385405045598744,0.030160160464048385
1733902870562659600,11.95465966796875,0.12172843709290027,-0.053599342110008,-0.05006378839500248
1733902870572686300,11.964686279296876,0.0012485387563705443,0.08578867031410337,-0.12734766521416604
1733902870582713300,11.97471337890625,-0.06803834795951842,0.13579802510812877,-0.18543496639318763
1733902870592740600,11.98474072265625,-0.07163549566864967,0.09426511449739336,-0.20378442368470132
1733902870602766600,11.9947666015625,-0.13459844006001948,0.29187632943987846,-0.21649645961113273
1733902870612793300,12.00479345703125,-0.24210253696739673,0.3798705469742417,-0.20235278344638644
1733902870622820400,12.0148203125,-0.3958165963858366,0.38316739656254645,-0.10822386254929005
1733902870632847600,12.02484765625,-0.5902846909970044,0.32741029189676046,0.004107069992646575
1733902870642874400,12.034874267578125,-0.7424129425287246,0.21426468197107315,0.10029555376805364
1733902870652900400,12.044900390625,-0.7774480155527591,0.09925094008594751,0.15371617831028997
1733902870662927400,12.05492724609375,-0.7194084990382195,0.008424421735107898,0.15646891108453273
1733902870672954600,12.06495458984375,-0.6687871498256921,-0.04258826488256454,0.11882460541017353
1733902870682981400,12.0749814453125,-0.7278495796471833,-0.06862053176164627,0.04188669248446822
1733902870693008400,12.08500830078125,-0.810206960338354,-0.0629101912908256,-0.04846132163442671
1733902870703035400,12.095035400390625,-0.8935527675449848,-0.08527735979110002,-0.09147475312650204
1733902870713061400,12.105061279296875,-0.9022609746575355,-0.16008490962460636,-0.07456124692223966
1733902870723088400,12.11508837890625,-0.7898527390956879,-0.2766338982529938,-0.06160173904076218
1733902870733115400,12.125115478515625,-0.5718740050375462,-0.39927360497191544,-0.046818595928698775
1733902870743142400,12.135142333984374,-0.32919220687747,-0.43188525024130936,-0.04007752417065203
1733902870753169700,12.145169677734375,-0.12064824064075946,-0.3932864933863282,-0.05945793194510042
1733902870763195400,12.1551953125,0.06895838541388512,-0.41964375443607566,-0.1191578924851492
1733902870773222400,12.165222412109374,0.14531915603876114,-0.3158671536192298,-0.14667915581297128
1733902870783249400,12.17524951171875,0.21655133160352705,-0.17427227880060672,-0.1304007691744715
1733902870793276700,12.185276611328124,0.271916075950861,0.05535802234560251,-0.06523154691047967
1733902870803303400,12.195303466796876,0.3445686397075653,0.20428513974845408,0.00812711928896606
1733902870813329400,12.205329345703126,0.43332244343757625,0.28092151244431735,0.021167583452165125
1733902870823356400,12.2153564453125,0.5796311950355768,0.3080206779025495,0.07207580504836514
1733902870833383400,12.225383544921876,0.7136755083441734,0.301143485609442,0.14124735828889534
1733902870843410400,12.235410400390625,0.8778414036720991,0.2897254350163042,0.15240756166344507
1733902870853437400,12.2454375,1.1501906103432178,0.08289543309062719,-0.04298687227871269
1733902870863463400,12.25546337890625,1.3592916259407997,-0.017221476174890993,-0.24322162239151074
1733902870873490400,12.265490478515625,1.4103162952572106,-0.06582900134697556,-0.3820043441325426
1733902870883517400,12.275517333984375,1.3579764516890047,-0.09011924686431884,-0.5028827402673661
1733902870893544400,12.28554443359375,1.3380518540352582,-0.09100991209372877,-0.6054074413269758
1733902870903571500,12.295571533203125,1.3457774798512459,-0.016003770948201417,-0.6345200654994696
1733902870913598500,12.305598388671875,1.2505863365501164,0.039469109948724504,-0.5632435028037056
1733902870923624400,12.31562451171875,1.0192851795822382,0.140655986533314,-0.3676346771921962
1733902870933651500,12.3256513671875,0.7601976055443287,0.37538317242711783,-0.06136301664775237
1733902870943678500,12.335678466796875,0.5541746822178364,0.622634178198874,0.13681268204338848
1733902870953705500,12.34570556640625,0.3672773151218891,0.8100050080254674,0.18085448846882207
1733902870963732500,12.355732421875,0.17906769638359546,0.8835399075746536,0.12644037764351815
1733902870973758500,12.365758544921874,-0.024471593433618544,0.8227505078300833,0.021791688433568924
1733902870983785500,12.375785400390624,-0.217704008769989,0.48382367340177296,-0.05306829484007321
1733902870993812200,12.385812255859374,-0.38885260259211063,0.10912526836842298,-0.06672076255492866
1733902871003839500,12.395839599609374,-0.5689753609865904,-0.12046060911417007,-0.12588946576248852
1733902871013866500,12.405866455078124,-0.7512731253325938,-0.24898002152144907,-0.17741243998985737
1733902871023892500,12.415892578125,-0.9332575859457254,-0.3735872289210558,-0.18041196886571123
1733902871033919200,12.425919189453126,-1.0217132835119962,-0.5070236394643783,-0.16036306897886096
1733902871043946500,12.435946533203126,-0.985609119951725,-0.6530068123698234,-0.20750090519087389
1733902871053973500,12.445973388671876,-0.701691640561819,-0.7757775981225072,-0.2604576933473349
1733902871064000300,12.456000244140625,-0.2037561474382877,-0.8142534592501819,-0.3454443996287882
1733902871074026200,12.466026123046875,0.34039749150276183,-0.7389733234688639,-0.40379711027834564
