time,seconds_elapsed,z,y,x
1733902858637028900,0.02902880859375,-0.6103095412254333,-0.8030939102172852,-1.1844388246536255
1733902858647054800,0.039054931640625,-0.5949853658676147,-0.8962734341621399,-1.306350827217102
1733902858657081900,0.049081787109375,-0.6203210949897766,-0.8927007913589478,-1.4338794946670532
1733902858667109000,0.059109130859375,-0.6245403289794922,-0.7596389055252075,-1.5149227380752563
1733902858677135000,0.069135009765625,-0.7158837914466858,-0.7686046957969666,-1.5201987028121948
1733902858687161900,0.079161865234375,-0.8640803098678589,-0.954075276851654,-1.4688079357147217
1733902858697188900,0.08918896484375,-1.013357162475586,-0.9145065546035767,-1.3561989068984985
1733902858707214800,0.09921484375,-1.127832055091858,-0.6759647130966187,-1.2027745246887207
1733902858717242000,0.1092421875,-1.1591497659683228,-0.23624885082244873,-1.0700103044509888
1733902858727268900,0.119268798828125,-1.097508430480957,0.20598500967025757,-1.0087013244628906
1733902858737294800,0.129294921875,-1.0116904973983765,0.5478102564811707,-1.060091257095337
1733902858747321900,0.13932177734375,-0.9635553956031799,0.8184770941734314,-1.2297983169555664
1733902858757349000,0.14934912109375,-0.9395201206207275,0.9639735817909241,-1.4410698413848877
1733902858767375000,0.159375,-0.9375935792922974,1.0760730504989624,-1.6327216625213623
1733902858777401900,0.16940185546875,-1.036242127418518,1.1940430402755737,-1.811396598815918
1733902858787428900,0.179428955078125,-1.1561026573181152,1.1534903049468994,-1.9237240552902222
1733902858797454800,0.189454833984375,-1.2815910577774048,1.0654009580612183,-1.9334653615951538
1733902858807482000,0.199482177734375,-1.4300564527511597,0.858096182346344,-1.8721295595169067
1733902858817508900,0.2095087890625,-1.5668138265609741,0.453799843788147,-1.8135112524032593
1733902858827534800,0.219534912109375,-1.6362498998641968,-0.12713895738124847,-1.7669764757156372
1733902858837561900,0.229561767578125,-1.674862265586853,-0.7230167388916016,-1.6904287338256836
1733902858847589000,0.239589111328125,-1.6938166618347168,-1.2567579746246338,-1.596192717552185
1733902858857615000,0.249614990234375,-1.5828595161437988,-1.5980404615402222,-1.519601821899414
1733902858867641900,0.259641845703125,-1.4552758932113647,-1.6307991743087769,-1.4151180982589722
1733902858877668900,0.2696689453125,-1.3208695650100708,-1.3111639022827148,-1.2731958627700806
1733902858887694800,0.27969482421875,-1.1528948545455933,-1.0010579824447632,-1.1547958850860596
1733902858897722000,0.28972216796875,-1.0714116096496582,-0.8711404800415039,-1.1209651231765747
1733902858907748900,0.299748779296875,-1.053083062171936,-0.9677281975746155,-1.1370289325714111
1733902858917774800,0.30977490234375,-1.0816606283187866,-1.0506337881088257,-1.131528615951538
1733902858927801900,0.3198017578125,-1.126387119293213,-1.1189059019088745,-1.1820909976959229
1733902858937829000,0.3298291015625,-1.100297212600708,-1.1730564832687378,-1.268833875656128
1733902858947855000,0.339855224609375,-1.0259901285171509,-1.1247175931930542,-1.3055880069732666
1733902858957881900,0.3498818359375,-0.9980184435844421,-1.004067063331604,-1.3291114568710327
1733902858967908900,0.359908935546875,-1.0045346021652222,-0.7864695191383362,-1.3586641550064087
1733902858977934800,0.369934814453125,-1.0008938312530518,-0.5069092512130737,-1.3903454542160034
1733902858987962000,0.379962158203125,-0.9859862923622131,-0.2973320484161377,-1.434739589691162
1733902858997988900,0.38998876953125,-0.9542043805122375,-0.16231189668178558,-1.437059998512268
1733902859008016000,0.400015869140625,-0.9533748030662537,-0.021290719509124756,-1.358526587486267
1733902859018041900,0.410041748046875,-0.962835431098938,0.14651133120059967,-1.219951868057251
1733902859028068900,0.42006884765625,-0.9131806492805481,0.34917938709259033,-1.0919573307037354
1733902859038096000,0.430095947265625,-0.8403274416923523,0.558110237121582,-1.0607675313949585
1733902859048121900,0.440121826171875,-0.7628871202468872,0.7578789591789246,-1.0896097421646118
1733902859058148900,0.45014892578125,-0.6885859966278076,0.8476125597953796,-1.1287119388580322
1733902859068176000,0.46017578125,-0.6142358183860779,0.7714411020278931,-1.144882082939148
1733902859078202000,0.4702021484375,-0.5425544381141663,0.5512693524360657,-1.1310474872589111
1733902859088228900,0.480228759765625,-0.4980287551879883,0.30713942646980286,-1.0891973972320557
1733902859098256000,0.490255859375,-0.4595564901828766,0.1195404976606369,-1.0563923120498657
1733902859108281900,0.50028173828125,-0.43122345209121704,-0.02830403670668602,-1.024539828300476
1733902859118308900,0.510308837890625,-0.39913210272789,-0.08333399891853333,-0.9905321002006531
1733902859128336000,0.5203359375,-0.3526735305786133,-0.06266399472951889,-0.9053412079811096
1733902859138361900,0.53036181640625,-0.2746088206768036,-0.056006092578172684,-0.8074128031730652
1733902859148388900,0.540388916015625,-0.19000978767871857,-0.07046838849782944,-0.728605329990387
1733902859158416000,0.550415771484375,-0.10597985982894897,-0.0874798595905304,-0.6802127957344055
1733902859168442000,0.560442138671875,-0.03386196121573448,-0.1329667866230011,-0.649628221988678
1733902859178468900,0.57046875,0.013879198580980301,-0.20097219944000244,-0.6121468544006348
1733902859188496000,0.580495849609375,-0.022753635421395302,-0.21400347352027893,-0.5561707019805908
1733902859198521900,0.59052197265625,-0.17748835682868958,-0.1717071533203125,-0.5020792484283447
1733902859208548900,0.600548828125,-0.33316168189048767,-0.15474116802215576,-0.4637538492679596
1733902859218576000,0.610575927734375,-0.4459502696990967,-0.1798529177904129,-0.44192230701446533
1733902859228601900,0.620601806640625,-0.4753226339817047,-0.20584610104560852,-0.3889307677745819
1733902859238628900,0.63062890625,-0.4203139543533325,-0.266213595867157,-0.28730109333992004
1733902859248656000,0.64065576171875,-0.3094457685947418,-0.38874855637550354,-0.15257708728313446
1733902859258682000,0.65068212890625,-0.26713401079177856,-0.4705083966255188,-0.02069629170000553
1733902859268708900,0.660708984375,-0.3304694592952728,-0.2936544418334961,-0.017711050808429718
1733902859278736000,0.67073583984375,-0.4134247899055481,-0.5890964865684509,-0.2111116647720337
1733902859288761900,0.680761962890625,-0.4674079716205597,-1.3839324712753296,-0.4745367467403412
1733902859298788900,0.690788818359375,-0.5062454342842102,-1.936053991317749,-0.6644558310508728
1733902859308816000,0.70081591796875,-0.4874475598335266,-1.9770195484161377,-0.8424345850944519
1733902859318841900,0.710841796875,-0.45489388704299927,-1.9965373277664185,-1.091693639755249
1733902859328868900,0.720868896484375,-0.504103422164917,-1.8633023500442505,-1.3795406818389893
1733902859338896000,0.730895751953125,-0.5775134563446045,-1.6175684928894043,-1.636978030204773
1733902859348922000,0.740922119140625,-0.6243674755096436,-1.2665374279022217,-1.8418774604797363
1733902859358948900,0.750948974609375,-0.6364856362342834,-0.9721335768699646,-2.1145987510681152
1733902859368976000,0.760975830078125,-0.9278115034103394,-0.20191627740859985,-2.5477354526519775
1733902859379001900,0.771001953125,-1.1797840595245361,0.7454614639282227,-2.4146509170532227
1733902859389028900,0.78102880859375,-0.7345912456512451,0.8596444129943848,-2.3621602058410645
1733902859399056000,0.791055908203125,0.04095058515667915,0.07513681799173355,-2.100111246109009
1733902859409081900,0.801081787109375,0.7633669972419739,-1.565921664237976,-1.7422441244125366
1733902859419108900,0.81110888671875,0.8294099569320679,-3.010439395904541,-1.7818986177444458
1733902859429136000,0.821135986328125,0.9986383318901062,-3.915926218032837,-1.3265783786773682
1733902859439162000,0.831162109375,1.24406898021698,-4.320681095123291,-0.38008078932762146
1733902859449188900,0.84118896484375,1.2723438739776611,-4.435770034790039,0.7138193845748901
1733902859459216100,0.851216064453125,1.2415196895599365,-5.047757625579834,1.8681775331497192
1733902859469242000,0.8612421875,1.1519789695739746,-5.5587544441223145,2.9380252361297607
1733902859479269000,0.87126904296875,1.0599225759506226,-5.575178146362305,3.766328811645508
1733902859489296000,0.8812958984375,0.9941132068634033,-5.418221950531006,4.181272983551025
1733902859499321900,0.89132177734375,0.905674159526825,-4.944916725158691,4.232385158538818
1733902859509349000,0.90134912109375,0.8805803656578064,-4.370757102966309,4.1025071144104
1733902859519376100,0.911376220703125,0.9471902847290039,-3.7833540439605713,3.9225316047668457
1733902859529403000,0.92140283203125,1.1102105379104614,-3.308184862136841,3.7799885272979736
1733902859539428900,0.931428955078125,1.3097615242004395,-3.005413770675659,3.723238706588745
1733902859549456100,0.9414560546875,1.47757887840271,-2.8100554943084717,3.740626573562622
1733902859559483100,0.951483154296875,1.6139825582504272,-2.8448598384857178,3.8563547134399414
1733902859569509000,0.961509033203125,1.6699414253234863,-3.0615665912628174,4.044190883636475
1733902859579536000,0.971535888671875,1.6170861721038818,-3.3089041709899902,4.320092678070068
1733902859589563100,0.981563232421875,1.4528130292892456,-3.6080706119537354,4.594935417175293
1733902859599589000,0.991589111328125,1.197840929031372,-3.7505624294281006,4.815749645233154
1733902859609616100,1.0016162109375,0.8767232298851013,-3.5826051235198975,4.98449182510376
1733902859619643000,1.011642822265625,0.5218508839607239,-3.378389835357666,5.079257965087891
1733902859629668900,1.0216689453125,0.21650390326976776,-2.876260757446289,4.9890265464782715
1733902859639696100,1.031696044921875,1.2005925178527832,-0.9465238451957703,3.2552976608276367
1733902859649723100,1.04172314453125,1.8583106994628906,-1.693303108215332,2.0926759243011475
1733902859659749000,1.0517490234375,1.8073481321334839,-1.1509552001953125,1.769875168800354
1733902859669776000,1.06177587890625,1.5807934999465942,-0.5011410117149353,1.8419232368469238
1733902859679803100,1.07180322265625,1.3787351846694946,-0.1323014795780182,2.0295276641845703
1733902859689829000,1.0818291015625,1.2313839197158813,0.20651283860206604,2.1782212257385254
1733902859699856100,1.091856201171875,1.1468064785003662,0.4266079068183899,2.4030520915985107
1733902859709883000,1.1018828125,1.062726616859436,0.5512714982032776,2.740511894226074
1733902859719908900,1.111908935546875,1.1541471481323242,0.20395776629447937,3.1922519207000732
1733902859729936100,1.12193603515625,1.1005830764770508,-0.34207049012184143,3.3424439430236816
1733902859739963100,1.131963134765625,1.0229716300964355,-0.9867797493934631,3.3688502311706543
1733902859749989000,1.141989013671875,1.032212495803833,-1.430024266242981,3.326193332672119
1733902859760016000,1.152015869140625,1.0051486492156982,-1.4687186479568481,3.15773606300354
1733902859770043100,1.162043212890625,0.9303122758865356,-1.4089577198028564,2.956210136413574
1733902859780069000,1.172069091796875,0.7944915890693665,-1.378720760345459,2.783290147781372
1733902859790096100,1.18209619140625,0.5452301502227783,-1.0966516733169556,2.744879722595215
1733902859800123000,1.192122802734375,0.2252899706363678,-0.6389237642288208,2.8081343173980713
1733902859810148900,1.20214892578125,-0.02587416209280491,-0.3073100745677948,2.815671920776367
1733902859820176100,1.212176025390625,0.122477225959301,0.15450924634933472,2.601182699203491
1733902859830203100,1.222203125,0.8611472249031067,0.4774256646633148,2.2038421630859375
1733902859840229000,1.23222900390625,1.4678006172180176,-0.02499803900718689,2.1471498012542725
1733902859850256000,1.242255859375,1.5181925296783447,-0.6503554582595825,2.4563515186309814
1733902859860283100,1.252283203125,1.2306265830993652,-1.2823188304901123,2.855029821395874
1733902859870309000,1.26230908203125,0.7621708512306213,-1.216129183769226,3.1059091091156006
1733902859880336100,1.272336181640625,0.3529905378818512,-0.8104344010353088,3.178677797317505
1733902859890363000,1.28236279296875,0.1599396914243698,-0.8274726867675781,3.0908143520355225
1733902859900388900,1.292388916015625,0.148790642619133,0.3844519853591919,2.9657819271087646
1733902859910416100,1.302416015625,0.35291534662246704,0.9848206043243408,2.584174633026123
1733902859920443100,1.312443115234375,0.6212916970252991,1.5843883752822876,2.07771897315979
1733902859930469000,1.32246923828125,0.5873386263847351,1.7116461992263794,1.9389972686767578
1733902859940496000,1.332495849609375,0.3759251832962036,1.0173097848892212,2.190397024154663
1733902859950523100,1.342523193359375,0.08115138113498688,0.5554832220077515,2.7595674991607666
1733902859960550100,1.352550048828125,-0.2797572612762451,0.7315418720245361,3.0219221115112305
1733902859970576100,1.362576171875,-0.7528668642044067,0.6997731328010559,2.792073965072632
1733902859980603000,1.372602783203125,-1.4370883703231812,0.09657515585422516,2.070524215698242
1733902859990628900,1.38262890625,-2.0686264038085938,-0.8257248401641846,1.0561983585357666
1733902860000656100,1.39265625,-2.370910167694092,-1.5928879976272583,-0.04589030519127846
1733902860010683100,1.40268310546875,-2.3551101684570312,-2.4350171089172363,-1.0805587768554688
1733902860020710000,1.4127099609375,-2.1298394203186035,-3.449932336807251,-1.9612419605255127
1733902860030736000,1.42273583984375,-1.7221460342407227,-4.279522895812988,-2.5909476280212402
1733902860040763100,1.43276318359375,-1.2600023746490479,-4.568723678588867,-2.6764700412750244
1733902860050790100,1.4427900390625,-0.8714199662208557,-4.729345321655273,-2.5805602073669434
1733902860060816100,1.452816162109375,-0.570070743560791,-4.810795307159424,-2.6116693019866943
1733902860070843000,1.4628427734375,-0.3478318750858307,-4.639961242675781,-2.6702804565429688
1733902860080870000,1.472869873046875,-0.23613253235816956,-4.232400894165039,-2.5116612911224365
1733902860090896100,1.482896240234375,-0.2579146921634674,-3.7624025344848633,-2.137759208679199
1733902860100923100,1.492923095703125,-0.3929324150085449,-3.199040412902832,-1.6286994218826294
1733902860110950000,1.502949951171875,-0.6116210222244263,-2.567513942718506,-1.0721206665039062
1733902860120976000,1.512975830078125,-0.8529742360115051,-1.877602219581604,-0.5607735514640808
1733902860131003100,1.523003173828125,-1.061504602432251,-1.2809178829193115,-0.16129106283187866
1733902860141030100,1.533030029296875,-1.1922967433929443,-0.771099865436554,0.06029883772134781
1733902860151057000,1.543056884765625,-1.1968580484390259,-0.4112119674682617,0.09852492064237595
1733902860161083000,1.553082763671875,-1.0732144117355347,-0.3237316310405731,0.0038703125901520252
1733902860171110000,1.56310986328125,-0.8567985892295837,-0.3954435884952545,-0.17213991284370422
1733902860181137200,1.57313720703125,-0.5702922344207764,-0.5578618049621582,-0.39809927344322205
1733902860191163100,1.5831630859375,-0.26894038915634155,-0.6734218597412109,-0.6756754517555237
1733902860201190000,1.59318994140625,-0.020497530698776245,-0.7764059901237488,-0.9991965293884277
1733902860211217000,1.603216796875,0.21161232888698578,-0.8180509805679321,-1.2652314901351929
1733902860221243000,1.613242919921875,0.41888749599456787,-0.8970725536346436,-1.420924186706543
1733902860231270100,1.623270263671875,0.5605963468551636,-1.0232940912246704,-1.3834627866744995
1733902860241297000,1.633296875,0.6268981695175171,-1.1580777168273926,-1.2051734924316406
1733902860251324000,1.643323974609375,0.6279738545417786,-1.2365193367004395,-0.9146906733512878
1733902860261350000,1.653349853515625,0.5799293518066406,-1.139202356338501,-0.5795363783836365
1733902860271377200,1.663377197265625,0.517781138420105,-0.9842919111251831,-0.2584797739982605
1733902860281404000,1.67340380859375,0.4765298068523407,-0.7578603625297546,0.09035199135541916
1733902860291430000,1.683429931640625,0.4837367832660675,-0.5493718385696411,0.49458828568458557
1733902860301457000,1.693456787109375,0.49409011006355286,-0.3538287281990051,0.9809761047363281
1733902860311484200,1.703484130859375,0.47770804166793823,-0.10600247979164124,1.4575047492980957
1733902860321511000,1.713510986328125,0.4306414723396301,0.20923110842704773,1.863132119178772
1733902860331537000,1.723536865234375,0.38830822706222534,0.47408685088157654,2.15792179107666
1733902860341564000,1.73356396484375,0.38465091586112976,0.6072462201118469,2.381152868270874
1733902860351591200,1.743591064453125,0.3967444598674774,0.6080977320671082,2.5205960273742676
1733902860361617200,1.7536171875,0.42648395895957947,0.5119307041168213,2.530323028564453
1733902860371644000,1.763643798828125,0.49778804183006287,0.44964703917503357,2.4696035385131836
1733902860381671000,1.7736708984375,0.5574766993522644,0.3486272096633911,2.3504092693328857
1733902860391698200,1.7836982421875,0.620845377445221,0.3009066581726074,2.182224750518799
1733902860401724200,1.79372412109375,0.7153626084327698,0.2707974910736084,2.0115599632263184
1733902860411751000,1.8037509765625,0.8096044063568115,0.18025663495063782,1.8022650480270386
1733902860421778000,1.81377783203125,0.8599967360496521,0.0715235024690628,1.5510064363479614
1733902860431804000,1.823803955078125,0.8009539842605591,-0.03664666786789894,1.3236130475997925
1733902860441831400,1.83383154296875,0.6978097558021545,-0.3449709415435791,0.8911390900611877
1733902860451858200,1.843858154296875,0.6154902577400208,-0.5711886882781982,0.2345469743013382
1733902860461885400,1.853885498046875,0.6039263010025024,-0.6366872787475586,-0.15299035608768463
1733902860471911400,1.863911376953125,0.6878182291984558,-0.6081042289733887,-0.1584930121898651
1733902860481938400,1.8739384765625,0.7485889196395874,-0.39495015144348145,-0.001343075418844819
1733902860491965200,1.883965087890625,0.7327827215194702,-0.14012674987316132,0.17846105992794037
1733902860501992400,1.893992431640625,0.8064377307891846,0.20114243030548096,0.3806208074092865
1733902860512018400,1.904018310546875,0.9279643893241882,0.35240045189857483,0.6627254486083984
1733902860522045400,1.91404541015625,1.0170860290527344,0.4057483673095703,0.9340062141418457
1733902860532072200,1.924072265625,0.9792259335517883,0.384319931268692,1.1863584518432617
1733902860542098200,1.93409814453125,0.9071202874183655,0.19560247659683228,1.3939242362976074
1733902860552125400,1.94412548828125,0.8365434408187866,-0.007229802198708057,1.4468269348144531
1733902860562152400,1.95415234375,0.7546323537826538,-0.14437060058116913,1.4384350776672363
1733902860572179200,1.96417919921875,0.6957149505615234,-0.2700478434562683,1.4868396520614624
1733902860582205200,1.974205078125,0.7082616686820984,-0.47999975085258484,1.6590462923049927
1733902860592232400,1.984232421875,0.7044563889503479,-0.5964645743370056,1.872951626777649
1733902860602259500,1.994259521484375,0.5558794736862183,-0.6098152995109558,2.069270610809326
1733902860612286200,2.0042861328125,0.2654499113559723,-0.39392566680908203,2.155980110168457
1733902860622312200,2.014312255859375,0.03699622303247452,-0.40326857566833496,2.1074695587158203
1733902860632339500,2.02433935546875,-0.04085699841380119,-0.6340087652206421,2.007037878036499
1733902860642366500,2.034366455078125,-0.20973870158195496,-0.9811288714408875,1.865902304649353
1733902860652393200,2.044393310546875,-0.45864003896713257,-1.2818620204925537,1.6797466278076172
1733902860662419200,2.054419189453125,-0.8361766934394836,-1.5982773303985596,1.6288748979568481
1733902860672446500,2.064446533203125,-1.392993688583374,-1.8533285856246948,1.8028419017791748
1733902860682473500,2.074473388671875,-2.013782262802124,-1.9394091367721558,2.145275354385376
1733902860692499500,2.08449951171875,-2.5579051971435547,-1.885903239250183,2.5154941082000732
1733902860702526200,2.094526123046875,-3.0103514194488525,-1.5349135398864746,2.6658973693847656
1733902860712553500,2.104553466796875,-3.304168701171875,-1.0692774057388306,2.5656895637512207
1733902860722580500,2.11458056640625,-3.2448015213012695,-0.5987052321434021,2.1509883403778076
1733902860732606500,2.1246064453125,-3.1371846199035645,-0.26550382375717163,1.566467046737671
1733902860742633200,2.13463330078125,-3.065838575363159,-0.07859119772911072,1.0171689987182617
1733902860752660500,2.144660400390625,-3.055421829223633,0.1392669826745987,0.5154736042022705
1733902860762687500,2.1546875,-3.008375644683838,0.5822659730911255,-0.07690873742103577
1733902860772713500,2.16471337890625,-2.911022424697876,1.1339584589004517,-0.4780731499195099
1733902860782740500,2.174740478515625,-2.5556554794311523,1.6606464385986328,-0.3444756865501404
1733902860792767200,2.184767333984375,-1.9679887294769287,1.827133297920227,0.2984302341938019
1733902860802794500,2.19479443359375,-1.470700979232788,2.0098814964294434,1.0185731649398804
1733902860812820500,2.204820556640625,-1.338014841079712,2.200517177581787,1.4272685050964355
1733902860822847500,2.214847412109375,-1.4788148403167725,2.381946086883545,1.4816778898239136
1733902860832874200,2.224874267578125,-1.6381006240844727,2.7365059852600098,1.2974580526351929
1733902860842901500,2.234901611328125,-1.6859480142593384,3.2185568809509277,1.0361387729644775
1733902860852927500,2.244927490234375,-1.7347915172576904,3.7560524940490723,0.7683485150337219
1733902860862954500,2.25495458984375,-1.7749933004379272,4.295905590057373,0.5114602446556091
1733902860872981200,2.264981201171875,-1.7889273166656494,4.790998935699463,0.26197949051856995
1733902860883007200,2.27500732421875,-1.6175565719604492,5.061248302459717,0.04637717083096504
1733902860893034500,2.285034423828125,-1.2784076929092407,4.90140438079834,-0.029998335987329483
1733902860903061500,2.2950615234375,-0.7564469575881958,4.081846237182617,0.19327042996883392
1733902860913088300,2.305088134765625,-0.36641618609428406,1.514076828956604,0.823167622089386
1733902860923114200,2.3151142578125,-0.48450982570648193,-0.9087815284729004,1.8718609809875488
1733902860933141500,2.3251416015625,-0.9601553082466125,-1.9099791049957275,1.7843784093856812
1733902860943168500,2.33516845703125,-1.1413657665252686,-2.501638650894165,0.9135152101516724
1733902860953195300,2.3451953125,-1.0421596765518188,-2.308152198791504,-0.29939067363739014
1733902860963221200,2.35522119140625,-0.7822898030281067,-1.5157477855682373,-1.5160419940948486
1733902860973248500,2.36524853515625,-0.4285675585269928,-0.9740065932273865,-2.2878201007843018
1733902860987662300,2.379662353515625,-0.055165451020002365,-1.0271321535110474,-2.1398422718048096
1733902860997689600,2.389689697265625,-0.15350212156772614,-1.0138602256774902,-1.3953921794891357
1733902861007715600,2.399715576171875,-0.48253992199897766,-0.8141441941261292,-0.7662120461463928
1733902861017742300,2.409742431640625,-0.81365966796875,-0.6532082557678223,-0.46790432929992676
1733902861027769300,2.419769287109375,-1.022841453552246,-0.5500816106796265,-0.44324907660484314
1733902861037796600,2.429796630859375,-1.1780225038528442,-0.5482432842254639,-0.40919265151023865
1733902861047822600,2.439822509765625,-1.1575430631637573,-0.5407081246376038,-0.2172114998102188
1733902861057849300,2.449849365234375,-1.1047589778900146,-0.017038967460393906,-0.021522318944334984
1733902861067876400,2.45987646484375,-1.0230603218078613,0.39978060126304626,0.14366957545280457
1733902861077902300,2.46990234375,-0.8937855362892151,0.25471237301826477,0.22377042472362518
1733902861087929600,2.4799296875,-0.8025254011154175,-0.2890923321247101,0.18439266085624695
1733902861097956400,2.489956298828125,-0.7374648451805115,-1.0976026058197021,0.27138060331344604
1733902861107983400,2.4999833984375,-0.539721667766571,-1.0402376651763916,-0.03945106267929077
1733902861118009300,2.51000927734375,-0.21621200442314148,-0.978486180305481,-0.5829193592071533
1733902861128036600,2.52003662109375,0.0481639988720417,-1.2830740213394165,-0.9977594017982483
1733902861138063400,2.5300634765625,0.4650636613368988,-1.5681580305099487,-1.0167409181594849
1733902861148090400,2.54009033203125,0.8613497614860535,-1.7129827737808228,-0.6734293699264526
1733902861158116400,2.550116455078125,1.0812513828277588,-1.511696219444275,-0.04491109773516655
1733902861168143600,2.5601435546875,1.1639872789382935,-1.2196258306503296,0.49179282784461975
1733902861178170400,2.57017041015625,1.21413254737854,-0.9781258702278137,0.6021000742912292
1733902861188197400,2.580197265625,1.2068918943405151,-0.30128511786460876,0.3886983394622803
1733902861198223400,2.590223388671875,0.9226926565170288,0.3499801456928253,0.24813801050186157
1733902861208250400,2.60025048828125,0.6274817585945129,0.6641844511032104,0.2173832803964615
1733902861218277400,2.61027734375,0.47410014271736145,0.27913424372673035,0.28959137201309204
1733902861228304400,2.620304443359375,0.47513237595558167,-0.7482176423072815,0.46294692158699036
1733902861238330400,2.630330322265625,0.4588233232498169,-1.868666648864746,0.6047367453575134
1733902861248357400,2.640357421875,0.5004088878631592,-2.4697163105010986,0.8131296634674072
1733902861258384400,2.65038427734375,0.3572946786880493,-2.2016963958740234,0.9336223006248474
1733902861268411400,2.660411376953125,0.13643978536128998,-1.408215045928955,0.9275401830673218
1733902861278437400,2.670437255859375,-0.057440102100372314,-0.2963271141052246,0.8296592235565186
1733902861288464400,2.68046435546875,-0.21572960913181305,0.8571071028709412,0.7121762633323669
1733902861298491400,2.690491455078125,-0.2830691933631897,1.7372853755950928,0.6268748044967651
1733902861308518400,2.700518310546875,-0.24784566462039948,2.196068525314331,0.5628441572189331
1733902861318544400,2.71054443359375,-0.11927347630262375,2.3283896446228027,0.5285906195640564
1733902861328571400,2.7205712890625,-0.007614052854478359,2.189831256866455,0.48360639810562134
1733902861338598400,2.730598388671875,0.012635355815291405,1.9568333625793457,0.3666457533836365
1733902861348625400,2.74062548828125,-0.04390168935060501,1.3857393264770508,0.37975355982780457
1733902861358651400,2.7506513671875,0.14252342283725739,-1.1818474531173706,0.9407485127449036
1733902861368678400,2.760678466796875,0.2371862828731537,-1.9916601181030273,0.7625875473022461
1733902861378705400,2.770705322265625,0.3425327241420746,-2.8300435543060303,0.9672052264213562
1733902861388732400,2.780732421875,-0.062439531087875366,-3.087662935256958,0.9419243931770325
1733902861398758400,2.79075830078125,-0.48569560050964355,-2.9642791748046875,0.8282210826873779
1733902861408785400,2.800785400390625,-0.9049919247627258,-2.4034886360168457,0.7799179553985596
1733902861418812400,2.8108125,-1.243983507156372,-1.7945754528045654,0.673067569732666
1733902861428839400,2.82083935546875,-1.2175835371017456,-1.658016562461853,0.5666607022285461
1733902861438865200,2.830865234375,-0.9441778063774109,-2.0079634189605713,0.45067712664604187
1733902861448892200,2.84089208984375,-0.6686972379684448,-2.8888721466064453,0.3485797643661499
1733902861458919200,2.850919189453125,-0.5212358832359314,-3.8450229167938232,0.010343480855226517
1733902861468946200,2.8609462890625,-0.42690086364746094,-4.171159267425537,-0.38675540685653687
1733902861478972200,2.87097216796875,-0.28425174951553345,-4.068890571594238,-1.1673094034194946
1733902861488999200,2.880999267578125,0.12236368656158447,-4.238842010498047,-2.172558546066284
1733902861499026200,2.891026123046875,0.4404764175415039,-3.857614278793335,-3.0949831008911133
1733902861509053200,2.90105322265625,0.6498152613639832,-3.174170970916748,-3.478548765182495
1733902861519079200,2.9110791015625,0.869694709777832,-2.4176900386810303,-3.116520881652832
1733902861529106200,2.921106201171875,0.9854234457015991,-2.2445755004882812,-2.6166090965270996
1733902861539133200,2.93113330078125,1.0066684484481812,-1.8879286050796509,-2.230010509490967
1733902861549160200,2.94116015625,1.066977858543396,-1.2532947063446045,-1.9876621961593628
1733902861559186200,2.951186279296875,1.1450822353363037,-0.6634154319763184,-1.680180311203003
1733902861569213200,2.961213134765625,1.1454641819000244,-0.39392828941345215,-1.4006222486495972
1733902861579240200,2.971240234375,0.9453394412994385,-0.6484347581863403,-1.3285712003707886
1733902861589267200,2.98126708984375,0.6743425726890564,-1.0528349876403809,-1.3484761714935303
1733902861599293200,2.991293212890625,0.31565961241722107,-1.2409430742263794,-1.3826119899749756
1733902861609320200,3.0013203125,-0.04302024841308594,-1.0295735597610474,-1.5388315916061401
1733902861619347200,3.01134716796875,-0.448225736618042,-0.3560973107814789,-1.353749394416809
1733902861629374200,3.021374267578125,-0.5440939664840698,-0.35058775544166565,-1.175497055053711
1733902861639401200,3.031401123046875,-0.4493270218372345,-0.1591319590806961,-0.8447173237800598
1733902861649427200,3.04142724609375,-0.3069104850292206,0.3957059383392334,-0.2872958779335022
1733902861659454200,3.0514541015625,-0.05603750795125961,0.8975433707237244,0.16205529868602753
1733902861669481000,3.06148095703125,0.27694737911224365,1.3191629648208618,0.441665381193161
1733902861679508200,3.07150830078125,0.41832175850868225,1.7840771675109863,0.5248238444328308
1733902861689534200,3.0815341796875,0.5288671851158142,1.6804457902908325,0.4378799498081207
1733902861699561200,3.091561279296875,0.5527876615524292,1.3742252588272095,0.22431406378746033
1733902861709588000,3.101587890625,0.6211632490158081,1.4429593086242676,0.35200172662734985
1733902861719615200,3.111615234375,0.7914807200431824,1.5920370817184448,0.47833123803138733
1733902861729641200,3.12164111328125,0.6987310647964478,1.5902020931243896,0.45813673734664917
1733902861739668200,3.131668212890625,0.3425118029117584,0.6956352591514587,0.34182459115982056
1733902861749695000,3.141695068359375,-0.01075571496039629,-0.002282059518620372,0.3682175874710083
1733902861759722200,3.15172216796875,-0.1039946973323822,-0.13932690024375916,0.5155742168426514
1733902861769748200,3.161748291015625,-0.02720191702246666,0.05553178861737251,0.6586277484893799
1733902861779775200,3.171775146484375,0.03287258371710777,0.2131146341562271,0.6670219898223877
1733902861789802000,3.181802001953125,0.11906233429908752,0.33751675486564636,0.6248337626457214
1733902861799829200,3.191829345703125,0.19956357777118683,0.25316929817199707,0.5521761775016785
1733902861809856300,3.201856201171875,0.19821389019489288,0.1330234408378601,0.4143977761268616
1733902861819882200,3.21188232421875,0.08959538489580154,0.12585850059986115,0.24464108049869537
1733902861829909000,3.221908935546875,-0.14091666042804718,0.11554273217916489,0.11002174019813538
1733902861839936300,3.231936279296875,-0.38955333828926086,0.20636215806007385,0.03929140791296959
1733902861849963300,3.24196337890625,-0.5162292718887329,0.3424217402935028,-0.08654855191707611
1733902861859989200,3.2519892578125,-0.4889185428619385,0.4770853519439697,-0.28723612427711487
1733902861870016000,3.26201611328125,-0.5026471018791199,0.4502987563610077,-0.4801405966281891
1733902861880043000,3.27204296875,-0.5723165273666382,0.2837164103984833,-0.635068953037262
1733902861890070300,3.2820703125,-0.6514635682106018,0.041664913296699524,-0.774712085723877
1733902861900097000,3.292096923828125,-0.675499439239502,-0.21885058283805847,-0.9323859214782715
1733902861910123000,3.302123046875,-0.5424372553825378,-0.38888517022132874,-1.0733625888824463
1733902861920150000,3.31214990234375,-0.3008112907409668,-0.4905523657798767,-1.0801513195037842
1733902861930177300,3.32217724609375,-0.12808720767498016,-0.36805281043052673,-0.8135492205619812
1733902861940204000,3.3322041015625,-0.031402338296175,-0.16600847244262695,-0.42284661531448364
1733902861950230000,3.34222998046875,0.008906200528144836,0.11019781231880188,-0.04700827598571777
1733902861960257000,3.352257080078125,0.07453970611095428,0.3606611490249634,0.23814772069454193
1733902861970284300,3.3622841796875,0.16230444610118866,0.44274431467056274,0.3790193498134613
1733902861980311000,3.37231103515625,0.20739619433879852,0.44820478558540344,0.3984597623348236
1733902861990338000,3.382338134765625,0.19529345631599426,0.39309200644493103,0.3432205021381378
1733902862000364000,3.392364013671875,0.15056005120277405,0.296395480632782,0.2474154233932495
1733902862010391300,3.402391357421875,0.09819751977920532,0.1892232447862625,0.13471363484859467
1733902862020418000,3.41241796875,0.055918775498867035,0.09230084717273712,0.027965882793068886
1733902862030445000,3.422445068359375,0.02875586226582527,0.027215855196118355,-0.05077393725514412
1733902862040472000,3.43247216796875,0.02280355431139469,0.014982480555772781,-0.08999793976545334
1733902862050498300,3.442498291015625,0.02916211634874344,0.04572547972202301,-0.08095943927764893
1733902862060525000,3.452525146484375,0.04419214278459549,0.0978892371058464,-0.04010819271206856
1733902862070552000,3.462552001953125,0.07129939645528793,0.14683467149734497,0.014353183098137379
1733902862080579000,3.4725791015625,0.09932814538478851,0.17321456968784332,0.06003204360604286
1733902862090606300,3.4826064453125,0.12127924710512161,0.16992636024951935,0.08778830617666245
1733902862100632000,3.492632080078125,0.1457245945930481,0.15388859808444977,0.09756255149841309
1733902862110659000,3.5026591796875,0.1708107739686966,0.14416007697582245,0.08957147598266602
1733902862120686000,3.51268603515625,0.19455718994140625,0.13832038640975952,0.07632578909397125
1733902862130713300,3.52271337890625,0.2144656628370285,0.13261696696281433,0.06395620852708817
1733902862140740000,3.532739990234375,0.22429226338863373,0.1263609379529953,0.0534207858145237
1733902862150766000,3.54276611328125,0.226210817694664,0.1231643483042717,0.04548536613583565
1733902862160793000,3.55279296875,0.21624353528022766,0.12199702858924866,0.036526624113321304
1733902862170820400,3.5628203125,0.20422787964344025,0.1179860383272171,0.03114490769803524
1733902862180847000,3.57284716796875,0.19088131189346313,0.10486647486686707,0.029433395713567734
1733902862190874000,3.5828740234375,0.17715057730674744,0.0876920223236084,0.026127347722649574
1733902862200900000,3.592900146484375,0.1603618711233139,0.06232031434774399,0.022652821615338326
1733902862210927400,3.60292724609375,0.14814728498458862,0.04282490909099579,0.011884062550961971
1733902862220954000,3.6129541015625,0.13618376851081848,0.031315937638282776,-0.000002207700163125992
1733902862230981000,3.622981201171875,0.13003745675086975,0.018093878403306007,-0.014568100683391094
1733902862241008000,3.633008056640625,0.12457015365362167,0.004189797677099705,-0.024654362350702286
1733902862251034400,3.643034423828125,0.1142975464463234,-0.00356905534863472,-0.03058655373752117
1733902862261061000,3.65306103515625,0.10302993655204773,-0.006249047815799713,-0.024813449010252953
1733902862271088000,3.663088134765625,0.0914451852440834,-0.0003458854043856263,-0.018405882641673088
1733902862281115100,3.673115234375,0.08163032680749893,0.009754457511007786,-0.014988572336733341
1733902862291142100,3.68314208984375,0.0689169317483902,0.018807873129844666,-0.015694044530391693
1733902862301169200,3.693169189453125,0.05556748807430267,0.025787657126784325,-0.025530774146318436
1733902862311195100,3.703195068359375,0.03961488604545593,0.02131594344973564,-0.04077737033367157
1733902862321222100,3.71322216796875,0.02215290628373623,0.003954432904720306,-0.06708180159330368
1733902862331249200,3.723249267578125,0.007487145252525806,-0.01486000046133995,-0.08695963025093079
1733902862341276200,3.733276123046875,-0.004206222016364336,-0.032003965228796005,-0.10057315975427628
1733902862351303200,3.74330322265625,-0.009113096632063389,-0.04244941845536232,-0.10282193124294281
1733902862361329200,3.7533291015625,-0.005318595562130213,-0.045764461159706116,-0.1009891927242279
1733902862371356200,3.763356201171875,-0.0026666196063160896,-0.049012184143066406,-0.08987156301736832
1733902862381383200,3.773383056640625,0.004899219144135714,-0.04831911623477936,-0.07311677187681198
1733902862391410200,3.78341015625,0.0008698562160134315,-0.046497248113155365,-0.05341709405183792
1733902862401437000,3.79343701171875,-0.006313754245638847,-0.0432702973484993,-0.03177172318100929
1733902862411464200,3.803464111328125,-0.0136699378490448,-0.03478599712252617,-0.017160024493932724
1733902862421490200,3.813490234375,-0.017362162470817566,-0.021700270473957062,-0.015076130628585815
1733902862431517200,3.82351708984375,-0.02130790241062641,-0.014164590276777744,-0.023916227743029594
1733902862441544000,3.8335439453125,-0.02280508354306221,-0.017375510185956955,-0.038318388164043427
1733902862451571000,3.843571044921875,-0.019647106528282166,-0.02673225849866867,-0.05127866193652153
1733902862461598000,3.853597900390625,-0.016762353479862213,-0.035654667764902115,-0.06758703291416168
1733902862471625000,3.863625,-0.010087141767144203,-0.043296609073877335,-0.07902291417121887
1733902862481651000,3.87365087890625,-0.005862418562173843,-0.05051889270544052,-0.08300501108169556
1733902862491678000,3.883677978515625,-0.007849136367440224,-0.05879226699471474,-0.07525680959224701
1733902862501705000,3.893705078125,-0.009284930303692818,-0.06737253069877625,-0.061048392206430435
1733902862511732000,3.90373193359375,-0.004563411697745323,-0.080408975481987,-0.03988025337457657
1733902862521758700,3.9137587890625,0.008982177823781967,-0.08793927729129791,-0.027688395231962204
1733902862531786000,3.923785888671875,0.026196584105491638,-0.08650782704353333,-0.025153864175081253
1733902862541812000,3.93381201171875,0.05042986571788788,-0.07152135670185089,-0.029951144009828568
1733902862551839000,3.9438388671875,0.07329843193292618,-0.051583338528871536,-0.03917260468006134
1733902862561865700,3.95386572265625,0.09076898545026779,-0.03204819932579994,-0.04835500940680504
1733902862571893000,3.96389306640625,0.10159260779619217,-0.016461782157421112,-0.05139128118753433
1733902862581920000,3.973919921875,0.10942880809307098,-0.007226147688925266,-0.04625576734542847
1733902862591946800,3.98394677734375,0.11760364472866058,-0.007946000434458256,-0.02996547520160675
1733902862601974000,3.99397412109375,0.1227617934346199,-0.006715725176036358,-0.014695988036692142
1733902862612000000,4.004,0.12618954479694366,-0.008181795477867126,-0.0038273618556559086
1733902862622027000,4.014027099609375,0.12797194719314575,-0.01066532265394926,0.0002448619343340397
1733902862632053800,4.0240537109375,0.12047700583934784,-0.011802759021520615,0.0023684664629399776
1733902862642080800,4.034080810546875,0.11548669636249542,-0.003914507105946541,0.004699826240539551
1733902862652108000,4.04410791015625,0.11106745153665543,0.01804325543344021,0.012876263819634914
1733902862662134800,4.054134765625,0.10859589278697968,0.05038199946284294,0.025051502510905266
1733902862672161800,4.064161865234375,0.11520373076200485,0.09120932221412659,0.03964349627494812
1733902862682187800,4.074187744140625,0.1237994059920311,0.13369619846343994,0.04846309870481491
1733902862692215000,4.084215087890625,0.13428905606269836,0.16479898989200592,0.04935339465737343
1733902862702241800,4.09424169921875,0.1340043693780899,0.1745261251926422,0.03890354558825493
1733902862712268800,4.104268798828125,0.12296423316001892,0.1640857309103012,0.016245367005467415
1733902862722296000,4.114296142578125,0.09581204503774643,0.1312546730041504,-0.015931162983179092
1733902862732322800,4.12432275390625,0.059737663716077805,0.07456875592470169,-0.04351964592933655
1733902862742349800,4.134349853515625,0.022997504100203514,0.004351033829152584,-0.057072706520557404
1733902862752375800,4.144375732421875,-0.0029725765343755484,-0.06959642469882965,-0.05351738631725311
1733902862762403000,4.154403076171875,-0.01713142916560173,-0.12649106979370117,-0.03924643248319626
1733902862772429800,4.164429931640625,-0.022233780473470688,-0.15833821892738342,-0.022248009219765663
1733902862782456800,4.174456787109375,-0.01975862681865692,-0.16464513540267944,-0.017470799386501312
1733902862792483800,4.18448388671875,-0.019619343802332878,-0.16235721111297607,-0.031751733273267746
1733902862802511000,4.194510986328125,-0.02058071829378605,-0.16604070365428925,-0.0671612024307251
1733902862812537900,4.204537841796875,-0.025121940299868584,-0.1787320077419281,-0.11454283446073532
1733902862822563800,4.214563720703125,-0.029151026159524918,-0.1969195455312729,-0.16149646043777466
1733902862832590800,4.2245908203125,-0.03030870109796524,-0.20478492975234985,-0.20217198133468628
1733902862842618000,4.2346181640625,-0.0304813701659441,-0.18907955288887024,-0.23664192855358124
1733902862852644900,4.244644775390625,-0.03212160989642143,-0.15189889073371887,-0.25805744528770447
1733902862862672000,4.254671875,-0.03859401121735573,-0.1064038872718811,-0.2700338661670685
1733902862872699000,4.264698974609375,-0.0500972680747509,-0.06991565227508545,-0.26657095551490784
1733902862882726000,4.274725830078125,-0.05943756923079491,-0.048430733382701874,-0.25030040740966797
1733902862892753000,4.2847529296875,-0.06976024806499481,-0.04080769792199135,-0.2226938009262085
1733902862902779000,4.29477880859375,-0.07953759282827377,-0.0354124940931797,-0.18876893818378448
1733902862912806000,4.304805908203125,-0.0876850038766861,-0.025910336524248123,-0.15827175974845886
1733902862922833000,4.3148330078125,-0.11063549667596817,-0.02143934555351734,-0.1397901028394699
1733902862932860000,4.32485986328125,-0.14312393963336945,-0.020235329866409302,-0.13347521424293518
1733902862942887000,4.334886962890625,-0.19344991445541382,-0.024824591353535652,-0.1282874196767807
1733902862952914000,4.344913818359375,-0.2461775690317154,-0.027072032913565636,-0.12090674042701721
1733902862962941000,4.35494091796875,-0.29579681158065796,-0.018644442781805992,-0.10230646282434464
1733902862972968000,4.364968017578125,-0.33369678258895874,-0.0023158034309744835,-0.0691961795091629
1733902862982994000,4.374993896484375,-0.3598642945289612,0.026471825316548347,-0.029034219682216644
1733902862993021000,4.38502099609375,-0.3779333233833313,0.0627235695719719,0.00562495831400156
1733902863003048000,4.3950478515625,-0.38326019048690796,0.10063246637582779,0.023916099220514297
1733902863013075000,4.405074951171875,-0.3780939280986786,0.128928542137146,0.01856820657849312
1733902863023101700,4.415101806640625,-0.36484256386756897,0.13875046372413635,0.001826959429308772
1733902863033129000,4.42512890625,-0.3430909514427185,0.12511828541755676,-0.02759777382016182
1733902863043156000,4.435156005859375,-0.3192887008190155,0.08076105266809464,-0.048344314098358154
1733902863053182700,4.4451826171875,-0.29510214924812317,-0.000019282102584838867,-0.053102049976587296
1733902863063210000,4.4552099609375,-0.2722294330596924,-0.10112680494785309,-0.03656339645385742
1733902863073236000,4.465236083984375,-0.25605419278144836,-0.18819379806518555,-0.010786661878228188
1733902863083263000,4.475262939453125,-0.25414979457855225,-0.23463952541351318,0.012162200175225735
1733902863093289700,4.485289794921875,-0.2642383873462677,-0.27726075053215027,0.03537484630942345
1733902863103316700,4.495316650390625,-0.29048997163772583,-0.33279693126678467,0.07314290851354599
1733902863113344000,4.505343994140625,-0.33373862504959106,-0.41588541865348816,0.11828455328941345
1733902863123371000,4.51537109375,-0.3893963098526001,-0.4995228052139282,0.15155065059661865
1733902863133397800,4.525397705078125,-0.45284053683280945,-0.5537083148956299,0.14849920570850372
1733902863143425000,4.535425048828125,-0.5371014475822449,-0.5523003935813904,0.1261397898197174
1733902863153452000,4.5454521484375,-0.5842117071151733,-0.5210311412811279,0.09161376953125
1733902863163478000,4.55547802734375,-0.5859323740005493,-0.43466871976852417,0.05257933959364891
1733902863173504800,4.5655048828125,-0.5303418040275574,-0.3378700017929077,0.03129082918167114
1733902863183532000,4.575531982421875,-0.418319433927536,-0.2885003089904785,0.028024163097143173
1733902863193559000,4.58555908203125,-0.2950403690338135,-0.29404446482658386,0.0367279089987278
1733902863203585800,4.595585693359375,-0.1823607236146927,-0.3059626519680023,0.04460896551609039
1733902863213612800,4.60561279296875,-0.07719488441944122,-0.2944546043872833,0.037694599479436874
1733902863223640000,4.61564013671875,0.0174780935049057,-0.30159878730773926,0.05013236030936241
1733902863233666800,4.625666748046875,0.10703061521053314,-0.34448447823524475,0.07939837127923965
1733902863243692800,4.63569287109375,0.1938370168209076,-0.3915632963180542,0.12334130704402924
1733902863253719800,4.6457197265625,0.26096785068511963,-0.3608455955982208,0.14412540197372437
1733902863263747000,4.6557470703125,0.29254502058029175,-0.31083372235298157,0.14726132154464722
1733902863273773800,4.66577392578125,0.3027880787849426,-0.2968185842037201,0.1453435868024826
1733902863283800800,4.67580078125,0.3069089651107788,-0.34460270404815674,0.15132257342338562
1733902863293828000,4.685828125,0.31710249185562134,-0.44621241092681885,0.17188696563243866
1733902863303854800,4.695854736328125,0.32943299412727356,-0.571692943572998,0.20546330511569977
1733902863313881900,4.7058818359375,0.3364991545677185,-0.6591508984565735,0.24376383423805237
1733902863323908900,4.715908935546875,0.3178142309188843,-0.6453766822814941,0.28067535161972046
1733902863333934800,4.725934814453125,0.29312247037887573,-0.5586414933204651,0.3317526578903198
1733902863343961900,4.7359619140625,0.3050233721733093,-0.4938149154186249,0.39649099111557007
1733902863353988900,4.74598876953125,0.3319554030895233,-0.4549466073513031,0.43877214193344116
1733902863364015900,4.756015869140625,0.3584933578968048,-0.45991766452789307,0.4329472780227661
1733902863374043000,4.76604296875,0.39773237705230713,-0.5144932866096497,0.3835453689098358
1733902863384070000,4.77606982421875,0.4457840323448181,-0.6038725972175598,0.3000846207141876
1733902863394097000,4.786096923828125,0.4736316502094269,-0.6599883437156677,0.19653426110744476
1733902863404124000,4.7961240234375,0.4902842342853546,-0.7017977833747864,0.11209967732429504
1733902863414151000,4.80615087890625,0.5538352131843567,-0.8172090649604797,0.06304824352264404
1733902863424177000,4.816177001953125,0.5987196564674377,-0.8995508551597595,0.02137329988181591
1733902863434204000,4.826203857421875,0.5924942493438721,-0.9331929683685303,-0.012547116726636887
1733902863444231700,4.836231689453125,0.5663004517555237,-0.9325915575027466,-0.02009407989680767
1733902863454258700,4.8462587890625,0.5258395671844482,-0.8991702198982239,0.0087050786241889
1733902863464285700,4.85628564453125,0.4828914701938629,-0.8258647322654724,0.05281420052051544
1733902863474312400,4.8663125,0.4211367666721344,-0.6954907178878784,0.10049037635326385
1733902863484339700,4.876339599609375,0.38595736026763916,-0.5722641944885254,0.15738971531391144
1733902863494366700,4.88636669921875,0.37707385420799255,-0.477068156003952,0.19353626668453217
1733902863504392700,4.896392822265625,0.37437188625335693,-0.4006286859512329,0.19793055951595306
1733902863514419500,4.90641943359375,0.37479400634765625,-0.33210474252700806,0.18535670638084412
1733902863524446700,4.91644677734375,0.3592960238456726,-0.24545884132385254,0.15408623218536377
1733902863534473700,4.9264736328125,0.3277682065963745,-0.12991812825202942,0.10205897688865662
1733902863544500500,4.93650048828125,0.2800934612751007,0.005127414129674435,0.02951638214290142
1733902863554527700,4.94652783203125,0.22507146000862122,0.14263254404067993,-0.05982814356684685
1733902863564554800,4.9565546875,0.1706242561340332,0.2820614278316498,-0.15082435309886932
1733902863574581500,4.96658154296875,0.10048618912696838,0.3889969289302826,-0.22184179723262787
1733902863584607500,4.976607421875,0.02652379684150219,0.4466805160045624,-0.25674161314964294
1733902863594634500,4.986634521484375,-0.05035154148936272,0.47709327936172485,-0.2648320496082306
1733902863604661800,4.996661865234375,-0.1254822164773941,0.5040803551673889,-0.26215270161628723
1733902863614688500,5.0066884765625,-0.18967825174331665,0.5616520047187805,-0.26807743310928345
1733902863624715500,5.016715576171875,-0.23303699493408203,0.6471424102783203,-0.2953433394432068
1733902863634742800,5.02674267578125,-0.2505477964878082,0.757527768611908,-0.34965211153030396
1733902863644769800,5.036769775390625,-0.23683983087539673,0.8794490694999695,-0.4166145324707031
1733902863654796500,5.046796630859375,-0.179103821516037,0.9957948923110962,-0.49869662523269653
1733902863664822500,5.056822509765625,-0.0887240543961525,1.0790057182312012,-0.5885683298110962
1733902863674849800,5.066849853515625,0.01455493364483118,1.086484670639038,-0.6809321045875549
1733902863684876800,5.076876708984375,0.08407045900821686,0.9741813540458679,-0.7575501203536987
1733902863694903600,5.086903564453125,0.10265026986598969,0.7516289353370667,-0.8168312907218933
1733902863704930600,5.0969306640625,0.05611926317214966,0.4753294289112091,-0.8472110033035278
1733902863714957800,5.106957763671875,-0.03985174000263214,0.2103329300880432,-0.8542715311050415
1733902863724984600,5.116984619140625,-0.16590151190757751,0.004139707889407873,-0.8408647179603577
1733902863735011600,5.127011474609375,-0.28953078389167786,-0.11294004321098328,-0.8037293553352356
1733902863745037600,5.13703759765625,-0.3823625147342682,-0.14783364534378052,-0.7397566437721252
1733902863755064800,5.14706494140625,-0.4421935975551605,-0.1655053198337555,-0.6354366540908813
1733902863765091600,5.157091552734375,-0.4864506721496582,-0.15165135264396667,-0.5058068037033081
1733902863775118600,5.16711865234375,-0.5371426343917847,-0.046557433903217316,-0.36397379636764526
1733902863785145900,5.177145751953125,-0.5767064094543457,0.13899362087249756,-0.23274032771587372
1733902863795172600,5.187172607421875,-0.5764219760894775,0.33569177985191345,-0.13892914354801178
1733902863805199600,5.19719970703125,-0.5547212362289429,0.4753578007221222,-0.08801352977752686
1733902863815226600,5.2072265625,-0.526090145111084,0.5256526470184326,-0.06568452715873718
1733902863825252600,5.217252685546875,-0.46960559487342834,0.5123350620269775,-0.07818173617124557
1733902863835279600,5.227279541015625,-0.4068703055381775,0.4546986222267151,-0.1292252093553543
1733902863845306600,5.237306640625,-0.3609921634197235,0.38315334916114807,-0.2028757929801941
1733902863855333600,5.247333740234375,-0.3309626281261444,0.2916948199272156,-0.2740256190299988
1733902863865360600,5.257360595703125,-0.2984618842601776,0.20998360216617584,-0.33549830317497253
1733902863875387600,5.2673876953125,-0.27488014101982117,0.14297527074813843,-0.3672511875629425
1733902863885414700,5.27741455078125,-0.2719995677471161,0.12226136028766632,-0.36772075295448303
1733902863895440600,5.287440673828125,-0.2770891487598419,0.16545704007148743,-0.3452463448047638
1733902863905467600,5.297467529296875,-0.26314449310302734,0.25465819239616394,-0.3205251097679138
1733902863915494700,5.30749462890625,-0.23419007658958435,0.3442913889884949,-0.3045293688774109
1733902863925521700,5.317521728515625,-0.20888632535934448,0.40343785285949707,-0.2939223349094391
1733902863935548400,5.32754833984375,-0.18361054360866547,0.40252411365509033,-0.29653435945510864
1733902863945575700,5.33757568359375,-0.14213237166404724,0.35974711179733276,-0.3184802234172821
1733902863955602700,5.347602783203125,-0.09973565489053726,0.27701976895332336,-0.3489510416984558
1733902863965629700,5.357629638671875,-0.06478305160999298,0.18110135197639465,-0.37475016713142395
1733902863975655700,5.36765576171875,-0.05330829322338104,0.08172443509101868,-0.3657950162887573
1733902863985682700,5.3776826171875,-0.06486783176660538,0.014535984955728054,-0.30561724305152893
1733902863995709700,5.387709716796875,-0.06603003293275833,-0.00846919883042574,-0.2048397660255432
1733902864005736700,5.39773681640625,-0.06665541976690292,0.034137286245822906,-0.09935975819826126
1733902864015763700,5.407763671875,-0.08222159743309021,0.13977237045764923,-0.005942462012171745
1733902864025790700,5.417790771484375,-0.097427599132061,0.24583309888839722,0.06921741366386414
1733902864035817700,5.427817626953125,-0.11935100704431534,0.3245478868484497,0.1198187991976738
1733902864045843700,5.43784375,-0.11936897784471512,0.35553210973739624,0.14672374725341797
1733902864055870500,5.447870361328125,-0.09591931104660034,0.33757492899894714,0.1530974954366684
1733902864065897700,5.457897705078125,-0.062124501913785934,0.28313302993774414,0.14754080772399902
1733902864075924700,5.4679248046875,-0.023509733378887177,0.22535601258277893,0.14879782497882843
1733902864085951500,5.477951416015625,0.016818078234791756,0.1963052600622177,0.1670810729265213
1733902864095978800,5.487978759765625,0.05475959926843643,0.20184756815433502,0.19683949649333954
1733902864106005800,5.498005859375,0.09114754945039749,0.2200135886669159,0.23035737872123718
1733902864116031700,5.50803173828125,0.12222956866025925,0.22924090921878815,0.24753716588020325
1733902864126058500,5.51805859375,0.15120425820350647,0.24369409680366516,0.2459055334329605
1733902864136085800,5.528085693359375,0.17247626185417175,0.2478528916835785,0.2300695776939392
1733902864146112800,5.53811279296875,0.18493793904781342,0.24287883937358856,0.2054942548274994
1733902864156139500,5.548139404296875,0.19125334918498993,0.25180256366729736,0.18158785998821259
1733902864166166500,5.55816650390625,0.20340439677238464,0.2712744474411011,0.1641925573348999
1733902864176193800,5.56819384765625,0.21229882538318634,0.2792341113090515,0.14028935134410858
1733902864186219800,5.5782197265625,0.23371878266334534,0.2690545618534088,0.11853029578924179
1733902864196246500,5.58824658203125,0.25780707597732544,0.2506963014602661,0.10124638676643372
1733902864206273500,5.5982734375,0.29136064648628235,0.24483856558799744,0.08857135474681854
1733902864216300800,5.60830078125,0.30776622891426086,0.23338723182678223,0.05979190766811371
1733902864226327600,5.61832763671875,0.26972416043281555,0.18460094928741455,0.0002454055938869715
1733902864236354600,5.6283544921875,0.2138502448797226,0.14517498016357422,-0.0553496815264225
1733902864246381800,5.6383818359375,0.16964387893676758,0.08829893171787262,-0.0971541479229927
1733902864256407800,5.64840771484375,0.1356094777584076,-0.00010203884448856115,-0.1333875209093094
1733902864266434600,5.6584345703125,0.11871817708015442,-0.07990586012601852,-0.1600717306137085
1733902864276461600,5.668461669921875,0.1190316304564476,-0.12249033898115158,-0.1749556064605713
1733902864286488600,5.678488525390625,0.1148802638053894,-0.10406070202589035,-0.17473623156547546
1733902864296515600,5.688515625,0.09387564659118652,-0.050890423357486725,-0.15734100341796875
1733902864306542600,5.69854248046875,0.08598487079143524,0.01873110979795456,-0.1316232979297638
1733902864316569600,5.708569580078125,0.08400774002075195,0.0927632600069046,-0.10504841804504395
1733902864326595600,5.718595703125,0.09077005088329315,0.10844960063695908,-0.07626113295555115
1733902864336622600,5.72862255859375,0.10779483616352081,0.06825877726078033,-0.06281110644340515
1733902864346649600,5.738649658203125,0.12742075324058533,0.013021070510149002,-0.06429951637983322
1733902864356676600,5.748676513671875,0.14137838780879974,-0.03488946706056595,-0.07367837429046631
1733902864366703900,5.758703857421875,0.1445997804403305,-0.052183881402015686,-0.08505301177501678
1733902864376730600,5.768730712890625,0.1407797485589981,-0.044961657375097275,-0.08827622979879379
1733902864386756600,5.778756591796875,0.1290016621351242,-0.0050430200062692165,-0.07566054165363312
1733902864396783600,5.78878369140625,0.12127076089382172,0.04334954544901848,-0.05462104082107544
1733902864406811000,5.798810791015625,0.11261602491140366,0.0882837250828743,-0.03067948669195175
1733902864416837600,5.808837646484375,0.09407935291528702,0.0974268913269043,-0.006046046037226915
1733902864426864600,5.81886474609375,0.08941789716482162,0.08437983691692352,0.007586312014609575
1733902864436891600,5.8288916015625,0.09174469858407974,0.0729527473449707,0.004302634857594967
1733902864446918100,5.838918212890625,0.0843091532588005,0.06007956340909004,0.003205146174877882
1733902864456944000,5.848944091796875,0.07847842574119568,0.06511560082435608,0.00977037101984024
1733902864466971100,5.85897119140625,0.07446745038032532,0.06759418547153473,0.02500954084098339
1733902864476998100,5.868998046875,0.07006311416625977,0.06422235816717148,0.041648972779512405
1733902864487025200,5.879025146484375,0.06432998925447464,0.06178482249379158,0.046930957585573196
1733902864497052200,5.88905224609375,0.05636899545788765,0.07234878838062286,0.04638846963644028
1733902864507079200,5.8990791015625,0.03599461540579796,0.0813949704170227,0.04520665854215622
1733902864517105200,5.909105224609375,0.014138853177428246,0.09843094646930695,0.04684529826045036
1733902864527132200,5.919132080078125,0.0008048706222325563,0.10537955164909363,0.04393148794770241
1733902864537159200,5.9291591796875,-0.009845643304288387,0.09290210902690887,0.04851771891117096
1733902864547186200,5.939186279296875,-0.028378961607813835,0.05952819436788559,0.048917390406131744
1733902864557213200,5.949213134765625,-0.054372213780879974,0.006995480507612228,0.049455881118774414
1733902864567240200,5.959240234375,-0.07815725356340408,-0.02388191409409046,0.04966798424720764
1733902864577267200,5.96926708984375,-0.08618428558111191,-0.0330067053437233,0.05361985042691231
1733902864587293200,5.979293212890625,-0.07925449311733246,-0.04596376419067383,0.06563040614128113
1733902864597320200,5.9893203125,-0.06518900394439697,-0.05590641126036644,0.06440109014511108
1733902864607347200,5.99934716796875,-0.049073122441768646,-0.06991813331842422,0.03789631277322769
1733902864617374200,6.009374267578125,-0.03826441615819931,-0.09552576392889023,0.017811017110943794
1733902864627401200,6.019401123046875,-0.040803804993629456,-0.12361050397157669,0.006241930648684502
1733902864637428200,6.02942822265625,-0.04500840604305267,-0.13224367797374725,0.01243298128247261
1733902864647454200,6.0394541015625,-0.048310328274965286,-0.111380435526371,0.029969798400998116
1733902864657481200,6.049481201171875,-0.04470547288656235,-0.06774693727493286,0.04809420555830002
1733902864667508200,6.05950830078125,-0.04935726523399353,-0.036330100148916245,0.05579278618097305
1733902864677535200,6.06953515625,-0.04446477070450783,-0.04124123603105545,0.048094652593135834
1733902864687562200,6.079562255859375,-0.032158754765987396,-0.08617185801267624,0.03158606216311455
1733902864697589200,6.08958935546875,-0.020008616149425507,-0.14336004853248596,0.009307119995355606
1733902864707615200,6.099615234375,-0.020151477307081223,-0.17514732480049133,-0.003354752203449607
1733902864717642200,6.109642333984375,-0.02181675098836422,-0.19615541398525238,-0.01165609061717987
1733902864727669200,6.119669189453125,-0.021331090480089188,-0.206787109375,-0.016758816316723824
1733902864737696300,6.1296962890625,-0.01446013618260622,-0.19856618344783783,-0.014840807765722275
1733902864747723000,6.139722900390625,-0.0063764434307813644,-0.1838241070508957,-0.009481511078774929
1733902864757750300,6.149750244140625,-0.0017366840038448572,-0.16163703799247742,-0.009822395630180836
1733902864767777300,6.15977734375,-0.0008514155633747578,-0.14655399322509766,-0.014909505844116211
1733902864777803300,6.16980322265625,-0.0033755595795810223,-0.13265734910964966,-0.02199910581111908
1733902864787830000,6.179830078125,-0.0039094737730920315,-0.12043784558773041,-0.0307393167167902
1733902864797857300,6.189857177734375,-0.008183580823242664,-0.08174291253089905,-0.02936352789402008
1733902864807884300,6.19988427734375,-0.014165806584060192,-0.0320877805352211,-0.011676083318889141
1733902864817911000,6.2099111328125,-0.016818314790725708,-0.008069261908531189,0.005339119117707014
1733902864827938000,6.21993798828125,-0.008845988661050797,-0.034661971032619476,0.001217809272930026
1733902864837964300,6.22996435546875,0.0070842416025698185,-0.07547517865896225,-0.01907920651137829
1733902864847991300,6.2399912109375,0.019116487354040146,-0.1055951714515686,-0.05224666744470596
1733902864858018000,6.25001806640625,0.02131173014640808,-0.11677911132574081,-0.08775592595338821
1733902864868045000,6.260045166015625,0.02536912076175213,-0.12154419720172882,-0.11409374326467514
1733902864878072300,6.270072265625,0.023376278579235077,-0.13270816206932068,-0.13491034507751465
1733902864888099000,6.28009912109375,0.01850232668220997,-0.13350719213485718,-0.15123163163661957
1733902864898125000,6.290125,0.011381566524505615,-0.11091053485870361,-0.15392620861530304
1733902864908152000,6.300152099609375,0.003765667788684368,-0.08676129579544067,-0.14336250722408295
1733902864918179300,6.310179443359375,-0.0004692906513810158,-0.07280074059963226,-0.13487660884857178
1733902864928206000,6.3202060546875,-0.006169695407152176,-0.07219620048999786,-0.1334054321050644
1733902864938233000,6.330233154296875,-0.01209522970020771,-0.10264065861701965,-0.1346328854560852
1733902864948260400,6.34026025390625,-0.022559871897101402,-0.15928927063941956,-0.15144465863704681
1733902864958286300,6.350286376953125,-0.029376765713095665,-0.23390650749206543,-0.1866457760334015
1733902864968313300,6.360313232421875,-0.033701565116643906,-0.2764209508895874,-0.21761678159236908
1733902864978340000,6.370340087890625,-0.029858889058232307,-0.2540813088417053,-0.2165331393480301
1733902864988367000,6.3803671875,-0.021314384415745735,-0.19246456027030945,-0.17997750639915466
1733902864998394400,6.390394287109375,-0.008133335039019585,-0.11399957537651062,-0.12446977198123932
1733902865008421000,6.400421142578125,0.0020147310569882393,-0.05074017867445946,-0.08778415620326996
1733902865018447000,6.410447021484375,0.017076771706342697,0.010911202058196068,-0.07552295923233032
1733902865028474000,6.42047412109375,0.031108368188142776,0.055023953318595886,-0.08932377398014069
1733902865038501400,6.43050146484375,0.044150400906801224,0.011297246441245079,-0.1373181939125061
1733902865048528100,6.440528076171875,0.031534530222415924,-0.08006574213504791,-0.21247917413711548
1733902865058555100,6.45055517578125,-0.00501335971057415,-0.1558031290769577,-0.26693999767303467
1733902865068582400,6.46058251953125,-0.049251213669776917,-0.2111162692308426,-0.24694375693798065
1733902865078608400,6.4706083984375,-0.09110012650489807,-0.20807653665542603,-0.16243019700050354
1733902865088635100,6.48063525390625,-0.11501935869455338,-0.1330200880765915,-0.0731683224439621
1733902865098662100,6.490662109375,-0.10638032853603363,-0.049496956169605255,-0.04436490684747696
1733902865108689400,6.500689453125,-0.07741957157850266,-0.014600168913602829,-0.08855190128087997
1733902865118716200,6.510716064453125,-0.0429883636534214,-0.014304558746516705,-0.1551133543252945
1733902865128743200,6.5207431640625,-0.008694283664226532,-0.06306049227714539,-0.15717849135398865
1733902865138769200,6.53076904296875,0.027144141495227814,-0.13033433258533478,-0.08150290697813034
1733902865148796200,6.540796142578125,0.06621076166629791,-0.14205864071846008,0.021163100376725197
1733902865158823200,6.5508232421875,0.09872262924909592,-0.039648912847042084,0.0885128453373909
1733902865168850200,6.56085009765625,0.10520043969154358,0.14130744338035583,0.07806441932916641
1733902865178877200,6.570877197265625,0.09764265269041061,0.27290594577789307,-0.005718097556382418
1733902865188904200,6.580904296875,0.09274854511022568,0.23857170343399048,-0.1399345099925995
1733902865198930200,6.59093017578125,0.09138181060552597,0.038950465619564056,-0.29478615522384644
1733902865208957200,6.600957275390625,0.08955595642328262,-0.14712825417518616,-0.40899360179901123
1733902865218984200,6.610984130859375,0.08798815310001373,-0.21510277688503265,-0.410200834274292
1733902865229011200,6.62101123046875,0.09595204889774323,-0.1599876433610916,-0.31023892760276794
1733902865239038200,6.6310380859375,0.10805345326662064,-0.024686016142368317,-0.1762147843837738
1733902865249065200,6.641065185546875,0.11971943825483322,0.11977314203977585,-0.06398569792509079
1733902865259091200,6.65109130859375,0.12413469702005386,0.20535488426685333,0.008191295899450779
1733902865269118200,6.6611181640625,0.132730633020401,0.20488914847373962,0.020191360265016556
1733902865279145200,6.671145263671875,0.1343892514705658,0.1334298700094223,-0.01991903968155384
1733902865289172200,6.681172119140625,0.1289997100830078,0.0038016652688384056,-0.10636752843856812
1733902865299199200,6.69119921875,0.11084095388650894,-0.15109311044216156,-0.1958281546831131
1733902865309226200,6.701226318359375,0.08624561131000519,-0.2535911798477173,-0.24786067008972168
1733902865319252200,6.711252197265625,0.046812448650598526,-0.2864881157875061,-0.23788712918758392
1733902865329279200,6.721279296875,0.00970007199794054,-0.22013205289840698,-0.18377137184143066
1733902865339306200,6.73130615234375,-0.0030378270894289017,-0.09577520191669464,-0.11173206567764282
1733902865349333200,6.741333251953125,0.017021305859088898,0.0397002175450325,-0.04086565971374512
1733902865359360300,6.7513603515625,0.07079239189624786,0.15216045081615448,0.0018804725259542465
1733902865369387300,6.76138720703125,0.15354421734809875,0.22092393040657043,0.005516465753316879
1733902865379413200,6.771413330078125,0.24784515798091888,0.23846590518951416,-0.02649366483092308
1733902865389440300,6.781440185546875,0.32730191946029663,0.22081714868545532,-0.1014145091176033
1733902865399467300,6.79146728515625,0.379131019115448,0.1701747328042984,-0.19866915047168732
1733902865409494300,6.801494384765625,0.40608519315719604,0.1191278025507927,-0.29826706647872925
1733902865419521000,6.81152099609375,0.3847990930080414,0.061908721923828125,-0.3610289990901947
1733902865429548300,6.82154833984375,0.3478268086910248,0.018571803346276283,-0.37721580266952515
1733902865439574300,6.83157421875,0.29579421877861023,0.013247345574200153,-0.36413809657096863
1733902865449600800,6.841600830078125,0.24939171969890594,0.0351581797003746,-0.33233264088630676
1733902865459627800,6.851627685546875,0.19599851965904236,0.025651227682828903,-0.28210142254829407
1733902865469654800,6.86165478515625,0.15516217052936554,-0.0010381926549598575,-0.233977273106575
1733902865479681800,6.871681884765625,0.11721612513065338,-0.04620087891817093,-0.19310040771961212
1733902865489707800,6.881707763671875,0.08068736642599106,-0.0970432460308075,-0.16295987367630005
1733902865499734800,6.89173486328125,0.051965706050395966,-0.12230492383241653,-0.13356763124465942
1733902865509761800,6.90176171875,0.03513308987021446,-0.09410390257835388,-0.10547881573438644
1733902865519788800,6.911788818359375,0.05379306152462959,-0.017983296886086464,-0.09114647656679153
1733902865529815600,6.921815673828125,0.10140924155712128,0.08204732835292816,-0.08528173714876175
1733902865539842800,6.9318427734375,0.14282990992069244,0.208218052983284,-0.08469291776418686
1733902865549868800,6.941868896484375,0.17730602622032166,0.3618330955505371,-0.09433340281248093
1733902865559895800,6.951895751953125,0.20789936184883118,0.5001323819160461,-0.11251693218946457
1733902865569922600,6.961922607421875,0.25300049781799316,0.5744455456733704,-0.1559097319841385
1733902865579949800,6.97194970703125,0.2966763377189636,0.508566677570343,-0.19843482971191406
1733902865589976800,6.981976806640625,0.3294421434402466,0.36267730593681335,-0.25098446011543274
1733902865600003800,6.99200390625,0.3375232517719269,0.200809046626091,-0.3114869296550751
1733902865610029800,7.00202978515625,0.3158690333366394,0.10079121589660645,-0.3774870038032532
1733902865620056800,7.012056884765625,0.29490649700164795,0.12455353885889053,-0.4533980190753937
1733902865630083800,7.022083740234375,0.305343359708786,0.17852318286895752,-0.5304923057556152
1733902865640110800,7.03211083984375,0.29547423124313354,0.2265772521495819,-0.5933871269226074
1733902865650137600,7.0421376953125,0.2710447311401367,0.27152320742607117,-0.6291513442993164
1733902865660164900,7.052164794921875,0.23901516199111938,0.3042351007461548,-0.6338765621185303
1733902865670190800,7.06219091796875,0.22057387232780457,0.31458088755607605,-0.6049634218215942
1733902865680217900,7.0722177734375,0.22593241930007935,0.28354281187057495,-0.5488436818122864
1733902865690244600,7.08224462890625,0.24767586588859558,0.2394644021987915,-0.4809361696243286
1733902865700271900,7.09227197265625,0.3089994192123413,0.17568142712116241,-0.4193902313709259
1733902865710299000,7.102298828125,0.3486740291118622,0.1129375472664833,-0.3626093864440918
1733902865720324900,7.112324951171875,0.3587828576564789,0.12136618793010712,-0.3149728775024414
1733902865730351600,7.1223515625,0.35566720366477966,0.20030106604099274,-0.2812471091747284
1733902865740379000,7.13237890625,0.3464111089706421,0.3176143765449524,-0.25340670347213745
1733902865750406000,7.142406005859375,0.34529587626457214,0.45845556259155273,-0.23100140690803528
1733902865760432600,7.1524326171875,0.3502080738544464,0.6010068655014038,-0.21031610667705536
1733902865770460000,7.1624599609375,0.37150076031684875,0.7810930609703064,-0.1910141557455063
1733902865780486000,7.17248583984375,0.39007338881492615,0.8790145516395569,-0.16264882683753967
1733902865790513000,7.182512939453125,0.38629451394081116,0.9149399399757385,-0.12305498868227005
1733902865800539600,7.19253955078125,0.3814944326877594,0.9318196177482605,-0.0786060318350792
1733902865810566700,7.202566650390625,0.36860892176628113,0.9489659070968628,-0.0347987525165081
1733902865820594000,7.212593994140625,0.34864506125450134,0.949181079864502,0.014619131572544575
1733902865830620000,7.222619873046875,0.32764092087745667,0.9490305185317993,0.06368792057037354
1733902865840646700,7.232646728515625,0.2984207272529602,0.9097246527671814,0.10973930358886719
1733902865850673700,7.242673583984375,0.2733386158943176,0.7824507355690002,0.14562813937664032
1733902865860701000,7.252700927734375,0.2494812309741974,0.5917319059371948,0.17524008452892303
1733902865870727700,7.262727783203125,0.2226160615682602,0.40226948261260986,0.1970318704843521
1733902865880754700,7.272754638671875,0.17976339161396027,0.22724628448486328,0.2008037120103836
1733902865890780700,7.28278076171875,0.12674011290073395,0.019825903698801994,0.18777480721473694
1733902865900808000,7.292807861328125,0.07735233008861542,-0.1131792813539505,0.14088904857635498
1733902865910834700,7.302834716796875,0.06559963524341583,-0.14337022602558136,0.10743103176355362
1733902865920861700,7.31286181640625,0.06391944736242294,-0.11548985540866852,0.10862252861261368
1733902865930889000,7.322888916015625,0.051296696066856384,-0.08176857233047485,0.12601575255393982
1733902865940915000,7.3329150390625,0.034819718450307846,-0.0770270824432373,0.1486198604106903
1733902865950941700,7.342941650390625,0.017685290426015854,-0.09246043860912323,0.16884534060955048
1733902865960968700,7.35296875,-0.00034590763971209526,-0.10365504026412964,0.17966577410697937
1733902865970995700,7.36299560546875,-0.022365907207131386,-0.11138424277305603,0.18575623631477356
1733902865981022700,7.373022705078125,-0.049626559019088745,-0.10913227498531342,0.1970760077238083
1733902865991049700,7.3830498046875,-0.07615768164396286,-0.08007512986660004,0.2232712358236313
1733902866001075700,7.39307568359375,-0.10251844674348831,-0.02522413246333599,0.26968878507614136
1733902866011102700,7.403102783203125,-0.11913612484931946,0.05656002461910248,0.3350663483142853
1733902866021129700,7.413129638671875,-0.13370496034622192,0.15598249435424805,0.41194915771484375
1733902866031156700,7.42315673828125,-0.14704005420207977,0.25288331508636475,0.4871622323989868
1733902866041183700,7.433183837890625,-0.1511104255914688,0.33628684282302856,0.552594780921936
1733902866051209700,7.443209716796875,-0.14458917081356049,0.3990262448787689,0.5905362963676453
1733902866061236700,7.45323681640625,-0.13504226505756378,0.4297258257865906,0.6014611124992371
1733902866071263700,7.463263671875,-0.13180634379386902,0.4111749529838562,0.5859870314598083
1733902866081290800,7.473290771484375,-0.14496740698814392,0.3617402911186218,0.5597271919250488
1733902866091318000,7.483318115234375,-0.1838943064212799,0.2870125472545624,0.5389689207077026
1733902866101344800,7.4933447265625,-0.24143056571483612,0.20090986788272858,0.5344204902648926
1733902866111370800,7.503370849609375,-0.30314069986343384,0.10611394047737122,0.5637696981430054
1733902866121397800,7.513397705078125,-0.35956883430480957,0.014119567349553108,0.616700291633606
1733902866131424800,7.5234248046875,-0.4055430293083191,-0.05759991705417633,0.6665408611297607
1733902866141451800,7.53345166015625,-0.4313051402568817,-0.10015935450792313,0.6928794980049133
1733902866151478800,7.543478759765625,-0.4363587200641632,-0.10868975520133972,0.6792728900909424
1733902866161505800,7.553505859375,-0.4145865738391876,-0.10155434906482697,0.6298531293869019
1733902866171531800,7.56353173828125,-0.3721587657928467,-0.08522172272205353,0.5541715621948242
1733902866181558800,7.573558837890625,-0.3197253942489624,-0.05080249905586243,0.46712106466293335
1733902866191585800,7.583585693359375,-0.2615455090999603,-0.03074236959218979,0.38323864340782166
1733902866201612800,7.59361279296875,-0.2072923630475998,-0.023121202364563942,0.31934061646461487
1733902866211639800,7.603639892578125,-0.15574176609516144,-0.038609232753515244,0.28632041811943054
1733902866221665800,7.613665771484375,-0.1056722030043602,-0.06788376718759537,0.27696552872657776
1733902866231692800,7.62369287109375,-0.06671177595853806,-0.10839752107858658,0.28291022777557373
1733902866241719800,7.6337197265625,-0.04558119177818298,-0.15944473445415497,0.29601484537124634
1733902866251746600,7.64374658203125,-0.05076184496283531,-0.20514732599258423,0.3124196231365204
1733902866261773800,7.65377392578125,-0.07638544589281082,-0.2358996421098709,0.33869439363479614
1733902866271799800,7.6637998046875,-0.11318489909172058,-0.24405071139335632,0.37517523765563965
1733902866281826800,7.673826904296875,-0.1421382576227188,-0.22142022848129272,0.42771703004837036
1733902866291853600,7.683853515625,-0.15794995427131653,-0.16736926138401031,0.4835561215877533
1733902866301880800,7.693880859375,-0.15736432373523712,-0.09222205728292465,0.5228875279426575
1733902866311907800,7.703907958984375,-0.1430860161781311,-0.0060646627098321915,0.5344946980476379
1733902866321934600,7.7139345703125,-0.1237591877579689,0.06200280413031578,0.49748390913009644
1733902866331960600,7.723960693359375,-0.09326476603746414,0.050234753638505936,0.42042550444602966
1733902866341987800,7.73398779296875,-0.0555322989821434,-0.05605440214276314,0.3116936981678009
1733902866352014800,7.744014892578125,-0.02679060585796833,-0.22043195366859436,0.19336554408073425
1733902866362041600,7.75404150390625,-0.009045431390404701,-0.39928585290908813,0.08986259251832962
1733902866372068900,7.76406884765625,-0.0004885289818048477,-0.5231912732124329,0.01999448984861374
1733902866382094800,7.7740947265625,0.005293726921081543,-0.5596480965614319,-0.0003169069532305002
1733902866392121900,7.784121826171875,0.016305506229400635,-0.5061613321304321,0.034463003277778625
1733902866402148600,7.794148681640625,0.03553272783756256,-0.3920017182826996,0.11851342767477036
1733902866412175600,7.804175537109375,0.05322951450943947,-0.24725188314914703,0.23481430113315582
1733902866422203000,7.814202880859375,0.08044649660587311,-0.09439922124147415,0.3432811200618744
1733902866432229600,7.824229736328125,0.10768647491931915,0.010459451004862785,0.41077402234077454
1733902866442255600,7.834255615234375,0.11882514506578445,0.030789757147431374,0.43265268206596375
1733902866452283600,7.84428369140625,0.11907003074884415,0.0050864676013588905,0.41848212480545044
1733902866462310700,7.854310546875,0.11962956190109253,-0.05403810739517212,0.3759695589542389
1733902866472337700,7.864337646484375,0.12883175909519196,-0.11036475747823715,0.3279343545436859
1733902866482364700,7.87436474609375,0.1422511637210846,-0.15798315405845642,0.2714636027812958
1733902866492390700,7.884390625,0.17220135033130646,-0.2185593545436859,0.21010300517082214
1733902866502417700,7.894417724609375,0.21077777445316315,-0.2773265242576599,0.1532682180404663
1733902866512444700,7.904444580078125,0.2608940303325653,-0.3210872411727905,0.11234243214130402
1733902866522471700,7.9144716796875,0.3140866756439209,-0.3559908866882324,0.09943143278360367
1733902866532498700,7.924498779296875,0.3480774760246277,-0.387543648481369,0.1199287623167038
1733902866542524700,7.934524658203125,0.3627496063709259,-0.4264950454235077,0.18079771101474762
1733902866552551700,7.9445517578125,0.37839195132255554,-0.4533269703388214,0.2590275704860687
1733902866562578700,7.95457861328125,0.4069676697254181,-0.4496094584465027,0.339819073677063
1733902866572605700,7.964605712890625,0.44798290729522705,-0.3848055303096771,0.41357606649398804
1733902866582632400,7.974632568359375,0.4890994727611542,-0.2878342568874359,0.4699234962463379
1733902866592659700,7.98465966796875,0.5189864635467529,-0.1840638518333435,0.5110284686088562
1733902866602685700,7.994685791015625,0.5439932942390442,-0.1210412010550499,0.5327976942062378
1733902866612712700,8.004712646484375,0.5497639775276184,-0.12705574929714203,0.5301120281219482
1733902866622739500,8.014739501953125,0.5345889925956726,-0.1888195127248764,0.489369660615921
1733902866632766700,8.0247666015625,0.4811190366744995,-0.29152610898017883,0.4115464389324188
1733902866642793700,8.034793701171875,0.39257827401161194,-0.4160214364528656,0.29186156392097473
1733902866652819700,8.04481982421875,0.28899312019348145,-0.512574315071106,0.14519530534744263
1733902866662846500,8.054846435546875,0.1867983341217041,-0.5277511477470398,-0.008542864583432674
1733902866672873700,8.064873779296875,0.09610534459352493,-0.4382534325122833,-0.1548689752817154
1733902866682900700,8.074900634765624,0.026035180315375328,-0.3137674331665039,-0.27982398867607117
1733902866692927500,8.084927490234374,-0.02855449914932251,-0.20407705008983612,-0.3884686529636383
1733902866702954500,8.09495458984375,-0.06773359328508377,-0.12958283722400665,-0.4788459539413452
1733902866712980700,8.104980712890624,-0.11999169737100601,-0.10052245855331421,-0.5516889095306396
1733902866723007700,8.1150078125,-0.1888812929391861,-0.12847526371479034,-0.6211729645729065
1733902866733034500,8.125034423828126,-0.2636716365814209,-0.2267823964357376,-0.6953968405723572
1733902866743061500,8.1350615234375,-0.3349364697933197,-0.37915515899658203,-0.7859813570976257
1733902866753088800,8.1450888671875,-0.38909903168678284,-0.5252404808998108,-0.8870911002159119
1733902866763114800,8.15511474609375,-0.42144685983657837,-0.6103689670562744,-0.9494117498397827
1733902866773141500,8.1651416015625,-0.4268072843551636,-0.5707606077194214,-0.9082998037338257
1733902866783168500,8.17516845703125,-0.4026518762111664,-0.40942904353141785,-0.7536675930023193
1733902866793195800,8.18519580078125,-0.34712669253349304,-0.21413040161132812,-0.5191407203674316
1733902866803222800,8.195222900390625,-0.26758554577827454,-0.09217706322669983,-0.2536853849887848
1733902866813248500,8.20524853515625,-0.1861306130886078,-0.07182378321886063,-0.01534678041934967
1733902866823275500,8.215275634765625,-0.13267084956169128,-0.09428035467863083,0.14110594987869263
1733902866833302800,8.225302734375,-0.10987266898155212,-0.0957658663392067,0.2259664535522461
1733902866843329800,8.235329833984375,-0.0814647227525711,-0.03152802586555481,0.27711620926856995
1733902866853356500,8.2453564453125,-0.049747198820114136,0.04767012968659401,0.3136308491230011
1733902866863383600,8.255383544921875,-0.01571066677570343,0.08851209282875061,0.34073248505592346
1733902866873409800,8.265409912109375,0.016147403046488762,0.07368531078100204,0.3663977086544037
1733902866883436800,8.275436767578125,0.048598021268844604,0.04939861223101616,0.38775545358657837
1733902866893463600,8.285463623046875,0.07359129190444946,0.05311758443713188,0.40334266424179077
1733902866903490600,8.295490478515624,0.0928637906908989,0.0771544799208641,0.39895936846733093
1733902866913517800,8.305517822265625,0.10249470174312592,0.09730515629053116,0.3676276206970215
1733902866923543800,8.315543701171874,0.09969012439250946,0.10784035176038742,0.32271286845207214
1733902866933570600,8.325570556640624,0.08861012756824493,0.12204894423484802,0.2845480144023895
1733902866943597600,8.33559765625,0.08346037566661835,0.13634000718593597,0.24590818583965302
1733902866953624800,8.345624755859374,0.07676176726818085,0.14271192252635956,0.2040971964597702
1733902866963651600,8.355651611328126,0.06949106603860855,0.16182675957679749,0.16275028884410858
1733902866973677600,8.365677490234376,0.06129572540521622,0.20024685561656952,0.12971244752407074
1733902866983704600,8.37570458984375,0.05503356456756592,0.21582715213298798,0.09437015652656555
1733902866993731800,8.38573193359375,0.05335845425724983,0.20043663680553436,0.054661087691783905
1733902867003758600,8.395758544921875,0.0536910817027092,0.16477850079536438,0.0008596417028456926
1733902867013785600,8.40578564453125,0.059387631714344025,0.1303873062133789,-0.06143586337566376
1733902867023812600,8.4158125,0.06355973333120346,0.10593575239181519,-0.11621043086051941
1733902867033838800,8.4258388671875,0.07511832565069199,0.08170068264007568,-0.15316350758075714
1733902867043865600,8.435865478515625,0.09318068623542786,0.05816446617245674,-0.16683217883110046
1733902867053892600,8.445892578125,0.10918734967708588,0.02667135000228882,-0.16644012928009033
1733902867063919600,8.455919677734375,0.11506174504756927,0.011382939293980598,-0.15090084075927734
1733902867073946600,8.465946533203125,0.1155107170343399,0.015584209002554417,-0.1302616447210312
1733902867083972600,8.47597265625,0.10907145589590073,0.012593744322657585,-0.09959054738283157
1733902867093999600,8.48599951171875,0.10404849052429199,0.030367569997906685,-0.06186927482485771
1733902867104026600,8.496026611328125,0.10101807862520218,0.061613377183675766,-0.020024623721837997
1733902867114053600,8.5060537109375,0.10104434192180634,0.10537046194076538,0.00903172418475151
1733902867124080600,8.51608056640625,0.09970077872276306,0.11026988178491592,0.015425173565745354
1733902867134106600,8.526106689453124,0.09255996346473694,0.09596487879753113,0.0088268481194973
1733902867144133600,8.536133544921874,0.07710271328687668,0.08516842126846313,0.009421797469258308
1733902867154160600,8.54616064453125,0.05999450758099556,0.10824300348758698,0.02030741609632969
1733902867164187600,8.556187744140624,0.04314069077372551,0.12192738801240921,0.034187547862529755
1733902867174214700,8.566214599609374,0.023350346833467484,0.10986604541540146,0.056744351983070374
1733902867184241400,8.576241455078126,0.0009568897075951099,0.08601824194192886,0.08807031065225601
1733902867194267600,8.586267578125,-0.018936259672045708,0.08424072712659836,0.12756063044071198
1733902867204294700,8.596294677734376,-0.030530864372849464,0.10010544955730438,0.16482411324977875
1733902867214321700,8.60632177734375,-0.047646552324295044,0.08762311190366745,0.199812114238739
1733902867224348700,8.6163486328125,-0.04727210849523544,0.08356791734695435,0.2190646380186081
1733902867234375700,8.626375732421875,-0.043314576148986816,0.06861799955368042,0.2400655746459961
1733902867244401700,8.636401611328125,-0.03203395754098892,0.06526028364896774,0.25077468156814575
1733902867254428700,8.6464287109375,-0.026124753057956696,0.052457310259342194,0.2745651602745056
1733902867264455700,8.65645556640625,-0.026590272784233093,0.04314956068992615,0.29910725355148315
1733902867274482700,8.666482666015625,-0.032470185309648514,0.022310862317681313,0.31745725870132446
1733902867284509700,8.676509765625,-0.04684380069375038,0.0013592410832643509,0.33340001106262207
1733902867294535700,8.68653564453125,-0.06501299142837524,-0.004393414594233036,0.34090474247932434
1733902867304562700,8.696562744140625,-0.06656640768051147,-0.0014785844832658768,0.3405340313911438
1733902867314589700,8.706589599609375,-0.046991851180791855,0.04256951063871384,0.3515675961971283
1733902867324616700,8.71661669921875,-0.023757901042699814,0.12405664473772049,0.3789371848106384
1733902867334643700,8.726643798828125,-0.014554403722286224,0.16551969945430756,0.40951231122016907
1733902867344670500,8.73667041015625,-0.01849774830043316,0.15437836945056915,0.4219106435775757
1733902867354696700,8.74669677734375,-0.02998689003288746,0.09742231667041779,0.4098571240901947
1733902867364723700,8.7567236328125,-0.03602774068713188,0.0435154065489769,0.3660593032836914
1733902867374750700,8.766750732421874,-0.04355274513363838,0.0672435313463211,0.30279460549354553
1733902867384777500,8.776777587890624,-0.043031830340623856,0.12896840274333954,0.21710577607154846
1733902867394804700,8.7868046875,-0.045151133090257645,0.13140170276165009,0.11430728435516357
1733902867404830700,8.796830810546876,-0.05294433981180191,0.12019751965999603,0.020149629563093185
1733902867414857700,8.806857666015626,-0.07192858308553696,0.15034474432468414,-0.040525101125240326
1733902867424884500,8.816884521484376,-0.09979190677404404,0.19196462631225586,-0.08067411184310913
1733902867434911700,8.826911865234376,-0.12577109038829803,0.1882912814617157,-0.1390140950679779
1733902867444938800,8.836938720703126,-0.14581483602523804,0.16516359150409698,-0.2137565165758133
1733902867454965200,8.84696533203125,-0.15086020529270172,0.14305414259433746,-0.28271758556365967
1733902867464991200,8.8569912109375,-0.1445288062095642,0.13208724558353424,-0.32031527161598206
1733902867475018200,8.867018310546875,-0.13251635432243347,0.14121532440185547,-0.3132205903530121
1733902867485045200,8.877045166015625,-0.1206732764840126,0.1464897096157074,-0.29242396354675293
1733902867495072300,8.887072265625,-0.11364826560020447,0.1287977695465088,-0.2948247194290161
1733902867505099300,8.897099365234375,-0.11480593681335449,0.08428541570901871,-0.3346392512321472
1733902867515126300,8.907126220703125,-0.12175833433866501,0.02843807451426983,-0.39605242013931274
1733902867525152300,8.91715234375,-0.1223016157746315,-0.027655554935336113,-0.4643060564994812
1733902867535179300,8.92717919921875,-0.114103302359581,-0.08344988524913788,-0.529413640499115
1733902867545206300,8.937206298828125,-0.10453962534666061,-0.12073227018117905,-0.5827218294143677
1733902867555233300,8.9472333984375,-0.10383624583482742,-0.13728980720043182,-0.6093260049819946
1733902867565260300,8.95726025390625,-0.10712923854589462,-0.0893462598323822,-0.5788189768791199
1733902867575286300,8.967286376953124,-0.10974935442209244,0.02969527430832386,-0.5048418641090393
1733902867585313300,8.977313232421874,-0.10097583383321762,0.13931789994239807,-0.42750418186187744
1733902867595340300,8.98734033203125,-0.0799010768532753,0.18921524286270142,-0.38133788108825684
1733902867605367300,8.9973671875,-0.05390436202287674,0.18085558712482452,-0.374300479888916
1733902867615394300,9.007394287109374,-0.022213410586118698,0.1077338233590126,-0.4086982011795044
1733902867625421300,9.01742138671875,0.007362857460975647,0.004688402637839317,-0.47568097710609436
1733902867635447300,9.027447265625,0.028651101514697075,-0.08580145984888077,-0.5540392398834229
1733902867645474300,9.037474365234376,0.042787156999111176,-0.10966631025075912,-0.6051239967346191
1733902867655501300,9.047501220703126,0.04635348916053772,-0.06499720364809036,-0.5878050923347473
1733902867665528300,9.0575283203125,0.04995514824986458,0.017497140914201736,-0.5043807625770569
1733902867675555300,9.067555419921876,0.051298871636390686,0.11529146134853363,-0.3900977671146393
1733902867685582000,9.07758203125,0.059767454862594604,0.2242152839899063,-0.28956156969070435
1733902867695608300,9.0876083984375,0.08989109843969345,0.31139683723449707,-0.2306765764951706
1733902867705635300,9.09763525390625,0.1418251395225525,0.3219491243362427,-0.22756467759609222
1733902867715662300,9.107662353515625,0.20297172665596008,0.20497991144657135,-0.27534374594688416
1733902867725689000,9.117689208984375,0.24112443625926971,0.01149673666805029,-0.35511156916618347
1733902867735716400,9.12771630859375,0.24898239970207214,-0.13310691714286804,-0.4268413782119751
1733902867745743400,9.137743408203125,0.2335222214460373,-0.17508365213871002,-0.423601359128952
1733902867755770000,9.14777001953125,0.22542357444763184,-0.1306990087032318,-0.3141750395298004
1733902867765796000,9.157796142578125,0.22857064008712769,-0.007065213285386562,-0.1549432873725891
1733902867775823400,9.1678232421875,0.24396075308322906,0.1935558170080185,-0.01632208749651909
1733902867785850400,9.177850341796875,0.2741852104663849,0.43127888441085815,0.06262199580669403
1733902867795877000,9.187877197265625,0.311066597700119,0.6955392360687256,0.06678380072116852
1733902867805904400,9.197904296875,0.3404226005077362,0.9509443640708923,0.008600129745900631
1733902867815931400,9.207931396484375,0.37064284086227417,1.1050809621810913,-0.09444718807935715
1733902867825957400,9.217957275390624,0.40174058079719543,1.086182951927185,-0.21331258118152618
1733902867835984100,9.227984130859374,0.42463409900665283,0.8960750699043274,-0.31722867488861084
1733902867846011100,9.23801123046875,0.4236963987350464,0.6515617370605469,-0.3646153509616852
1733902867856038400,9.248038330078124,0.39629146456718445,0.537556529045105,-0.3200289011001587
1733902867866065200,9.258065185546876,0.3782791793346405,0.6142582297325134,-0.18954703211784363
1733902867876092200,9.268092041015626,0.3735414445400238,0.760838508605957,-0.017628854140639305
1733902867886118100,9.2781181640625,0.3704124987125397,0.9301860332489014,0.12345024198293686
1733902867896145400,9.2881455078125,0.3778271973133087,1.1423537731170654,0.19328729808330536
1733902867906172200,9.298172119140625,0.39909547567367554,1.2599509954452515,0.21946164965629578
1733902867916199200,9.30819921875,0.45836111903190613,1.2940454483032227,0.19419991970062256
1733902867926226400,9.318226318359375,0.5312670469284058,1.2093114852905273,0.14052577316761017
1733902867936253200,9.328253173828125,0.6075757145881653,1.0544582605361938,0.07035600394010544
1733902867946280200,9.3382802734375,0.6615500450134277,0.833434522151947,-0.007653573993593454
1733902867956306200,9.34830615234375,0.6654372811317444,0.596730649471283,-0.1001247763633728
1733902867966333400,9.35833349609375,0.620478093624115,0.4022522568702698,-0.20456570386886597
1733902867976360400,9.3683603515625,0.5296863317489624,0.26357993483543396,-0.2946012318134308
1733902867986387200,9.37838720703125,0.3990689516067505,0.16752266883850098,-0.3372158110141754
1733902867996414200,9.388414306640625,0.2599250376224518,0.1241392195224762,-0.3140379786491394
1733902868006441500,9.39844140625,0.14695560932159424,0.1421179622411728,-0.2445065826177597
1733902868016467500,9.408467529296875,0.07520533353090286,0.18778006732463837,-0.1678657978773117
1733902868026494200,9.418494140625,0.05834966152906418,0.2580893933773041,-0.13101084530353546
1733902868036521200,9.428521240234375,0.10284504294395447,0.36679360270500183,-0.16452984511852264
1733902868046548500,9.438548583984375,0.1846642792224884,0.41162580251693726,-0.2296350747346878
1733902868056575200,9.4485751953125,0.27037355303764343,0.4094166159629822,-0.31217721104621887
1733902868066602200,9.458602294921874,0.3361011743545532,0.36979517340660095,-0.3913841247558594
1733902868076629200,9.468629150390624,0.35954761505126953,0.2951624393463135,-0.4493296444416046
1733902868086655500,9.478655517578124,0.36519885063171387,0.24863621592521667,-0.4993627369403839
1733902868096682200,9.48868212890625,0.34611254930496216,0.21476857364177704,-0.5212787389755249
1733902868106709200,9.498709228515626,0.3163445293903351,0.22762738168239594,-0.5218190550804138
1733902868116736300,9.508736328125,0.28268006443977356,0.24929217994213104,-0.5004205703735352
1733902868126763300,9.51876318359375,0.24321840703487396,0.23784059286117554,-0.44571632146835327
1733902868136790300,9.528790283203126,0.21566073596477509,0.2285095602273941,-0.37470927834510803
1733902868146817300,9.5388173828125,0.2126132845878601,0.22632843255996704,-0.3149828314781189
1733902868156843300,9.54884326171875,0.2208557277917862,0.20922619104385376,-0.2623008191585541
1733902868166870300,9.558870361328125,0.22876319289207458,0.20829994976520538,-0.22846882045269012
1733902868176897300,9.568897216796875,0.24145103991031647,0.2276555895805359,-0.23038455843925476
1733902868186924300,9.57892431640625,0.2528035640716553,0.21707963943481445,-0.2548171877861023
1733902868196951300,9.588951416015625,0.2355535924434662,0.18418818712234497,-0.27851083874702454
1733902868206978300,9.598978271484375,0.20505480468273163,0.16226105391979218,-0.30630359053611755
1733902868217005300,9.60900537109375,0.1448914259672165,0.11376449465751648,-0.31204304099082947
1733902868227031300,9.61903125,0.07001426070928574,0.0701507031917572,-0.2993469536304474
1733902868237058000,9.62905810546875,0.006318248342722654,0.03188310191035271,-0.26358285546302795
1733902868247085300,9.639085205078125,-0.03430747240781784,0.030735012143850327,-0.21333004534244537
1733902868257112300,9.6491123046875,-0.039704445749521255,0.06540932506322861,-0.15596069395542145
1733902868267139000,9.65913916015625,-0.02516917884349823,0.10578790307044983,-0.10322213172912598
1733902868277166300,9.669166259765625,0.0021475369576364756,0.14328224956989288,-0.06513030081987381
1733902868287193300,9.679193359375,0.030743228271603584,0.1711876392364502,-0.044234879314899445
1733902868297219300,9.68921923828125,0.05444752424955368,0.17826595902442932,-0.041933685541152954
1733902868307246300,9.699246337890624,0.08120962977409363,0.1616896390914917,-0.0448562391102314
1733902868317273300,9.7092734375,0.12534736096858978,0.1649470329284668,-0.05101229250431061
1733902868327300400,9.71930029296875,0.19574083387851715,0.1756441593170166,-0.046000488102436066
1733902868337327400,9.729327392578124,0.23368261754512787,0.13201764225959778,-0.021839119493961334
1733902868347354000,9.73935400390625,0.23272813856601715,0.07701831310987473,0.004812996834516525
1733902868357381400,9.74938134765625,0.21287652850151062,0.028126109391450882,0.029286181554198265
1733902868367407400,9.759407470703126,0.17909327149391174,-0.012548616155982018,0.05066923052072525
1733902868377434400,9.769434326171876,0.12535060942173004,-0.05080743134021759,0.07228206843137741
1733902868387461000,9.779461181640626,0.05920008569955826,-0.07643929123878479,0.08200153708457947
1733902868397488400,9.78948828125,0.023557474836707115,-0.07854493707418442,0.07580734044313431
1733902868407515400,9.799515380859376,0.018508121371269226,-0.08523879200220108,0.07474607229232788
1733902868417542100,9.809542236328125,0.013035492971539497,-0.08497415482997894,0.08656320720911026
1733902868427569400,9.8195693359375,0.012011773884296417,-0.08183908462524414,0.09770480543375015
1733902868437596400,9.829596435546875,0.006273241247981787,-0.09693852812051773,0.10591238737106323
1733902868447622400,9.839622314453125,-0.0024438179098069668,-0.12807966768741608,0.11058223992586136
1733902868457649400,9.8496494140625,-0.01311460416764021,-0.16857241094112396,0.1196436956524849
1733902868467676400,9.859676513671875,-0.021419672295451164,-0.20336340367794037,0.13310623168945312
1733902868477703400,9.869703369140625,-0.0301427710801363,-0.2286907583475113,0.1439262181520462
1733902868487730400,9.87973046875,-0.038844116032123566,-0.2468433976173401,0.15192848443984985
1733902868497757400,9.88975732421875,-0.05296562612056732,-0.2649868130683899,0.1577252596616745
1733902868507784400,9.899784423828125,-0.06821755319833755,-0.2836052477359772,0.16135568916797638
1733902868517810400,9.909810546875,-0.08583363890647888,-0.29656514525413513,0.16553667187690735
1733902868527837400,9.91983740234375,-0.09765354543924332,-0.3066965937614441,0.17821703851222992
1733902868537864400,9.929864501953125,-0.10437928885221481,-0.31509658694267273,0.18846985697746277
1733902868547891500,9.939891357421875,-0.10633351653814316,-0.3299967050552368,0.20379050076007843
1733902868557918200,9.949918212890625,-0.10343996435403824,-0.353577196598053,0.21912676095962524
1733902868567945500,9.959945556640625,-0.10345567762851715,-0.37466785311698914,0.23506924510002136
1733902868577972500,9.969972412109374,-0.10446494072675705,-0.3998364210128784,0.24633941054344177
1733902868587998500,9.97999853515625,-0.11063840985298157,-0.4389931261539459,0.25701335072517395
1733902868598025200,9.990025146484374,-0.1267968714237213,-0.4813496470451355,0.2598661184310913
1733902868608052500,10.000052490234374,-0.15411639213562012,-0.5074643492698669,0.2562793791294098
1733902868618079500,10.01007958984375,-0.17600975930690765,-0.5244302153587341,0.2562888264656067
1733902868628106200,10.020106201171876,-0.19236981868743896,-0.5380064845085144,0.25872641801834106
1733902868638133200,10.03013330078125,-0.20172521471977234,-0.5503309965133667,0.26164883375167847
1733902868648160500,10.040160400390626,-0.2104199081659317,-0.5634007453918457,0.26173195242881775
1733902868658187300,10.050187255859376,-0.21520128846168518,-0.5832827091217041,0.2638060748577118
1733902868668213200,10.060213134765625,-0.22130605578422546,-0.6096211075782776,0.2713332176208496
1733902868678240300,10.070240234375,-0.2233760803937912,-0.6234664916992188,0.2885017991065979
1733902868688267500,10.080267578125,-0.22323893010616302,-0.6397314667701721,0.31093865633010864
1733902868698294500,10.09029443359375,-0.22386141121387482,-0.6544727087020874,0.3307333290576935
1733902868708321300,10.1003212890625,-0.2296748161315918,-0.6597473621368408,0.343477338552475
1733902868718348500,10.1103486328125,-0.23431284725666046,-0.6305025815963745,0.344758540391922
1733902868728375600,10.12037548828125,-0.23705004155635834,-0.5724062919616699,0.3356254994869232
1733902868738401500,10.130401611328125,-0.22910885512828827,-0.5020802617073059,0.31946077942848206
1733902868748428300,10.14042822265625,-0.22261181473731995,-0.43602773547172546,0.30410125851631165
1733902868758455600,10.15045556640625,-0.20196747779846191,-0.3673001229763031,0.2847214937210083
1733902868768482600,10.160482666015625,-0.17404130101203918,-0.3121820092201233,0.26242390275001526
1733902868778509300,10.17050927734375,-0.1512189358472824,-0.2984941303730011,0.24303311109542847
1733902868788536300,10.180536376953125,-0.12810322642326355,-0.3237627148628235,0.22204527258872986
1733902868798563600,10.1905634765625,-0.10847892612218857,-0.3680165410041809,0.212527334690094
1733902868808590300,10.20059033203125,-0.08607428520917892,-0.42119109630584717,0.21986407041549683
1733902868818616300,10.2106162109375,-0.06785338371992111,-0.45146480202674866,0.2422417849302292
1733902868828643300,10.220643310546874,-0.045066043734550476,-0.45243391394615173,0.29018905758857727
1733902868838670600,10.230670654296874,-0.017272889614105225,-0.4229511022567749,0.35149815678596497
1733902868848697300,10.240697265625,0.0054776957258582115,-0.3466438353061676,0.41281425952911377
1733902868858724400,10.250724365234374,0.02472284808754921,-0.25396040081977844,0.4650391936302185
1733902868868751400,10.26075146484375,0.04283873364329338,-0.17523549497127533,0.4982277750968933
1733902868878778400,10.2707783203125,0.06507300585508347,-0.14915399253368378,0.5133119821548462
1733902868888804400,10.280804443359376,0.09480559825897217,-0.20218710601329803,0.5178042054176331
1733902868898831400,10.290831298828126,0.12664195895195007,-0.2962650954723358,0.5055213570594788
1733902868908858400,10.3008583984375,0.15491034090518951,-0.3982998728752136,0.4867551028728485
1733902868918885400,10.310885498046876,0.18430308997631073,-0.4752366244792938,0.4649353623390198
1733902868928912400,10.320912353515626,0.20903880894184113,-0.5017347931861877,0.4463518261909485
1733902868938939400,10.330939453125,0.2342991828918457,-0.5157971978187561,0.4382091462612152
1733902868948966400,10.34096630859375,0.25490379333496094,-0.5132419466972351,0.4420797824859619
1733902868958993400,10.350993408203125,0.27255675196647644,-0.4994561970233917,0.45842573046684265
1733902868969019400,10.361019287109375,0.27971240878105164,-0.46846872568130493,0.47879040241241455
1733902868979046400,10.37104638671875,0.27535682916641235,-0.4349120557308197,0.49919602274894714
1733902868989073400,10.381073486328125,0.26411429047584534,-0.39401307702064514,0.507466197013855
1733902868999100400,10.391100341796875,0.24792170524597168,-0.36122360825538635,0.5003169775009155
1733902869009127400,10.40112744140625,0.21725592017173767,-0.3466587960720062,0.47585052251815796
1733902869019154400,10.411154541015625,0.18653574585914612,-0.3532907962799072,0.4467889070510864
1733902869029181400,10.421181396484375,0.1564340442419052,-0.3727491796016693,0.4108825623989105
1733902869039207400,10.43120751953125,0.13112054765224457,-0.39518970251083374,0.3750198185443878
1733902869049234400,10.441234375,0.11037693172693253,-0.41719168424606323,0.3363794982433319
1733902869059261400,10.451261474609375,0.08602891862392426,-0.42062169313430786,0.2975875437259674
1733902869069288400,10.461288330078125,0.06387408077716827,-0.3923322558403015,0.26321306824684143
1733902869079315500,10.4713154296875,0.04983115941286087,-0.36579185724258423,0.22775837779045105
1733902869089342500,10.481342529296874,0.05031958222389221,-0.3530379831790924,0.19843989610671997
1733902869099369200,10.491369140625,0.051864854991436005,-0.3411242961883545,0.167462557554245
1733902869109395500,10.5013955078125,0.05864126980304718,-0.3230379819869995,0.13513551652431488
1733902869119422500,10.51142236328125,0.07206793129444122,-0.31824272871017456,0.11342166364192963
1733902869129449500,10.521449462890626,0.08004729449748993,-0.30872297286987305,0.09681393206119537
1733902869139476200,10.531476318359376,0.07843032479286194,-0.2969762980937958,0.09687574207782745
1733902869149503500,10.54150341796875,0.06495366990566254,-0.2890312969684601,0.1039176732301712
1733902869159530500,10.551530517578126,0.05542626231908798,-0.3126930892467499,0.116246797144413
1733902869169557200,10.56155712890625,0.030059121549129486,-0.3278408944606781,0.12138776481151581
1733902869179583200,10.571583251953125,-0.0028883982449769974,-0.32678738236427307,0.10964225232601166
1733902869189610500,10.581610595703125,-0.03268251195549965,-0.3147437572479248,0.08750925213098526
1733902869199637500,10.591637451171875,-0.04848156496882439,-0.34426310658454895,0.0704110860824585
1733902869209664300,10.601664306640625,-0.061941713094711304,-0.33526137471199036,0.06279950588941574
1733902869219691500,10.61169140625,-0.06782926619052887,-0.28637105226516724,0.06283062696456909
1733902869229718500,10.621718505859375,-0.06345342844724655,-0.2056008279323578,0.06609752774238586
1733902869239745300,10.631745361328125,-0.055678095668554306,-0.12310484796762466,0.07122032344341278
1733902869249771300,10.641771240234375,-0.04269571974873543,-0.06896518170833588,0.0636172667145729
1733902869259798300,10.65179833984375,-0.02331734076142311,-0.08798393607139587,0.045447442680597305
1733902869269825500,10.661825439453125,-0.01831166259944439,-0.11969446390867233,0.009947240352630615
1733902869279852300,10.671852294921875,-0.03241538628935814,-0.11092281341552734,-0.036060430109500885
1733902869289879300,10.68187939453125,-0.04886147007346153,-0.06449086964130402,-0.06062249839305878
1733902869299906600,10.691906494140625,-0.0652923732995987,-0.011135971173644066,-0.06621609628200531
1733902869309932500,10.7019326171875,-0.07696393877267838,0.018897294998168945,-0.05972198024392128
1733902869319959300,10.711959228515624,-0.07277818024158478,0.008890047669410706,-0.04743543639779091
1733902869329986300,10.721986328125,-0.05752679333090782,-0.01905876211822033,-0.027211923152208328
1733902869340013600,10.732013671875,-0.04667474702000618,-0.007225385867059231,-0.0077562490478158
1733902869350040300,10.742040283203124,-0.023234134539961815,0.03059602901339531,0.02138512395322323
1733902869360067300,10.7520673828125,0.004514637403190136,0.07120615988969803,0.05678253993391991
1733902869370094300,10.76209423828125,0.02815578505396843,0.09872806072235107,0.0955541729927063
1733902869380120600,10.77212060546875,0.04125525802373886,0.10388784110546112,0.13046146929264069
1733902869390147300,10.782147216796876,0.03521014750003815,0.09572897851467133,0.1649683117866516
1733902869400174300,10.79217431640625,0.017056062817573547,0.10739170759916306,0.19791175425052643
1733902869410201300,10.802201416015626,-0.005792261566966772,0.13780739903450012,0.22784489393234253
1733902869420228600,10.812228515625,-0.013162972405552864,0.10602164268493652,0.2504388093948364
1733902869430255400,10.82225537109375,-0.02018226683139801,0.029233122244477272,0.24022240936756134
1733902869440282400,10.832282470703126,-0.021382903680205345,-0.03466568514704704,0.2137570083141327
1733902869450308400,10.842308349609375,-0.018900571390986443,-0.05798645317554474,0.1862151324748993
1733902869460335600,10.852335693359375,-0.01105185505002737,-0.08732582628726959,0.1689002811908722
1733902869470362400,10.8623623046875,-0.00948724802583456,-0.11698013544082642,0.1582377851009369
1733902869480389400,10.872389404296875,-0.01549889612942934,-0.14715242385864258,0.14321379363536835
1733902869490416400,10.88241650390625,-0.022475844249129295,-0.14015816152095795,0.11965705454349518
1733902869500443400,10.892443359375,-0.025857865810394287,-0.1566465049982071,0.0995657816529274
1733902869510469400,10.902469482421875,-0.01744946651160717,-0.16135017573833466,0.0830395370721817
1733902869520496400,10.912496337890625,-0.021428944543004036,-0.15140610933303833,0.08236237615346909
1733902869530523400,10.9225234375,-0.030272770673036575,-0.08813126385211945,0.08786926418542862
1733902869540550400,10.93255029296875,-0.03299146145582199,-0.06678926199674606,0.0928659737110138
1733902869550577400,10.942577392578125,-0.02533966489136219,-0.06494315713644028,0.08314943313598633
1733902869560604400,10.9526044921875,-0.018580704927444458,-0.06846185773611069,0.06134874373674393
1733902869570630400,10.96263037109375,-0.011623198166489601,-0.10036200284957886,0.024385662749409676
1733902869580657400,10.972657470703124,-0.007012505549937487,-0.1246359571814537,-0.016444455832242966
1733902869590684400,10.982684326171874,0.004539487883448601,-0.12171127647161484,-0.05069670081138611
1733902869600711400,10.99271142578125,0.013814802281558514,-0.10413491725921631,-0.05937045440077782
1733902869610738400,11.002738525390624,0.023944668471813202,-0.08317823708057404,-0.045629341155290604
1733902869620765400,11.012765380859374,0.03116309642791748,-0.08950929343700409,-0.03369796648621559
1733902869630792400,11.02279248046875,0.03721992298960686,-0.11028142273426056,-0.037024788558483124
1733902869640818400,11.032818359375,0.04170462116599083,-0.11449944972991943,-0.046491578221321106
1733902869660245500,11.05224560546875,0.03611329570412636,-0.14671674370765686,-0.06067667156457901
1733902869670272300,11.062272216796876,0.023740248754620552,-0.12394965440034866,-0.05254417657852173
1733902869680298200,11.07229833984375,0.009378917515277863,-0.08465403318405151,-0.03721955791115761
1733902869690325500,11.082325439453125,-0.003195730037987232,-0.059926047921180725,-0.02495836280286312
1733902869700352500,11.0923525390625,-0.02001848630607128,-0.03199302777647972,-0.029422730207443237
1733902869710379300,11.102379150390625,-0.029176298528909683,-0.01639968901872635,-0.044210199266672134
1733902869720406300,11.11240625,-0.03087029419839382,-0.027156420052051544,-0.0655670166015625
1733902869730433500,11.12243359375,-0.024952217936515808,-0.04730190336704254,-0.08140590041875839
1733902869740459500,11.13245947265625,-0.018215835094451904,-0.061465222388505936,-0.08539672940969467
1733902869750486300,11.142486328125,-0.015552407130599022,-0.06752470880746841,-0.0734545886516571
1733902869760513300,11.15251318359375,-0.011283948086202145,-0.059749290347099304,-0.057896219193935394
1733902869770540500,11.16254052734375,-0.0085800401866436,-0.05948270857334137,-0.0530649796128273
1733902869780567300,11.1725673828125,-0.008843675255775452,-0.06771323084831238,-0.06749501824378967
1733902869790594300,11.18259423828125,-0.012094329111278057,-0.0932641252875328,-0.08724741637706757
1733902869800620300,11.192620361328125,-0.011165407486259937,-0.10680169612169266,-0.10860057920217514
1733902869810647600,11.2026474609375,-0.010158732533454895,-0.10939082503318787,-0.12462694942951202
1733902869820674300,11.21267431640625,-0.01429852657020092,-0.10501018911600113,-0.13480524718761444
1733902869830701300,11.222701416015624,-0.01760777086019516,-0.11604472994804382,-0.1519235074520111
1733902869840728300,11.232728271484374,-0.019368164241313934,-0.12322820723056793,-0.16926948726177216
1733902869850755300,11.24275537109375,-0.024170376360416412,-0.10938110202550888,-0.1714484840631485
1733902869860781300,11.25278125,-0.029377352446317673,-0.09545280784368515,-0.16843293607234955
1733902869870808300,11.262808349609376,-0.03761371225118637,-0.09476570785045624,-0.17505888640880585
1733902869880835300,11.27283544921875,-0.04630251228809357,-0.12058065086603165,-0.20148198306560516
1733902869890862600,11.282862548828126,-0.05580786615610123,-0.15653836727142334,-0.24152180552482605
1733902869900889300,11.292889404296876,-0.06744673103094101,-0.17512941360473633,-0.27889421582221985
1733902869910916400,11.302916259765626,-0.07392700016498566,-0.16333267092704773,-0.30918315052986145
1733902869920942300,11.3129423828125,-0.07839682698249817,-0.13896459341049194,-0.32181185483932495
1733902869930969600,11.322969482421875,-0.07786180078983307,-0.10119138658046722,-0.3210565745830536
1733902869940996400,11.332996337890625,-0.07887015491724014,-0.08449399471282959,-0.3132394850254059
1733902869951023400,11.3430234375,-0.07816042006015778,-0.09520363062620163,-0.3072737455368042
1733902869961050600,11.353050537109375,-0.0853615254163742,-0.09335333853960037,-0.3056594729423523
1733902869971077400,11.363077392578125,-0.09440269321203232,-0.08481737971305847,-0.3172900080680847
1733902869981103400,11.373103271484375,-0.10137023776769638,-0.07253247499465942,-0.33057913184165955
1733902869991130400,11.38313037109375,-0.1056150496006012,-0.05524803325533867,-0.347358375787735
1733902870001157400,11.393157470703125,-0.09679973125457764,-0.03198673203587532,-0.3541221022605896
1733902870011184400,11.403184326171875,-0.08281493932008743,-0.025165576487779617,-0.34880271553993225
1733902870021211400,11.41321142578125,-0.06559939682483673,-0.04251765087246895,-0.3197421133518219
1733902870031238400,11.42323828125,-0.05207693204283714,-0.03933171182870865,-0.2647204101085663
1733902870041264400,11.433264404296875,-0.046284984797239304,0.016842860728502274,-0.2095993161201477
1733902870051291400,11.44329150390625,-0.04327454790472984,0.10025040060281754,-0.18867352604866028
1733902870061318400,11.453318359375,-0.041970279067754745,0.15778015553951263,-0.2035612314939499
1733902870071345400,11.463345458984374,-0.03999900445342064,0.17630909383296967,-0.23724009096622467
1733902870081372400,11.473372314453124,-0.044279664754867554,0.19827882945537567,-0.26928532123565674
1733902870091399400,11.4833994140625,-0.05083077400922775,0.2630474269390106,-0.2764265835285187
1733902870101425400,11.49342529296875,-0.057888228446245193,0.35534414649009705,-0.26713865995407104
1733902870111452400,11.503452392578126,-0.06074100732803345,0.42456796765327454,-0.24814817309379578
1733902870121479400,11.5134794921875,-0.06084420159459114,0.4461463391780853,-0.23222173750400543
1733902870131506400,11.52350634765625,-0.060505181550979614,0.42340749502182007,-0.22580911219120026
1733902870141533400,11.533533447265626,-0.057083919644355774,0.3932463228702545,-0.2239559143781662
1733902870151560200,11.543560302734376,-0.05135253071784973,0.3975715637207031,-0.21781200170516968
1733902870161586200,11.553586181640625,-0.039061181247234344,0.43875905871391296,-0.19942043721675873
1733902870171613400,11.563613525390625,-0.021483253687620163,0.4872368574142456,-0.17648714780807495
1733902870181640400,11.573640380859375,0.0029159116093069315,0.5131739974021912,-0.15079423785209656
1733902870191667200,11.583667236328125,0.032388050109148026,0.5182153582572937,-0.13221628963947296
1733902870201694500,11.593694580078125,0.05406331643462181,0.5179693698883057,-0.12160912901163101
1733902870211720400,11.603720458984375,0.0666789785027504,0.5308252573013306,-0.11537520587444305
1733902870221747500,11.61374755859375,0.06524688750505447,0.5509178042411804,-0.11631803214550018
1733902870231774200,11.623774169921875,0.05106288939714432,0.5632578134536743,-0.11843498051166534
1733902870241801500,11.633801513671875,0.026180917397141457,0.582752525806427,-0.11840546876192093
1733902870251828500,11.643828369140625,0.0011602526064962149,0.6148620247840881,-0.11244158446788788
1733902870261855500,11.65385546875,-0.017254337668418884,0.6495321989059448,-0.10731862485408783
1733902870271881200,11.663881103515624,-0.023204639554023743,0.6728039383888245,-0.10385172069072723
1733902870281908500,11.673908447265624,-0.02080652303993702,0.639157235622406,-0.11151022464036942
1733902870291935500,11.683935546875,-0.0232172179967165,0.5425260066986084,-0.13495641946792603
1733902870301962500,11.69396240234375,-0.03846631199121475,0.40701231360435486,-0.16526010632514954
1733902870311989200,11.7039892578125,-0.05549696087837219,0.30045098066329956,-0.1812308132648468
1733902870322015200,11.71401513671875,-0.0506933331489563,0.2561611235141754,-0.17424260079860687
1733902870332042500,11.72404248046875,-0.03348878398537636,0.27513667941093445,-0.14852099120616913
1733902870342069500,11.734069580078126,-0.011684865690767765,0.3533291518688202,-0.12240885943174362
1733902870352096300,11.74409619140625,0.01503702625632286,0.46201860904693604,-0.10972848534584045
1733902870362123500,11.75412353515625,0.04700823128223419,0.5633513927459717,-0.12294900417327881
1733902870372150500,11.764150634765626,0.0716475322842598,0.6241918206214905,-0.1598939746618271
1733902870382176500,11.774176513671875,0.08677373826503754,0.6118324995040894,-0.20943674445152283
1733902870392203300,11.784203369140625,0.08875886350870132,0.511599063873291,-0.2608826458454132
1733902870402230500,11.79423046875,0.0718853548169136,0.35692310333251953,-0.30706530809402466
1733902870412257500,11.804257568359375,0.04116525501012802,0.19493606686592102,-0.3392125964164734
1733902870422284300,11.8142841796875,0.008143533021211624,0.0610383041203022,-0.3537355065345764
1733902870432310300,11.824310302734375,-0.0029930081218481064,0.01340846624225378,-0.34219416975975037
1733902870442337500,11.834337646484375,0.007858062162995338,0.05279926210641861,-0.31505173444747925
1733902870452364500,11.844364501953125,0.04641770198941231,0.17385458946228027,-0.2886345088481903
1733902870462391300,11.854391357421875,0.09463315457105637,0.28216439485549927,-0.2615280747413635
1733902870472418600,11.86441845703125,0.12963080406188965,0.36521878838539124,-0.2457789182662964
1733902870482445600,11.874445556640625,0.144872784614563,0.4051641821861267,-0.246756449341774
1733902870492471600,11.884471435546875,0.13925963640213013,0.3991033732891083,-0.25439971685409546
1733902870502498300,11.894498291015625,0.1047431081533432,0.3484554588794708,-0.26971694827079773
1733902870512525600,11.904525634765625,0.05179014429450035,0.2941397726535797,-0.2829192876815796
1733902870522552600,11.914552490234374,-0.0018688268028199673,0.2424573004245758,-0.28237682580947876
1733902870532579300,11.924579345703124,-0.0392734594643116,0.20103076100349426,-0.2659728229045868
1733902870542606300,11.9346064453125,-0.0482436828315258,0.18477623164653778,-0.23385632038116455
1733902870552632300,11.94463232421875,-0.02847370319068432,0.16968569159507751,-0.19486072659492493
1733902870562659600,11.95465966796875,0.010445896536111832,0.17480209469795227,-0.1570865511894226
1733902870572686300,11.964686279296876,0.07217530906200409,0.22829514741897583,-0.13765986263751984
1733902870582713300,11.97471337890625,0.17102432250976562,0.30924588441848755,-0.14653299748897552
1733902870592740600,11.98474072265625,0.25505346059799194,0.362594336271286,-0.16394208371639252
1733902870602766600,11.9947666015625,0.31726765632629395,0.3997483253479004,-0.1940101534128189
1733902870612793300,12.00479345703125,0.35982683300971985,0.4225684404373169,-0.2284509539604187
1733902870622820400,12.0148203125,0.37709128856658936,0.4362737834453583,-0.2653387188911438
1733902870632847600,12.02484765625,0.37414610385894775,0.43354856967926025,-0.2914973497390747
1733902870642874400,12.034874267578125,0.3505878150463104,0.3968791663646698,-0.3087098300457001
1733902870652900400,12.044900390625,0.31315281987190247,0.3475622236728668,-0.3200719356536865
1733902870662927400,12.05492724609375,0.2636057436466217,0.30534330010414124,-0.3238885700702667
1733902870672954600,12.06495458984375,0.20957313477993011,0.27858757972717285,-0.32039663195610046
1733902870682981400,12.0749814453125,0.17151260375976562,0.27437469363212585,-0.2902058959007263
1733902870693008400,12.08500830078125,0.15610302984714508,0.2959598898887634,-0.24419793486595154
1733902870703035400,12.095035400390625,0.16380847990512848,0.3300677537918091,-0.18879103660583496
1733902870713061400,12.105061279296875,0.19237273931503296,0.3706979751586914,-0.1307908594608307
1733902870723088400,12.11508837890625,0.23078343272209167,0.40720489621162415,-0.07968935370445251
1733902870733115400,12.125115478515625,0.27572986483573914,0.4412651062011719,-0.04462964087724686
1733902870743142400,12.135142333984374,0.32828930020332336,0.48045751452445984,-0.03302457556128502
1733902870753169700,12.145169677734375,0.36881542205810547,0.5074396133422852,-0.029030101373791695
1733902870763195400,12.1551953125,0.40282756090164185,0.5373761057853699,-0.030775394290685654
1733902870773222400,12.165222412109374,0.43074309825897217,0.567033588886261,-0.03255172073841095
1733902870783249400,12.17524951171875,0.4583725035190582,0.6001506447792053,-0.03243808448314667
1733902870793276700,12.185276611328124,0.47506412863731384,0.6257199645042419,-0.030206622555851936
1733902870803303400,12.195303466796876,0.4716286063194275,0.6379064321517944,-0.018949730321764946
1733902870813329400,12.205329345703126,0.4522022008895874,0.6387916803359985,-0.00395852979272604
1733902870823356400,12.2153564453125,0.420059472322464,0.6495315432548523,0.0021456957329064608
1733902870833383400,12.225383544921876,0.3857840597629547,0.6535518765449524,-0.004122053738683462
1733902870843410400,12.235410400390625,0.3435664176940918,0.5922477841377258,-0.00550620025023818
1733902870853437400,12.2454375,0.29675471782684326,0.5185394883155823,-0.0024816482327878475
1733902870863463400,12.25546337890625,0.2584505081176758,0.4598572254180908,0.0012481650337576866
1733902870873490400,12.265490478515625,0.2237924039363861,0.4186818301677704,0.0010399057064205408
1733902870883517400,12.275517333984375,0.2053544968366623,0.3739939332008362,0.0031477357260882854
1733902870893544400,12.28554443359375,0.19401875138282776,0.32581576704978943,-0.004505123943090439
1733902870903571500,12.295571533203125,0.1759105622768402,0.2757076919078827,-0.02298988215625286
1733902870913598500,12.305598388671875,0.1466251164674759,0.2483176290988922,-0.03975075110793114
1733902870923624400,12.31562451171875,0.1078295037150383,0.23078835010528564,-0.056384891271591187
1733902870933651500,12.3256513671875,0.0829411968588829,0.1918521374464035,-0.06973212212324142
1733902870943678500,12.335678466796875,0.07064934074878693,0.13041414320468903,-0.07807978242635727
1733902870953705500,12.34570556640625,0.06262816488742828,0.059368982911109924,-0.08122684061527252
1733902870963732500,12.355732421875,0.04501663148403168,-0.01939023658633232,-0.07916800677776337
