time,seconds_elapsed,z,y,x
1733751645231113000,0.015113037109375,0.261292975127697,-0.06005567864254117,0.03402560372054576
1733751645241088800,0.0250888671875,0.33035189830660816,-0.06250204888135194,0.009461655828356742
1733751645251065000,0.035065185546875,0.32367870415300126,-0.025441826705262065,-0.00017418752312660217
1733751645261041000,0.045041015625,0.28364363088458777,0.03847016203925013,-0.03634440205693245
1733751645271016000,0.055015869140625,0.14817629903554916,0.0495292431268841,0.02597323016822338
1733751645280992000,0.064991943359375,0.1144619532212615,0.0871141467642039,0.046481180667877195
1733751645290968000,0.074968017578125,0.18021394380927086,0.11136033394411206,0.09080664460659027
1733751645300944000,0.08494384765625,0.16420038211941718,0.16036971791535615,0.08179390158951282
1733751645310919200,0.094919189453125,0.07780366290956735,0.36519495588988066,-0.1040676927179098
1733751645320895000,0.10489501953125,-0.0335863355204463,0.42636356421038507,-0.2596720959275961
1733751645330870800,0.114870849609375,-0.04550532137304544,0.40354200300611553,-0.21579671384394167
1733751645340847000,0.12484716796875,-0.10567337434887886,0.3344264542691409,-0.13626432744562625
1733751645350822000,0.13482177734375,-0.17052753931432962,0.28909290926642717,-0.06833119342625141
1733751645360798000,0.1447978515625,-0.14212211356312035,0.31950719062201677,0.04755144024789333
1733751645370774000,0.15477392578125,-0.2506561380401254,0.336983810601756,0.0949397988885641
1733751645380749800,0.164749755859375,-0.3728212129846215,0.36977687685266136,0.08652794437408447
1733751645390724900,0.174724853515625,-0.43221857384890316,0.2803252270516008,0.08849661409854888
1733751645400701000,0.184700927734375,-0.4187023819327354,0.11377550532706081,0.24568682519495486
1733751645410677000,0.194677001953125,-0.4142538780912757,-0.060002560215815896,0.3998188177645206
1733751645420652800,0.20465283203125,-0.42272272348999973,-0.19803309361636637,0.4053700221508741
1733751645430628000,0.214628173828125,-0.37805560650676484,-0.2571820326775312,0.4332604841172695
1733751645440604000,0.22460400390625,-0.30928894427269693,-0.3308476459342986,0.4480331058353185
1733751645450580000,0.234580078125,-0.18918167864084243,-0.39794410993382334,0.44946050828993317
1733751645460554800,0.2445546875,-0.2211807449698448,-0.46512299151979386,0.4456523481786251
1733751645470531000,0.254531005859375,-0.23553455675393342,-0.5033673819791525,0.3674251991599798
1733751645480507000,0.2645068359375,-0.21034604722261427,-0.4161046205244958,0.2537549808382988
1733751645490483000,0.27448291015625,-0.22213585373759268,-0.34270986009836196,0.2269312713205814
1733751645500458000,0.2844580078125,-0.1472469092309475,-0.31535503937862813,0.23921792144179344
1733751645510433800,0.294433837890625,-0.007841653411090374,-0.2696156169887632,0.27823475757837296
1733751645520410000,0.30441015625,-0.047828211362659925,-0.28785839903540905,0.2815478276491165
1733751645530386000,0.314385986328125,-0.16355623899698257,-0.28061997221447527,0.22910569275021553
1733751645540361000,0.32436083984375,-0.28562925174385306,-0.23217151006162165,0.1294517248213291
1733751645550336800,0.334336669921875,-0.4391419433712959,-0.17186331796273588,0.0009726444244384765
1733751645560313000,0.34431298828125,-0.48223845003694293,-0.09914959860332309,-0.035431378865242
1733751645570289000,0.354288818359375,-0.3961050579383969,-0.037322526374086736,-0.05484276629984378
1733751645580264000,0.364263916015625,-0.2689890825882554,0.057615007492154834,-0.09897533801496028
1733751645590240000,0.374239990234375,-0.1699766274333,0.15902539063431323,-0.1775146217226982
1733751645600215800,0.3842158203125,-0.08877630782276391,0.145346482437104,-0.12875789733827114
1733751645610192100,0.394192138671875,0.14287819262742996,0.044869142361357806,-0.07522562911510466
1733751645620167000,0.4041669921875,0.2014087075293064,-0.114715124264732,-0.004715922605991363
1733751645630143000,0.41414306640625,0.15307020855695008,-0.16265563689544796,-0.010406243202090262
1733751645640118800,0.424118896484375,0.09922288303524256,-0.16344130738042295,0.05299626165032387
1733751645650095000,0.43409521484375,0.016616788280010224,-0.20088914063461125,0.18100714001357554
1733751645660070000,0.44406982421875,-0.07667290531396866,-0.2219765715226531,0.3037082215309143
1733751645670046000,0.4540458984375,-0.2091027691632509,-0.2813824079543352,0.41881987083256245
1733751645680022000,0.46402197265625,-0.05135054026991129,-0.41200566077306866,0.50573359965384
1733751645689997800,0.473997802734375,-0.05740706382989883,-0.4259851593520492,0.5026327110290527
1733751645699972900,0.483972900390625,-0.3847700094535947,-0.4585521617621183,0.4268114541083574
1733751645709949000,0.493948974609375,-0.36853549848943945,-0.5488774525925517,0.3392997593939304
1733751645719925000,0.503925048828125,-0.16449644245654343,-0.5495581283330917,0.28216040658950803
1733751645729900800,0.51390087890625,-0.1069455862417817,-0.47976774907447395,0.14354980827867983
1733751645739876000,0.5238759765625,-0.1336123516321182,-0.2843655154183507,-0.03605097206830978
1733751645749852000,0.533851806640625,-0.18923925404697656,-0.09878339563943445,-0.12256956409215926
1733751645759828000,0.543827880859375,-0.15777210263758898,-0.03463029161542654,-0.03529810787439346
1733751645769804000,0.553803955078125,-0.1651207118347287,-0.1372995887774974,0.21225041953921317
1733751645779779000,0.563779052734375,-0.18500497747808695,-0.20800459866300225,0.36963235381543635
1733751645789755000,0.5737548828125,-0.14916034163683653,-0.24330657899491487,0.27616555008888244
1733751645799731000,0.58373095703125,-0.1923968412950635,-0.33021658148914573,-0.021455460482835767
1733751645809707000,0.59370703125,-0.5922355328038335,-0.43739561116062103,-0.336851781719923
1733751645819681800,0.603681884765625,-1.0532894482538104,-0.5189846378277987,-0.40312312000691886
1733751645829658000,0.613658203125,-1.2571402882382272,-0.7693973955661058,-0.27428748125731944
1733751645839634000,0.623634033203125,-1.324398299475014,-0.9689756727978587,-0.03856500071585178
1733751645849609000,0.63360888671875,-1.185397825063765,-1.2541263472445308,0.3592173427850008
1733751645859585000,0.6435849609375,-0.8912123418986797,-1.5774892634466289,0.8219652026712894
1733751645869560800,0.653560791015625,-0.7520967166751623,-1.7548957486197352,1.1797791083991527
1733751645879537000,0.663536865234375,-0.38629298123717304,-1.977938634199649,1.4281927282094955
1733751645889512000,0.673511962890625,-0.8422539574623107,-2.0187990523763,1.3180734803676604
1733751645899488000,0.683488037109375,-1.11472328338176,-1.9950617645666002,1.370206987708807
1733751645909463800,0.6934638671875,-1.528976284690201,-2.0906172111354766,1.5076362672805785
1733751645919440100,0.703440185546875,-2.0788465477123856,-2.247285151923448,1.3522457990825176
1733751645929415000,0.713414794921875,-2.1661808400332925,-2.2246895814947782,1.2577157500386238
1733751645939391000,0.723390869140625,-2.021226425653696,-2.1542479717858134,1.2786527396053076
1733751645949367000,0.733366943359375,-1.8848115838214754,-2.437075756242871,1.1051479380458593
1733751645959342800,0.7433427734375,-1.7898916586771607,-2.3847924651674925,1.4054898980140684
1733751645969318000,0.75331787109375,-1.7461407797560096,-2.348796730417758,1.6329069070249795
1733751645979293700,0.763293701171875,-1.5440627946630119,-2.545093647891283,1.5356699371099471
1733751645989269500,0.77326953125,-1.0368585379347204,-2.617940272915363,1.455765794789791
1733751645999245300,0.783245361328125,-0.4234218116700649,-2.612603003540635,1.0610405007719994
1733751646009220600,0.793220703125,-0.16871844406574962,-1.7757959133073686,1.2015858665376902
1733751646019196400,0.803196533203125,-0.17874416351765393,-0.8960267564430833,1.6653963872194288
1733751646029172500,0.81317236328125,-0.05769932477474212,-0.8836009901121258,1.162310671725869
1733751646039148500,0.8231484375,-0.1262611120864749,-0.4578749931529164,0.7143062074631452
1733751646049123600,0.83312353515625,-0.5883613217189908,0.196750652590394,0.6969032372415065
1733751646059099400,0.843099365234375,-0.4146794100269675,0.3063762716963887,0.13826339230835438
1733751646069075700,0.85307568359375,-0.41066958986371754,1.0930962657243013,0.4487362856686115
1733751646079051500,0.863051513671875,-0.2584732415318489,1.4351792260959744,0.3995505222171545
1733751646089026600,0.873026611328125,-0.09701660516262053,1.6249632545441388,0.19497487508952616
1733751646099002600,0.883002685546875,-0.047402679426968096,1.825475305494666,-0.042404140487313266
1733751646108978400,0.892978515625,-0.08233136946707964,1.9946563986361026,-0.5084767608821392
1733751646118954500,0.90295458984375,-0.1733689002200961,2.1147727243572474,-0.9575994155198335
1733751646128929300,0.91292919921875,-0.22958266261219976,2.35660287412405,-1.2631184858649969
1733751646138905600,0.922905517578125,-0.2881424036085605,2.594046187108755,-1.5512936226993799
1733751646148881400,0.93288134765625,-0.3688675069227814,2.6350533202797175,-1.608672044956684
1733751646158857500,0.942857421875,-0.39758360605835913,2.7628075935333967,-1.580986165651679
1733751646168832500,0.95283251953125,-0.3635319911137223,2.937660302570462,-1.5417986491233109
1733751646178808600,0.96280859375,-0.23363661417812107,3.1061066516965625,-1.4679939927220345
1733751646188784600,0.97278466796875,-0.0933668504834175,3.2593910875260828,-1.347403035226464
1733751646198759700,0.982759765625,-0.00201338564902544,3.3258284300297496,-1.243352878165245
1733751646208735500,0.992735595703125,-0.5518699124068022,3.4438965910494326,-1.4307307222545147
1733751646218711300,1.002711181640625,-0.43632250203639267,3.142244717526436,-1.7108610843211411
1733751646228687600,1.0126875,-0.25940438490211964,2.556639708778262,-1.3637714017033575
1733751646238662400,1.022662353515625,-0.5493968002915383,2.3999428341567515,-1.4596452665716408
1733751646248638500,1.032638427734375,-0.8634411223977804,2.6038492037206886,-1.1906260811060667
1733751646258614500,1.042614501953125,-0.8749690631061792,2.4667607004106045,-1.1839701303482055
1733751646268590300,1.05259033203125,-0.5758209890976548,2.095761734417081,-1.1600567553192376
1733751646278565400,1.0625654296875,-0.8955559240609406,2.1402713227510453,-0.7289157475739717
1733751646288541400,1.07254150390625,-0.7730281532838941,1.543448754417896,-0.8307479363247752
1733751646298517500,1.082517578125,-1.1177654275566338,1.464102245980501,-0.4377762079760432
1733751646308493300,1.092493408203125,-1.4878575078383087,1.2435802571803332,0.08555120829641819
1733751646318468600,1.102468505859375,-2.0065736309230324,0.7571955011188983,0.7310130121141671
1733751646328444400,1.1124443359375,-1.490481134340167,0.47787002569437026,0.711009211744368
1733751646338420500,1.12242041015625,-1.2525450694024562,0.7994464968711137,1.2694435972332954
1733751646348396500,1.132396484375,-0.7645701215401292,0.5624971048831939,1.5529957504421472
1733751646358371600,1.14237158203125,-0.6112392162203788,0.35927053427696226,1.4842188590750098
1733751646368347400,1.152347412109375,-0.45616848149597644,0.2940530889570713,1.2122405315428972
1733751646378323500,1.162323486328125,-0.3293573343113065,0.32849253417551516,1.0111197010442614
1733751646388299500,1.172299560546875,0.23732114790976047,0.3422708841592073,0.3877008022084832
1733751646398274300,1.1822744140625,0.9031248980104922,0.2888584429234266,-0.14832798246592283
1733751646408250600,1.192250732421875,1.3345119894713162,0.2865548421561718,-0.7333113521844148
1733751646418226400,1.202226318359375,1.1040060745343565,0.3997591965317726,-0.9441755780622363
1733751646428202500,1.212202392578125,1.2135486915320157,0.15373977838158606,-0.7962146753430366
1733751646438177500,1.222177490234375,1.4194874437063931,0.1596113007634878,-0.36790889102369545
1733751646448153600,1.232153564453125,1.5918769775003194,0.1683078174382448,-0.25742373247891664
1733751646458129400,1.24212939453125,0.8213385952055454,0.5613415051072835,0.1781599338889122
1733751646468105500,1.25210546875,0.3675485332787037,0.4106868332594633,0.41500645002424713
1733751646478080500,1.26208056640625,0.08245791845619678,0.5090688815563917,0.6174141054630279
1733751646488056300,1.272056396484375,-0.35690088253617286,0.5650047037899494,0.48667380213588474
1733751646498032600,1.28203271484375,-0.9344868354797363,0.4394458947539329,0.1622968865856528
1733751646508008400,1.292008544921875,-1.2934873206436632,0.5174094244003296,-0.0049719431936740876
1733751646517983500,1.3019833984375,-1.1143003817945718,0.7087386364638805,0.0678768737874925
1733751646527959600,1.31195947265625,-1.1000357095986604,0.664704848948121,0.14223682598397136
1733751646537935600,1.321935546875,-0.8734726870685815,0.689404990440607,0.11331614418700336
1733751646547910400,1.331910400390625,-0.4310463151991367,0.712027741137147,-0.2293263497635722
1733751646557886700,1.34188671875,-0.09392506888806819,0.6107751058399677,-0.6030503568068146
1733751646567862500,1.351862548828125,0.14790741896629334,0.5795680666714906,-0.6469706009455025
1733751646577838300,1.36183837890625,0.1745563564389944,0.5034276607990265,-0.6500707589179276
1733751646587813400,1.3718134765625,-0.12169804195463657,0.5102279884636401,-0.47662061015516516
1733751646597789400,1.38178955078125,-0.5737064811617135,0.8822253178447484,0.25581176723763344
1733751646607765500,1.391765625,0.39175650734007356,0.1722340509712696,0.12269932795166968
1733751646617741600,1.401741455078125,0.09443418745398521,-0.25255904905200005,0.5651267227344214
1733751646627716600,1.411716552734375,0.12243687762320041,-0.2781044091969728,0.5643121914811432
1733751646637692400,1.4216923828125,0.4089999030858278,-0.29066636912822724,0.10097323383390903
1733751646647668500,1.43166845703125,0.2617711140334606,-0.42405192626714705,-0.2601606100969016
1733751646657644500,1.44164453125,0.005021043032407761,-0.5680132379561662,-0.2006168264992535
1733751646667619600,1.45161962890625,0.07293371878564357,-0.6410743825137615,0.25107129471227524
1733751646677595400,1.461595458984375,0.15385492919385432,-0.6506885985553265,0.5737621568717062
1733751646687571500,1.471571533203125,0.14750234529674053,-0.7651344774246215,0.5419100977979601
1733751646697547500,1.481547607421875,-0.254172329467535,-0.981442647922039,0.504995056246221
1733751646707522300,1.491522216796875,-0.668558017244935,-1.1619073516219853,0.4954876615799963
1733751646717498600,1.50149853515625,-0.9319394890844821,-1.3193839784443377,0.5771734266199171
1733751646727474400,1.511474365234375,-0.987293127515912,-1.521766499441862,0.7053624380290507
1733751646737450500,1.521450439453125,-0.8390501929849385,-1.6753659925699234,0.7864712799638509
1733751646747425500,1.531425537109375,-0.6426268726527691,-1.801088467735052,0.8066670957744121
1733751646757401300,1.5414013671875,-0.44259763678312297,-1.8576169951647519,0.8009161310322582
1733751646767377400,1.55137744140625,-0.1395645380347967,-1.8077853350251911,0.7052564934365451
1733751646777353500,1.561353515625,0.15734627844095228,-1.7525164522677659,0.6329654564686119
1733751646787328500,1.57132861328125,0.510280595433712,-1.5351128877490758,0.5736858767651021
1733751646797304300,1.58130419921875,0.6378530823796987,-1.3467898717641829,0.13208382689058779
1733751646807280600,1.59128076171875,0.6082201606601476,-1.3260095340639353,-0.3063599050834775
1733751646817255400,1.60125537109375,0.8172013492703437,-1.251038171970844,-0.22827669458016753
1733751646827231500,1.6112314453125,1.0793185002624988,-1.1373258680731058,0.312347455060482
1733751646837207600,1.62120751953125,1.3365899647891522,-0.8973311170399189,0.5578687144301832
1733751646847183400,1.631183349609375,1.3365794433951377,-0.7854261548250913,0.24616321053504941
1733751646857158400,1.641158447265625,0.7238941200196742,-0.7621271123021841,0.04023264166712761
1733751646867134500,1.651134521484375,0.020839958932995794,-0.8301485091269015,0.14163126130625606
1733751646877110500,1.661110595703125,-0.5260375520139933,-0.8646814778476953,0.26444077163413165
1733751646887086300,1.67108642578125,-0.8916735296696424,-1.0447767637133598,0.0746938603259623
1733751646897061600,1.6810615234375,-1.4095488180160523,-0.9186527220100164,0.21997283048480748
1733751646907037400,1.691037353515625,-0.9036936378091573,-0.44323651920855045,0.3294540726840496
1733751646917013500,1.701013427734375,-0.6731248867690562,-0.5833768113046884,0.19411606630310416
1733751646926989600,1.710989501953125,-0.07050970650911331,-0.573631077837944,0.2720068229742348
1733751646936964600,1.720964599609375,0.5210661933422088,-0.517802223110199,0.7195197043277323
1733751646946940400,1.7309404296875,0.5251075776875018,-0.6339806248605251,0.5744271966516972
1733751646956916500,1.74091650390625,0.25743045448064805,-0.7351566877901554,0.30446766159608957
1733751646966892500,1.750892578125,0.2018926916539669,-0.70700494453907,0.5884082296006381
1733751646976867300,1.760867431640625,0.25434417890310285,-0.817230575364828,1.0728902207806705
1733751646986844200,1.77084423828125,0.3501321190536022,-0.9918863005250692,1.341200673455
1733751646996820000,1.780820068359375,0.37214170628786086,-1.1677151611179113,1.3950013833560049
1733751647006796000,1.790796142578125,0.4177098637640476,-1.219011048591137,1.143974220046401
1733751647016771000,1.80077099609375,0.4347206197977066,-1.0993734462976454,0.8890984184846281
1733751647026747000,1.810746826171875,0.46187984488010403,-1.0413228238672017,0.7235521747142076
1733751647036723200,1.82072314453125,0.6273702668100595,-0.9451485147476196,0.9464930612243712
1733751647046698000,1.830697998046875,0.6457195779711008,-0.7723655977219342,1.2198340554118157
1733751647056674000,1.840674072265625,0.4377572110146284,-0.7458604526340961,1.1994424247682094
1733751647066650000,1.850650146484375,0.6643202335447073,-0.61491118273139,0.866990923833847
1733751647076626200,1.860626220703125,0.5563321525126695,-0.9713234049677848,0.43007586273178455
1733751647086601000,1.87060107421875,0.1863333034723997,-1.3438117327362298,0.18195275030061603
1733751647096577300,1.880577392578125,0.3673421970516443,-1.411764740499854,0.13727028961777687
1733751647106553000,1.890552978515625,0.34321430248916146,-1.4449819504469632,0.4025925202615559
1733751647116529000,1.90052880859375,0.3298053703397512,-1.3454367035895585,0.9238067437723279
1733751647126504200,1.910504150390625,0.3415110057026148,-1.4015046277701855,1.3976726483918727
1733751647136480000,1.92047998046875,0.2501736152201891,-1.4309844047546385,1.325894383251667
1733751647146456000,1.9304560546875,-0.019079379001259802,-1.3477227687001228,0.473387035061419
1733751647156432100,1.94043212890625,0.3591425239831209,-1.4743085826963185,-0.27485066809803244
1733751647166407200,1.9504072265625,0.9859452200382948,-1.1982844869047402,-0.09808657248169184
1733751647176383000,1.960383056640625,0.573034280988574,-1.1418518210649489,0.26676015449240803
1733751647186359000,1.970359130859375,0.8012175981968641,-0.8240168745040893,0.6241513047635555
1733751647196335000,1.980335205078125,0.6676578535348177,-0.5852683241397142,0.7794283757150172
1733751647206310100,1.99031005859375,0.1712935552507639,-0.8931956246703863,0.5466929481603204
1733751647216286200,2.0002861328125,-0.023091537252068518,-1.1256740087240933,0.3450786350563168
1733751647226262000,2.010261962890625,0.14795944141447542,-1.1092840149372816,0.6304178178124129
1733751647236237000,2.020237060546875,0.12091887427568435,-1.1825620171159505,0.8859025450527668
1733751647246212900,2.030212890625,0.044947979751229286,-1.3872183282643555,0.9248711581334471
1733751647256189200,2.040189208984375,0.40433424936234946,-1.2563093903720377,0.7096653959199786
1733751647266165000,2.0501650390625,0.45351767472624777,-1.3095242632091044,0.34522388874590393
1733751647276140000,2.06014013671875,0.34808629243969913,-1.1890016947746276,-0.5820873560160398
1733751647286116000,2.0701162109375,0.31936580938994885,-1.1291367163985968,-0.7380898186326027
1733751647296092200,2.080092041015625,0.46515901268124576,-1.0960685595333575,0.10538929671049117
1733751647306068200,2.090068115234375,0.7785925094127655,-0.9226835849612951,1.3321771167829632
1733751647316043300,2.100043212890625,1.2492571337729692,-0.9980851551651954,2.1014751436278223
1733751647326019000,2.11001904296875,1.4663354118600487,-0.9681249011874198,1.7129308763325213
1733751647335995000,2.119994873046875,1.7856161733150482,-0.8375695990383625,0.4384714967638254
1733751647345971200,2.12997119140625,1.0706798512548208,-1.33633277515769,-0.8652920109614729
1733751647355946000,2.139946044921875,0.36181086640954013,-1.4925526799172162,-1.1003688870757817
1733751647365922000,2.149922119140625,0.49604164220094676,-1.0149556259453296,-0.5405702274963259
1733751647375898000,2.159898193359375,0.42168227452635765,-0.8576561092555522,0.30388065548837184
1733751647385874000,2.1698740234375,0.06879793415516615,-0.8790285676300525,0.930509456281364
1733751647395849000,2.179848876953125,0.2247343457981944,-0.8469289635360241,1.0479700067967175
1733751647405825000,2.189824951171875,0.336562735645473,-0.7328641929388046,1.0640578027665615
1733751647415801000,2.199801025390625,0.14987901130020617,-0.41988662328124043,0.10402531488090754
1733751647425776000,2.209776123046875,0.02750000134408474,-0.5111959567129611,-0.9676447164550424
1733751647435752200,2.219752197265625,0.19567659361809492,-0.6064829616039991,-1.0706266597628593
1733751647445728000,2.22972802734375,0.4016229445770383,-0.5630161603212356,0.036848259925842286
1733751647455704000,2.2397041015625,0.7227054947569966,-0.5328519082039594,0.9121858640834689
1733751647465679000,2.24967919921875,0.4077589631140232,-0.6999240463674068,0.7633923099324107
1733751647475655200,2.2596552734375,-0.09830722949504851,-0.5803612628757954,-0.0172539171397686
1733751647485631000,2.269630859375,0.02596183199137449,-0.10456862797737121,-0.6503162581115961
1733751647495607000,2.27960693359375,0.07966331930160522,0.06917173590362072,-1.08141430349797
1733751647505582000,2.28958203125,0.18203531401753426,-0.02993161240518093,-0.8225450483858585
1733751647515558000,2.299557861328125,0.2607239430680871,-0.2373322538256645,-0.17819851233363151
1733751647525534200,2.3095341796875,0.09668138185888528,0.2510147422194481,0.4402174636483192
1733751647535510000,2.319510009765625,0.15527268703728914,0.1359668058037758,0.9716086516499519
1733751647545485000,2.329485107421875,-0.37218028473258014,-0.10077566543519496,1.1418170420125127
1733751647555461000,2.339461181640625,-0.4282324268221855,0.23151743006706235,0.47907238722145556
1733751647565437200,2.349437255859375,-0.3538755433656275,0.24869302127361295,-0.0977130629941821
1733751647575412000,2.359411865234375,-0.10258929072842002,0.7321902391999959,-0.4064113478973508
1733751647585388300,2.36938818359375,0.19341259420886633,0.7803904987454414,-0.5080447992056608
1733751647595364000,2.379364013671875,0.5568412710785865,0.8759493063151836,-0.4569309903010726
1733751647605340000,2.38933984375,0.8077403510291129,0.9417804996192455,-0.578416558548808
1733751647615315000,2.39931494140625,0.6425988156020641,0.7135287933498621,-0.8332534894049167
1733751647625291000,2.409291015625,0.33828736748099325,0.5789174938082695,-0.6573962795004248
1733751647635267000,2.41926708984375,0.1142518267350737,0.5784802714347839,-0.19089929621368645
1733751647645243100,2.4292431640625,-0.40563769664373245,0.44936523122191424,-0.3651344578742981
1733751647655218200,2.43921826171875,-0.759767981955409,0.5268611433565616,-0.7654092027127742
1733751647665194000,2.449194091796875,-0.6700052203785628,0.5968675765186547,-0.5915685933277011
1733751647675170300,2.45917041015625,-0.32391331662647427,0.3453057218104601,0.2075675224199891
1733751647685146000,2.46914599609375,0.05001300805583596,0.024129648128151892,0.7092986084342002
1733751647695121200,2.47912109375,0.07121522442996502,-0.1490589270889759,0.41162645219713445
1733751647705097000,2.489096923828125,-0.12340835300385951,-0.13625146796405316,0.05008826524913311
1733751647715073000,2.499072998046875,-0.2985207358904183,-0.03150339176654816,0.05742021557241678
1733751647725049000,2.509049072265625,-0.5538888510137796,0.1265244391977787,0.1038219012632966
1733751647735023900,2.51902392578125,-0.6413903165951371,0.23335399784445762,0.4703983746394515
1733751647745000200,2.529000244140625,-0.5609723795339465,0.3095505178183317,1.1118304845497011
1733751647754976000,2.53897607421875,-0.7475047127097845,0.4554559493124485,1.4915999092370271
1733751647764951000,2.548950927734375,-1.1698106720924377,0.5432078825235367,1.0870210374638438
1733751647774927000,2.558927001953125,-1.622247565844655,0.590662292137742,0.324486805665493
1733751647784903200,2.568903076171875,-1.7806499292097984,0.6564145749866962,-0.34384675517380237
1733751647794879000,2.57887890625,-1.480537686344236,0.755972681325674,-0.6330199631348252
1733751647804854300,2.588854248046875,-0.8774290234789252,0.7776911766588688,-0.48365094718337054
1733751647814830000,2.598830078125,-0.2663385680794716,0.7011199781537055,-0.39255905589461326
1733751647824806000,2.608805908203125,0.24902356840223072,0.7494494170367717,-0.2926461447685957
1733751647834782200,2.6187822265625,0.4421197901383042,0.7616951506257057,-0.2271814466893673
1733751647844757000,2.628757080078125,0.2924754643768072,0.7478542567998171,-0.19486352366954088
1733751647854733000,2.638733154296875,-0.15882307299524545,0.6568640723198652,-0.36207682386934753
1733751647864709000,2.648709228515625,-0.6203714939638972,0.661944736585021,-0.4763485152155161
1733751647874685000,2.658684814453125,-1.064567798115313,0.6198334415644406,-0.41995092068910594
1733751647884660000,2.668659912109375,-1.3940256701916456,0.4505073869943618,-0.17559183696657418
1733751647894636000,2.678635986328125,-1.3607611139714717,0.41200493012070655,0.3979296430170536
1733751647904612000,2.688612060546875,-1.1995882629796861,0.35159108569025993,0.5847367014810443
1733751647914588000,2.698587890625,-0.8365680207803845,0.1610182449519634,0.31897651781141756
1733751647924563200,2.708563232421875,-0.22303251031637192,-0.0019096330136060713,0.11047668297737837
1733751647934539000,2.7185390625,0.18306757967472076,-0.11233984650075435,-0.12963380338996647
1733751647944515000,2.72851513671875,0.48456221680939193,-0.04692249469459057,-0.1146820257127285
1733751647954490000,2.738489990234375,0.7479170929029584,0.15567103870511054,0.1276841306269169
1733751647964466200,2.748466064453125,0.8460463354825973,0.24590952803492544,0.0605365940272808
1733751647974442000,2.75844189453125,0.6334411111563444,0.0927700536340475,-0.49308103882968424
1733751647984417300,2.768417236328125,0.24217706350833176,-0.04067921639084816,-0.7756511952638626
1733751647994392000,2.77839208984375,0.06079904435575008,-0.07957154936492443,-0.34820436586141584
1733751648004368100,2.7883681640625,-0.089859719145298,-0.16995733821094036,0.005817161846160888
1733751648014344200,2.79834423828125,-0.2580985630005598,-0.29109657723903654,-0.04139759379327297
1733751648024320000,2.808320068359375,-0.2669786195486784,-0.21858079160451888,-0.12940262498259544
1733751648034295000,2.818294921875,-0.23023118964880704,-0.13610826010107993,-0.14501871178746223
1733751648044271000,2.82827099609375,-0.03309884426444769,-0.1753881310880184,-0.2853244235783815
1733751648054247200,2.8382470703125,0.43375294380933044,-0.3169049722343683,-0.3899772227078676
1733751648064223000,2.848222900390625,0.9562959317058324,-0.3913157778352499,-0.31966216198801994
1733751648074198000,2.858197998046875,1.110544244131446,-0.31646307368576526,-0.19634440987706184
1733751648084174000,2.868174072265625,0.8208622098654508,-0.12830781548321246,-0.2139490401506424
1733751648094150100,2.878150146484375,0.36389410242438314,0.09841478152275085,-0.5542921711176634
1733751648104125000,2.888125,-0.06327829395085573,0.43169396545290945,-0.7568073785841465
1733751648114101200,2.898101318359375,-0.05025982242375612,0.6190034204810857,-0.49340720204412936
1733751648124077000,2.9080771484375,0.13526333370953797,0.7355506555438042,0.3343126186311245
1733751648134053000,2.91805322265625,0.34214813456237314,0.7309627432316541,0.8504968851506709
1733751648144028200,2.928028076171875,0.6192407363682985,0.5809726727724075,0.962102572157979
1733751648154004200,2.938004150390625,0.6441705949634313,0.5366384410053491,0.9976520244449376
1733751648163980000,2.94797998046875,0.32037060251832006,0.5671317789465189,0.9355775533258914
1733751648173956000,2.9579560546875,-0.23944822306632993,0.6498842964351177,0.840772778993845
1733751648183931100,2.96793115234375,-0.5477940412700176,0.8032756997704505,0.8074591229349374
1733751648193907000,2.977906982421875,-0.5698492212116718,0.9748585933566093,0.7744780598312616
1733751648203883300,2.98788330078125,-0.46430561072230336,1.0097592263460158,0.7889642658233642
1733751648213859000,2.997859130859375,0.17173954545259476,0.8641250130087137,1.0897300041615963
1733751648223834000,3.007834228515625,0.8915613014668226,0.595091799017787,1.3645143290251494
1733751648233810200,3.01781005859375,1.1730115139603614,0.2319043835580349,1.0745862110435962
1733751648243786000,3.027785888671875,0.9299427623093127,-0.12127572488933801,0.37631519258022306
1733751648253762000,3.037761962890625,0.517283752194047,-0.2876005518168211,-0.2870417488902807
1733751648263737000,3.047737060546875,0.21612813775539397,-0.23986849430501458,-0.659165919521451
1733751648273713200,3.057713134765625,0.05955693534016609,0.11824702471792697,-0.47684302073419094
1733751648283689000,3.06768896484375,-0.1422059924542904,0.6362801339745521,-0.2646761878252029
1733751648293664300,3.077664306640625,-0.5080646729499101,1.030839131514728,-0.36346623240113257
1733751648303640000,3.08764013671875,-0.436679937171936,1.1425056087985634,-0.4243564621716738
1733751648313616100,3.0976162109375,0.08998831396102905,1.0440198078662157,-0.41554713277220723
1733751648323592200,3.10759228515625,0.8475345282137393,0.7658259668201207,-0.5939204171508551
1733751648333567200,3.117567138671875,1.4947195025622844,0.5716463337615132,-0.6966437095224857
1733751648343543000,3.12754296875,1.585191800647974,0.6804825560554861,-0.6116840373784304
1733751648353519000,3.13751904296875,1.1518681881666182,0.8709715179026126,-0.7063339134097099
1733751648363495200,3.1474951171875,0.4086521125614643,1.1286129847854376,-0.5851116722732782
1733751648373470000,3.157469970703125,-0.21577274844646452,1.3880162006437777,-0.24150749368369578
1733751648383446300,3.1674462890625,-0.5679162073224783,1.51966280516088,0.15114508571326732
1733751648393422000,3.177422119140625,-0.5978939969569445,1.5167799432009457,0.364183440759778
1733751648403397000,3.187397216796875,-0.5984744271934032,1.3381415781453252,0.14695990898311137
1733751648413373200,3.197373291015625,-0.47805181200206276,1.0979191558361052,-0.18710253427922724
1733751648423349200,3.207349365234375,-0.5761018518656492,0.8603612765610218,-0.36394086417555804
1733751648433325000,3.217324951171875,-0.6292541808605193,0.6279569806568324,0.01518821678161621
1733751648443300000,3.227300048828125,-0.693364541721344,0.516952474413067,0.7008318088620901
1733751648453276200,3.237276123046875,-0.7090612925469875,0.4317497872933745,1.1372194850891828
1733751648463252000,3.247251953125,-0.8421236090809107,0.319769275624305,1.0804302608966827
1733751648473228300,3.257228271484375,-0.9257306975722313,0.36947350999191403,0.5202145449489355
1733751648483203000,3.267203125,-0.9093395347416401,0.3734570266701281,0.020216274076700208
1733751648493179100,3.27717919921875,-0.6596230156391859,0.33694603587463495,-0.18073650637865066
1733751648503155200,3.2871552734375,-0.19470424145460127,0.21142814337089658,-0.28616905770897866
1733751648513131300,3.29713134765625,0.27742753284871574,0.1132569613456726,-0.29434651894569397
1733751648523106000,3.30710595703125,0.5660469063192606,0.1485121068611741,-0.1462532220184803
1733751648533082000,3.31708203125,0.7578793917298317,0.200081550578773,0.1643734005987644
1733751648543058200,3.32705810546875,0.5741612391918898,0.2991865063227713,0.5534153882831335
1733751648553033200,3.337033203125,0.18088818980902432,0.38377266897931694,0.8452788582414388
1733751648563009000,3.347009033203125,-0.0419344771489501,0.2178282927367836,0.7575643344312906
1733751648572985000,3.356985107421875,-0.09410977780520915,0.028615415240079163,0.4977338330715894
1733751648582961200,3.366961181640625,-0.1560880950734019,0.10591149395368993,0.31810558019578455
1733751648592936000,3.37693603515625,-0.08130611807256936,0.3718816671121865,0.09828443314135074
1733751648602912300,3.386912353515625,-0.07677227403521537,0.467767733874917,-0.2782540468007326
1733751648612888000,3.39688818359375,-0.20710808821469545,0.3663029901970178,-0.5366285041332245
1733751648622864100,3.406864013671875,-0.30939182012528177,0.19743629676699637,-0.4015378966420889
1733751648632839200,3.416839111328125,-0.43052433715164656,0.03723996265716851,0.18415595943331717
1733751648642815200,3.426815185546875,-0.6413526149332524,0.03840023860819638,0.8934726880460977
1733751648652791000,3.436791015625,-0.6841553993493318,0.2614436356447637,1.383245332980156
1733751648662767000,3.44676708984375,-0.29910628069341183,0.30653102386668324,1.2455857517838478
1733751648672742100,3.4567421875,0.15654840606153012,-0.016840367902815342,0.48436172580122944
1733751648682718000,3.466718017578125,0.6629284869253635,-0.43260406603515145,-0.14581892225444315
1733751648692694300,3.4766943359375,0.9990665674179792,-0.6850599469736218,-0.3508469893246889
1733751648702669000,3.4866689453125,1.0427701000660656,-0.7453074218612163,-0.08858253881633281
1733751648712645000,3.49664501953125,0.8037883254677057,-0.6716811907667666,0.3086936087280512
1733751648722621200,3.50662109375,0.4108785564392805,-0.5445829702690244,0.6207236684024333
1733751648732597000,3.516596923828125,0.114339788146317,-0.39344088023044166,0.7285960141003132
1733751648742572000,3.526572021484375,0.03140197721868753,-0.32995690763965246,0.6424877564430237
1733751648752548000,3.536548095703125,0.10523381388783454,-0.3903806889422238,0.39141280846893783
1733751648762524200,3.546524169921875,0.28514497535824773,-0.4360525259885937,0.1885381200402975
1733751648772500000,3.5565,0.5335024810671806,-0.4860469754744321,0.0973795932561159
1733751648782475000,3.56647509765625,0.7149886367693543,-0.6079241003230214,-0.007385434076189994
1733751648792451000,3.576451171875,0.9055503715917468,-0.8736725935548544,-0.3157078714042902
1733751648802427100,3.58642724609375,0.8323995029240846,-1.1068220087379217,-0.6958283014863729
1733751648812403200,3.5964033203125,0.6405746162980794,-1.062015629414469,-0.6349129372745752
1733751648822378200,3.606378173828125,0.3449351349323988,-0.8179113972358405,-0.23018588920235633
1733751648832354000,3.61635400390625,0.11319967820048332,-0.5704986250311136,0.21246786168217657
1733751648842330000,3.626330078125,0.055735038964450354,-0.41375279670134185,0.4051835596680641
1733751648852305200,3.63630517578125,0.19435761997401713,-0.2837754405707121,0.3789496327370405
1733751648862281000,3.646281005859375,0.4661874789461493,-0.24466288897469637,0.1985983262836933
1733751648872257000,3.656257080078125,0.616380670762062,-0.2220630807623267,0.09425357019007205
1733751648882233000,3.666233154296875,0.513462148079276,-0.15066329354569316,0.15310381856560706
1733751648892208000,3.6762080078125,0.38381986912190913,-0.08988821458742022,0.20319208381474016
1733751648902184000,3.686183837890625,0.346449046626687,-0.1642600033521652,0.13083937978744506
1733751648912160300,3.69616015625,0.4148211565852165,-0.3822378606274724,-0.08934475536048411
1733751648922136000,3.706135986328125,0.6098834176972509,-0.6806282481364906,-0.36221243294775485
1733751648932111000,3.716111083984375,0.8109683000996708,-0.8577695065021514,-0.5907710132092238
1733751648942087200,3.726087158203125,0.7789245178461074,-0.8223654540352523,-0.6744745478123426
1733751648952063000,3.73606298828125,0.49314942789077754,-0.571002336769551,-0.39441725098192687
1733751648962039000,3.7460390625,0.06919570130109787,-0.31325287946760655,0.002439209845662117
1733751648972014000,3.75601416015625,-0.19140870704054833,-0.2001233438938856,0.2386392447710037
1733751648981991200,3.7659912109375,-0.1286003686890006,-0.23274112664312122,0.164469262188673
1733751648991967200,3.77596728515625,0.15310615665316582,-0.24179332488775251,-0.1007692356944084
1733751649001942300,3.7859423828125,0.4318503250584006,-0.08761807769834995,-0.47095571626126764
1733751649011918300,3.79591845703125,0.46341830649375915,0.2850900303006172,-0.6119646078854799
1733751649021894100,3.80589404296875,0.2435220483765006,0.8341314412832259,-0.515485762861371
1733751649031870200,3.8158701171875,0.03813070095181465,1.0430690830126403,-0.5991489654541016
1733751649041845000,3.825844970703125,-0.11731763491332531,0.87065938321352,-0.7853443217605351
1733751649051821300,3.8358212890625,-0.20009470232129095,0.7853361384540796,-0.7929401837170124
1733751649061797000,3.845797119140625,-0.3429384081572294,0.8997349633112549,-0.7310141811579466
1733751649071773200,3.855773193359375,-0.4011316539287567,0.955867769421637,-0.6907838775783777
1733751649081748200,3.865748291015625,-0.5004653038620949,0.9957412223875522,-0.5780173300981521
1733751649091724000,3.87572412109375,-0.6525719280838966,1.034526295594871,-0.5285679472744464
1733751649101700400,3.885700439453125,-0.4931447517156601,0.9152329766944051,-0.41308161944150923
1733751649111675100,3.895675048828125,-0.23262129965573547,0.6653393474593758,-0.3123573919326067
1733751649121651200,3.905651123046875,-0.10140051933526992,0.34803777712285516,-0.2844926489293575
1733751649131627000,3.915626953125,0.024373393756151197,0.0691594609439373,-0.29177111549973483
1733751649141603300,3.925603271484375,0.06879501154571771,-0.08700169936567545,-0.3418535355299711
1733751649151578000,3.935578125,0.08813070339560508,-0.10480272899419069,-0.21279870107173918
1733751649161554200,3.94555419921875,0.024155951613187787,-0.10397884539067745,0.02667290287017822
1733751649171530200,3.9555302734375,0.019821721801161766,-0.21897271353155373,0.24601824910640716
1733751649181506000,3.965506103515625,-0.06489683506339788,-0.2875570049360394,0.37519583316147326
1733751649191481000,3.975481201171875,-0.15282850875556467,-0.3313032076820731,0.3322667920172214
1733751649201457200,3.98545703125,-0.13140841184705496,-0.2879983189627528,0.3066793462961912
1733751649211433200,3.99543310546875,-0.2135387057840824,-0.08387918343096971,0.2992804682165384
1733751649221409000,4.005408935546875,-0.40560733803808685,0.2029924695894122,0.23874971940815448
1733751649231384300,4.01538427734375,-0.5927747542470693,0.37358985926955934,0.3072720514923334
1733751649241360100,4.025360107421875,-0.6665285572439432,0.33643092595934865,0.43366672683060165
1733751649251336200,4.035336181640625,-0.5147849211156368,0.11462357352375983,0.5096370368331671
1733751649261311200,4.045311279296875,-0.11127075596451759,-0.14565291803777217,0.49436172628998754
1733751649271287300,4.055287353515625,0.3009343729034066,-0.3090186028987169,0.4621458023399114
1733751649281263000,4.06526318359375,0.5502925800874829,-0.41270051116943357,0.41553778042197226
1733751649291239200,4.0752392578125,0.5847141973882913,-0.399154216375947,0.37827158734500405
1733751649301214200,4.085214111328125,0.4333656980574131,-0.22872107734680175,0.14330781621634958
1733751649311190000,4.09518994140625,0.03741729198545217,-0.00966565396785736,-0.10123509964048862
1733751649321166300,4.105166259765625,-0.37663463379293677,0.0936024128049612,-0.09950140771567821
1733751649331142100,4.11514208984375,-0.673735127621889,0.11982932547330856,0.04563070131838321
1733751649341117200,4.1251171875,-0.775480514872074,0.15907704775631426,0.21964520596563814
1733751649351093200,4.13509326171875,-0.6525456245988607,0.1708575019210577,0.33087972157299517
1733751649361069300,4.1450693359375,-0.17877601996064185,0.17672317908406257,0.24085575177669524
1733751649371045000,4.155045166015625,0.3657698331683874,0.1675765805542469,-0.03381108418703079
1733751649381020400,4.1650205078125,0.775286745865643,0.17340426379442214,-0.2833528312444687
1733751649390996200,4.174996337890625,0.9025362844675778,0.21881810749173164,-0.36488603607118125
1733751649400972000,4.184971923828125,0.8472875677153467,0.25682372075915333,-0.3986141181498766
1733751649410947000,4.194947021484375,0.6007759821340442,0.22493571358919143,-0.4270779960900545
1733751649420923100,4.204923095703125,0.3525374266296625,0.226889185744524,-0.3467477373123169
1733751649430899200,4.214899169921875,0.2181461995795369,0.2472667878627777,-0.05985562602579593
1733751649440875300,4.224875244140625,0.22485066565424203,0.20438100133836268,0.11098083310723304
1733751649450850300,4.234850341796875,0.3162912242501974,0.08501695528924465,0.16338555860519408
1733751649460826000,4.244826171875,0.417110436566174,-0.09087328010201454,0.1777116055995226
1733751649470802400,4.254802490234375,0.42123160814940924,-0.18636486765444277,0.3875111248552799
1733751649480778200,4.2647783203125,0.18257833485305308,-0.14836042343080044,0.6486971324771642
1733751649490753300,4.274753173828125,-0.09793050513714552,0.11787409975230694,0.7322627199143171
1733751649500729000,4.28472900390625,-0.3780664201617241,0.3934259018570184,0.6225070446878671
1733751649510705200,4.294705078125,-0.5507441232472657,0.5203583373337983,0.3461719832509756
1733751649520681200,4.30468115234375,-0.5309668251097202,0.6446294446468352,0.17580138806402681
1733751649530656000,4.314656005859375,-0.39588673901259896,0.7549322323620319,-0.06078326226472854
1733751649540632300,4.32463232421875,-0.22159341742396355,0.8979460340678691,-0.1687690052092075
1733751649550608100,4.334608154296875,-0.19818068539351225,1.0977765324950217,-0.1598988855332136
1733751649560583200,4.344583251953125,-0.33465222584903237,1.288206165370345,-0.16943009946644305
1733751649570559200,4.354559326171875,-0.6492880841076374,1.491226984271407,-0.2494143212854862
1733751649580535300,4.364535400390625,-1.1213000314235686,1.6717039629310368,-0.23135668654739855
1733751649590511000,4.374510986328125,-1.3882941408023237,1.6477788974642753,-0.18845862506330013
1733751649600486400,4.384486328125,-1.4611293676495551,1.4093126711726187,-0.13631693441569803
1733751649610462200,4.394462158203125,-1.3347837921500205,1.0972159760028124,-0.01953822868466377
1733751649620438000,4.40443798828125,-0.962906289756298,0.7392752290248871,0.027585926061868667
1733751649630414300,4.414414306640625,-0.5402171762749552,0.4467009804487228,0.055983753028511996
1733751649640389000,4.42438916015625,-0.27989129261374474,0.05467676208317279,-0.23284371023476122
1733751649650365200,4.434365234375,-0.3785740774229169,-0.24053368021547794,-0.5133808995366096
1733751649660341200,4.44434130859375,-0.8954273292452096,-0.11580781487226485,-0.5146715238690376
1733751649670316300,4.45431640625,-1.8819024183765052,0.35239538781046864,-0.20259177983403204
1733751649680292000,4.4642919921875,-2.597634274728596,0.5648918910652398,0.09558803366422652
1733751649690268200,4.47426806640625,-2.937321279874444,0.38625089566111565,0.03325695743560791
1733751649700244200,4.484244140625,-2.83542450145483,0.1386667124122381,0.08200783660113811
1733751649710219300,4.49421923828125,-2.3210998913273215,-0.0867313579916954,0.13672902234792708
1733751649720195300,4.5041953125,-1.6365455557882784,-0.08072831818461418,0.06456394984722137
1733751649730171100,4.514171142578125,-0.9075696024596691,0.017570143482089042,-0.2397287935733795
1733751649740147200,4.524147216796875,-0.10864844463691115,-0.040481063470244404,-0.5239043393775821
1733751649750122200,4.534122314453125,0.4256342270225286,-0.1583832202732563,-1.0434145354494453
1733751649760098300,4.544098388671875,0.6273696822881698,-0.12437222959995269,-1.2392097870111465
1733751649770074000,4.55407421875,0.4014876277595758,-0.02781798125207424,-1.0435881384506822
1733751649780050200,4.56405029296875,-0.11961875146254897,-0.003397241222858429,-0.6562684445142746
1733751649790025200,4.574025146484375,-0.37996786986887454,0.029862054300308225,-0.24335107572376727
1733751649800001000,4.5840009765625,-0.19707754645720124,-0.10626257241368293,-0.03145663001537323
1733751649809977300,4.593977294921875,0.1633458841819316,-0.49835342627465723,-0.15397709426879883
1733751649819952000,4.6039521484375,0.4715320548444986,-0.8478641985595226,-0.5217772642210126
1733751649829928200,4.61392822265625,0.6349900941640139,-0.9615683191508054,-0.7919719232067466
1733751649839904300,4.623904296875,0.4983540838617831,-0.986366075798869,-0.7229878188297152
1733751649849880300,4.63388037109375,0.19424714533686638,-1.0441671073824166,-0.0967348656117916
1733751649859855000,4.643855224609375,0.02180562562737614,-1.2118541625738144,0.7554948346808552
1733751649869831200,4.6538310546875,0.08011924637556075,-1.3285849375098944,1.1852566630274057
1733751649879807200,4.66380712890625,0.34201311000585555,-1.245437867745757,1.2890545988932252
1733751649889783000,4.673782958984375,0.5573901371330022,-1.1305874997287988,1.1669076441273092
1733751649899758000,4.683758056640625,0.6384253293097019,-0.9981184729129076,0.8012573456853628
1733751649909734100,4.693734130859375,0.6434989793121815,-0.7844236997842788,0.2993140782251954
1733751649919710200,4.703710205078125,0.6406862599790096,-0.5916337675184011,-0.11684271087795495
1733751649929686300,4.713686279296875,0.436448429971002,-0.4805944822221994,-0.3653916475057602
1733751649939661300,4.723661376953125,0.1529717166185379,-0.32407004155814645,-0.36651568309962745
1733751649949637000,4.73363720703125,-0.21492409572787582,-0.1025952820777893,-0.17781535823494196
1733751649959613200,4.74361328125,-0.4187340191800147,0.20532325062453746,-0.04320581225901842
1733751649969588200,4.753588134765625,-0.28558804295063017,0.4834697453975677,-0.03415565984100103
1733751649979564300,4.763564208984375,0.12628471215777098,0.5692302125304937,-0.49906303584873674
1733751649989539800,4.773539794921875,0.5917184501271695,0.5387450578957795,-0.9688847796440124
1733751649999516000,4.783515869140625,0.5991409282781184,0.43852644182145595,-1.2578688947737215
1733751650009491000,4.793490966796875,0.1831448826946318,0.26606092018187044,-1.1254819932833313
1733751650019466800,4.803466796875,-0.37465522347874936,-0.21395956154465673,-0.7802914222851395
1733751650029443000,4.813443115234375,-0.6303648455161601,-0.5366396100491285,-0.08489625151902437
1733751650039419000,4.8234189453125,-0.4008078288018703,-0.46326223914921283,0.5447258858710528
1733751650049394000,4.833393798828125,-0.03512976557016372,-0.28002514812648294,0.6933738940715789
1733751650059370000,4.843369873046875,0.3020375118397176,0.03501870641112327,0.36052930216640233
1733751650069346000,4.853345947265625,0.5129891237400472,0.3146878807067871,-0.08774813381880521
1733751650079320800,4.86332080078125,0.4230113311730325,0.42562253658473487,-0.6506275160178542
1733751650089297200,4.873297119140625,-0.020440730482339856,0.5130792862415313,-0.9965563381627202
1733751650099273000,4.88327294921875,-0.8512040105067193,0.4604220472872257,-0.7853250325381755
1733751650109248800,4.893248779296875,-1.7649416340768336,0.24772563754618165,-0.2186430431857705
1733751650119223800,4.903223876953125,-2.43648129748106,0.048481414574384686,0.21154256353080272
1733751650129199900,4.913199951171875,-2.604587454867363,-0.028588381102681158,0.347812443934381
1733751650139176000,4.923176025390625,-2.3524951465442774,-0.1472808115005493,0.17807094043120741
1733751650149152000,4.933152099609375,-1.7379086657226084,-0.2829723074942827,-0.24397563736289737
1733751650159127000,4.943126953125,-0.8341701658584177,-0.48967795238792894,-0.6938536404125392
1733751650169102800,4.953102783203125,-0.030296938586235046,-0.5749018284261226,-0.8541562844410538
1733751650179079200,4.9630791015625,0.5190551457807422,-0.5290688825339078,-0.9245470407456159
1733751650189055000,4.973054931640625,0.7110217789649963,-0.6487187597870826,-1.0757545241706072
1733751650199030000,4.983030029296875,0.4965311792835593,-0.7983826670318841,-0.9342736311204731
1733751650209005800,4.993005859375,0.07145107901245355,-0.8169599417299032,-0.33619989368245
1733751650218982000,5.00298193359375,-0.3591317103281617,-0.8229466149240732,0.21262582872286437
1733751650228957000,5.01295703125,-0.532638265453279,-0.7818892128705978,0.3557186870142817
1733751650238932700,5.0229326171875,-0.5472898911401629,-0.7255185063511133,0.10254793580472468
1733751650248909000,5.032908935546875,-0.258588684605062,-0.5854243914842605,-0.03828793734014034
1733751650258884900,5.042884765625,0.42884705158919095,-0.5099129311650991,-0.07662935843318701
1733751650268860000,5.05285986328125,1.111890398043394,-0.6082049630910158,-0.22941110543757676
1733751650278836000,5.0628359375,1.6027812333524227,-0.82084525873065,-0.3217947901025414
1733751650288812000,5.07281201171875,1.8237609027922153,-1.0656015250772237,-0.20251769168451428
1733751650298787800,5.082787841796875,1.7447253600001333,-1.1943699438095092,0.004865267948806286
1733751650308763100,5.09276318359375,1.4881880549669264,-1.1408394291520119,0.26830621489062906
1733751650318739000,5.102739013671875,1.2692103729993105,-0.9150485600382089,0.5393764876671135
1733751650328714800,5.11271484375,1.0798445699632166,-0.6443915442377328,0.6177247788473963
1733751650338691000,5.122691162109375,0.7448924843847751,-0.5370967061668634,0.5344909075826406
1733751650348665900,5.132665771484375,0.19587533106058835,-0.4619552482038736,0.6453409539170563
1733751650358642000,5.142641845703125,-0.18175445124953984,-0.4669581710577011,0.9742273097157478
1733751650368618000,5.152617919921875,-0.21976181808263062,-0.6591542290836572,1.250475569652021
1733751650378593000,5.162593017578125,-0.07013502797782421,-0.7342705526053905,1.3318461312629282
1733751650388568800,5.17256884765625,0.11555179428458213,-0.6393740083366632,1.0420185510464013
1733751650398545200,5.182545166015625,0.26803222025483847,-0.45771278832852835,0.6850093858301639
1733751650408521000,5.19252099609375,0.48168578459024425,-0.30604630908966063,0.44311639996021984
1733751650418496000,5.20249609375,0.6979717432558536,-0.26848727054595944,0.08546426066532731
1733751650428472000,5.21247216796875,0.8676046718180179,-0.35988194417357444,-0.19244243400245903
1733751650438447900,5.22244775390625,0.9843635038048029,-0.36900107017457484,-0.10939166421964763
1733751650448424000,5.232423828125,0.961468365907669,-0.4320967010349035,0.05757526000365615
1733751650458399000,5.24239892578125,0.7527081265717744,-0.5871539917558432,0.04844254386872053
1733751650468375000,5.252375,0.4823550621539354,-0.7924743197709322,0.09813172679767013
1733751650478350800,5.262350830078125,0.39924189465939997,-1.0201964492082596,0.29438904291316864
1733751650488326000,5.272325927734375,0.4002800055354833,-1.2836655993312596,0.3886515270620584
1733751650498302000,5.282302001953125,0.4853665189296007,-1.4616408243030308,0.5176251129776239
1733751650508278000,5.292278076171875,0.542054620835185,-1.54420629478693,0.6588659136615693
1733751650518254000,5.302254150390625,0.6041191550821066,-1.4539169520527124,0.8150286814063787
1733751650528229000,5.31222900390625,0.6149480076104402,-1.291163846132159,0.926602950362116
1733751650538205000,5.322204833984375,0.6419236928194761,-1.1632961756318807,0.6169083478979766
1733751650548181000,5.332180908203125,0.7312807231396437,-1.0758061082273722,0.24262363823205232
1733751650558157000,5.342156982421875,0.8058680543512106,-1.078874263626337,0.2672629894480109
1733751650568131800,5.3521318359375,0.6595961276322603,-1.1188660822749137,0.47486441413760183
1733751650578108000,5.36210791015625,0.44390988842546936,-1.2639017451971768,0.65950801095739
1733751650588084000,5.372083984375,0.3847632874518633,-1.4024866245448588,0.756844641854614
1733751650598059000,5.38205908203125,0.5635913298606873,-1.417436356395483,0.9020065615050494
1733751650608034800,5.392034912109375,0.9354711703419685,-1.3886135820150374,0.9735292444489896
1733751650618011000,5.402010986328125,1.3160948737710714,-1.3831325202554463,0.7885938250757754
1733751650627987000,5.411987060546875,1.6151719283699988,-1.3115502160787582,0.5578744135186076
1733751650637962000,5.4219619140625,1.74732414432168,-1.298476799494028,0.4136667258530855
1733751650647938000,5.43193798828125,1.7859113568693399,-1.238477965605259,0.4178158083565533
1733751650657913900,5.441913818359375,1.8365671928733587,-1.187912145972252,0.3844530524589121
1733751650667890000,5.451889892578125,1.7845909219205378,-1.200733633622527,0.21691154321804643
1733751650677865000,5.461864990234375,1.5848627148240804,-1.1643728649526834,0.2178302654981613
1733751650687841000,5.471841064453125,1.3793699528515337,-1.1715326735794545,0.3664145608127117
1733751650697816800,5.48181689453125,1.2213204945772886,-1.1892904485881328,0.21849691271334884
1733751650707793000,5.49179296875,1.0830980188012123,-1.158369825145602,-0.33735490893647074
1733751650717768000,5.501767822265625,1.0655752215921879,-1.1149497856140136,-0.7686322564125061
1733751650727743700,5.51174365234375,1.163646304243803,-1.0203583617717027,-0.379376772107929
1733751650737720000,5.521719970703125,1.1604752729922532,-0.9412462466120719,1.0738755785562097
1733751650747694800,5.53169482421875,0.4933703771650791,-1.0191063158839941,1.8997100238762794
1733751650757671000,5.5416708984375,-0.23045769188106058,-1.1323615236639977,1.3806028556473553
1733751650767647000,5.55164697265625,-0.1548673211067915,-1.2227829683452844,0.5297169711790979
1733751650777623000,5.561623046875,0.17841741578131914,-1.2599614831387995,-0.09095233668759464
1733751650787597800,5.571597900390625,0.4366267456799745,-1.2878233035326003,-0.3167185097515583
1733751650797574100,5.58157421875,0.7402066646561026,-1.1993027240365743,0.1684016332015395
1733751650807550000,5.591550048828125,0.9408680609494448,-1.0408043529510498,1.1873328847795723
1733751650817525800,5.60152587890625,0.9074117815494537,-1.0318915631771086,1.7578024298466741
1733751650827501000,5.6115009765625,0.9270527399562298,-1.0894459265232086,1.6763579262167214
1733751650837476900,5.621476806640625,0.7315629010818898,-1.085916583353281,1.2920114028722047
1733751650847453000,5.631452880859375,0.4259235653579235,-0.9369996950834989,0.6051093351632356
1733751650857427700,5.641427734375,0.453524688988924,-0.7567886738836764,-0.09831745862811803
1733751650867404000,5.651404052734375,0.604991992393881,-0.5596095667481422,-0.7266390348136424
1733751650877379800,5.6613798828125,0.6627412937901914,-0.4006944315552711,-1.1221525565996766
1733751650887356200,5.671356201171875,0.6764623606286942,-0.48678047738075253,-0.6134653678372501
1733751650897331000,5.6813310546875,0.3366635656714439,-0.7580132472425699,0.4534264893114566
1733751650907307000,5.69130712890625,0.10376892896704375,-0.7339677702665328,1.4099609059482812
1733751650917283000,5.701282958984375,0.16364033708386122,-0.6313871012359857,1.7704627355858682
1733751650927259000,5.7112587890625,0.6154992117524146,-0.5719950010687113,1.5107707659140228
1733751650937234000,5.72123388671875,0.996526819807291,-0.6027747547358274,0.8999488983228802
1733751650947209700,5.731209716796875,1.34951841994524,-0.50073535297513,0.1606111254557967
1733751650957186000,5.74118603515625,1.3920435564637184,-0.2942489037901163,-0.425616691365838
1733751650967160800,5.751160888671875,0.9850175837993621,0.018111410751938818,-0.7443789819046854
1733751650977137000,5.761136962890625,0.24573183338046073,0.0812590640604496,-0.5619064455136656
1733751650987113000,5.771113037109375,-0.18682488638162612,-0.12414017440974712,0.09166764535009861
1733751650997089000,5.781089111328125,-0.2820148606389761,-0.11618190888166427,0.7437748785316943
1733751651007063800,5.791063720703125,-0.23274726412296293,-0.03826163385510444,0.8359007890433072
1733751651017040100,5.8010400390625,-0.08230937683098018,0.015176526343822478,0.6026116731286049
1733751651027016000,5.811015869140625,0.08876549416780471,0.1424485690385103,0.4021691802829504
1733751651036991700,5.82099169921875,0.17835808680951595,0.38052375018596646,0.5170557886570691
1733751651046967000,5.830967041015625,0.043678471272066234,0.5592202751696109,0.4595993327274918
1733751651056942800,5.84094287109375,-0.1619013113968074,0.48003977094888683,-0.0717842564895749
1733751651066919000,5.8509189453125,-0.5359982434056699,0.42307168305814263,-0.8044134716287255
1733751651076894000,5.86089404296875,-0.8215593983493745,0.5765104326665401,-1.018187155212462
1733751651086870000,5.8708701171875,-0.800334824012965,0.7562023984283208,-0.8916364125296473
1733751651096845800,5.880845703125,-0.4869551032952964,0.6219681155055761,-0.638695378422737
1733751651106822000,5.89082177734375,-0.05971811725124716,0.30405951918661595,-0.31900925103724
1733751651116797000,5.900796875,0.41796661500409243,0.14927929184138775,-0.0003334697380661964
1733751651126773000,5.91077294921875,0.6362631828397513,0.06680442225039004,0.044617140361666675
1733751651136749000,5.9207490234375,0.46669002164080736,0.002207154655456543,-0.0114481534704566
1733751651146724900,5.930724853515625,0.13879004653096197,0.13282733873426913,-0.2791781759083271
1733751651156700000,5.940699951171875,-0.23784780213236809,0.35359015055298804,-0.8459624565914273
1733751651166676000,5.950676025390625,-0.5708677506044507,0.5738520271122455,-1.1941858194142578
1733751651176652000,5.960652099609375,-0.8016352390870451,0.7491051336437463,-1.0474632263183594
1733751651186627800,5.9706279296875,-1.0030807714954018,0.8241770335018634,-0.5498083037018776
1733751651196603100,5.98060302734375,-1.4438120298847554,0.7476321384817362,0.07132686811089516
1733751651206579000,5.990578857421875,-1.6326128925144672,0.6892173589140176,0.4235924920618534
1733751651216555000,6.000554931640625,-1.3436767081797123,0.6812807206958532,0.512345126748085
1733751651226529800,6.01052978515625,-0.7875903471216559,0.6107505559206009,0.09483926112353801
1733751651236506000,6.020506103515625,-0.008887363071739674,0.35770752274394035,-0.49300154385268685
1733751651246482000,6.03048193359375,0.7450339386820792,0.03534136249423027,-0.8596177647173404
1733751651256458000,6.0404580078125,1.2336574135810137,-0.13495441389083862,-0.7126034951984882
1733751651266433000,6.05043310546875,1.1856342641681432,-0.05926233630776405,-0.019436521875858304
1733751651276408800,6.060408935546875,0.5829892732918263,0.016553075394034385,0.5739776993185282
1733751651286385200,6.07038525390625,-0.11892945402413606,-0.10324176328778266,0.6396767906755209
1733751651296361000,6.08036083984375,-0.47625645301789044,-0.13130641277730465,0.3920253874093294
1733751651306336000,6.0903359375,-0.6218485807791352,-0.06226268716752529,0.13678338288366793
1733751651316311800,6.100311767578125,-0.6168333829656243,-0.08093816154301166,-0.09283844269514083
1733751651326288000,6.110287841796875,-0.47555590353310107,-0.13277999246120453,-0.23748656760454176
1733751651336263000,6.120262939453125,-0.47647477194368837,-0.1351286014139652,-0.558821046718955
1733751651346239000,6.130239013671875,-0.7424521054953336,-0.028721652093529698,-0.48703240631520744
1733751651356215000,6.140215087890625,-1.0605728832602501,0.0830102916419506,0.049364627149701114
1733751651366190800,6.15019091796875,-1.3037357429355383,0.19614684147834777,0.5844903255045414
1733751651376166000,6.160165771484375,-1.2924489175066352,0.4170400016784668,0.7954869455903768
1733751651386142000,6.170141845703125,-0.6902914178863168,0.38820729042589663,0.3504974452346563
1733751651396118000,6.180117919921875,0.08037935861647129,0.2123538799136877,-0.4360884010195732
1733751651406093800,6.19009375,0.5052314953505993,0.18026070556044577,-1.2048849080830812
1733751651416069000,6.200069091796875,0.6185574302792549,0.049686114189028734,-1.589639427706599
1733751651426045000,6.210044921875,0.4886617610827088,-0.13174948036968706,-1.4273586154729128
1733751651436020700,6.220020751953125,0.34444209071844817,-0.24356968691051004,-0.8825140716582536
1733751651445996000,6.22999609375,0.20682576414197681,-0.1746001955807209,-0.1633896502584219
1733751651455971800,6.239971923828125,0.07677490438371896,0.0075385788112878795,0.49008361057937144
1733751651465948000,6.249947998046875,0.15693272920399903,0.06903846491277217,0.7529594709843397
1733751651475924000,6.259924072265625,0.3294622559905052,0.04673077151477337,0.6386439404964447
1733751651485899000,6.26989892578125,0.44163259114325043,0.048125440743565555,0.47324528850317
1733751651495874800,6.279874755859375,0.40926469150185585,-0.021327450188994405,0.24036709147691726
1733751651505851100,6.28985107421875,0.23352117110490797,-0.08160510101914405,0.1041682304829359
1733751651515827000,6.299826904296875,0.020459435182809828,-0.0819295106679201,0.09553601121604442
1733751651525802000,6.309802001953125,-0.38254911853373047,-0.06427110438048839,-0.008780103304982185
1733751651535778000,6.319778076171875,-0.8300123155266046,0.10272387689352035,0.12449673276245593
1733751651545753900,6.32975390625,-1.1180419064104556,0.3829366565465927,0.4911036012768745
1733751651555729000,6.33972900390625,-1.248416299034655,0.640560587772727,0.7926818250417709
1733751651565705000,6.349705078125,-1.1541691585853695,0.8583961139678955,0.9490361698359251
1733751651575681000,6.359680908203125,-0.8023258516997098,0.9783177938997745,0.698073450064659
1733751651585656800,6.36965673828125,-0.21596914780139922,0.8746127970144152,0.31893793936669823
1733751651595631900,6.3796318359375,0.3577168750941753,0.6203507434368133,0.07462123348116874
1733751651605608000,6.38960791015625,0.6460802279770373,0.5985580138236284,-0.2162789444029331
1733751651615584000,6.399583984375,0.7197557050406932,0.5599123490869998,-0.2705021174997091
1733751651625560000,6.40956005859375,0.4261012600123882,0.5222656322598457,-0.5793535471379757
1733751651635535000,6.41953515625,0.0480278255879879,0.6586106237262487,-0.9492647178947925
1733751651645511000,6.429510986328125,-0.4054834193974733,0.8198378352537751,-0.9469950193971395
1733751651655487000,6.439487060546875,-0.7015694754868745,0.7852940528780221,-0.4565799849063158
1733751651665462000,6.4494619140625,-0.5789096027627587,0.8259598252654076,-0.019239537999033926
1733751651675437800,6.459437744140625,-0.1372895788401365,0.841072930984199,0.19771043753325937
1733751651685414000,6.469413818359375,0.35413200234472747,0.9195201524943113,0.39630642572939395
1733751651695390000,6.479389892578125,0.7660416553974151,0.952098772276938,0.49456455538570876
1733751651705365000,6.489364990234375,1.024087903688848,0.8891708991989493,0.42127544729113575
1733751651715340800,6.4993408203125,1.0832806818917393,1.113237136477232,0.15172376238405705
1733751651725317000,6.509317138671875,0.915714038209617,1.2698746821269393,-0.02933949173092842
1733751651735292000,6.5192919921875,0.5649275469005107,1.180560029643774,-0.09825929870009421
1733751651745268000,6.52926806640625,0.2560767017841339,0.9177978587463498,-0.013449848681688309
1733751651755244000,6.539244140625,-0.21836656433194873,0.8644766029253601,-0.23894319615364074
1733751651765219800,6.5492197265625,-0.6457330219745636,1.0093386628463863,-0.5868477022856473
1733751651775195000,6.55919482421875,-0.9289479060530662,1.1839511333867907,-0.6003098259270191
1733751651785171000,6.5691708984375,-0.8572861068993807,1.183353459754586,-0.4286421766668558
1733751651795147000,6.57914697265625,-0.7815642186999321,1.0168655512198805,-0.1932745009124279
1733751651805122800,6.589122802734375,-0.6575204904019832,0.9492661791995167,0.34755496204197406
1733751651815098000,6.59909814453125,-0.39989042169600725,0.963145797600597,0.8271113333880901
1733751651825074000,6.609073974609375,-0.1823334201812744,0.9044741206623613,1.0442828427165747
1733751651835050000,6.619050048828125,-0.07822948710620403,0.8157052654936909,1.154910624602437
1733751651845025000,6.62902490234375,-0.004375146344304084,0.7594181456044315,1.2513970684111118
1733751651855001000,6.6390009765625,0.04374678726792335,0.6021155601747333,1.1073872414052486
1733751651864977000,6.648976806640625,0.1492290229588747,0.4745002570003271,0.8844149368435144
1733751651874953000,6.658952880859375,0.2408250643774867,0.4429974497556686,0.7556307360202074
1733751651884928000,6.668927978515625,0.2299406822696328,0.3026153117276728,0.3424772203862667
1733751651894903800,6.67890380859375,0.07715951978713273,0.02281476613730192,-0.14149696740210055
1733751651904880000,6.688880126953125,-0.1980772250190377,-0.12629457596465946,-0.31382687996327874
1733751651914856000,6.69885595703125,-0.2844198759540915,-0.13512129489034413,-0.2898731729239225
1733751651924831000,6.7088310546875,-0.16879150930196046,-0.1005417105488479,-0.29056407779753207
1733751651934807000,6.71880712890625,-0.041866964870691296,0.017567074742168187,-0.23003742064237592
1733751651944782800,6.728782958984375,0.04300415220707655,0.15924699749574064,-0.08402268355488776
1733751651954758000,6.7387578125,0.06638268970698118,0.2659605285473168,-0.02916004351079464
1733751651964734000,6.74873388671875,-0.009531798455119133,0.33298195454925295,-0.1556423971325159
1733751651974710000,6.7587099609375,-0.11496551882922648,0.3607838614493608,-0.31882278855442997
1733751651984685800,6.768685791015625,-0.10036825367808341,0.3277732069250196,-0.18595161067843435
1733751651994660900,6.778660888671875,-0.08148731985837221,0.25329298934973776,0.03270516877174377
1733751652004637000,6.788636962890625,-0.09478460832685232,0.1464903187099844,0.30212884338498114
1733751652014613000,6.798613037109375,-0.20653642580658196,-0.003102276864275336,0.372596464318037
1733751652024589000,6.808589111328125,-0.3278323167011142,-0.17842903315387665,0.11779869642853737
1733751652034564000,6.818564208984375,-0.27672610658109187,-0.15981135338023303,-0.06015080958008766
1733751652044540000,6.828539794921875,-0.21252514482736587,0.08925408140234649,-0.04066694143116474
1733751652054515700,6.838515625,-0.3474155535712838,0.3027379882592708,-0.10383914465904236
1733751652064491000,6.848490966796875,-0.5978291150271893,0.2934476704098284,-0.29690321769118305
1733751652074466800,6.858466796875,-0.6666974840700626,0.2386054886318743,-0.45010698949992656
1733751652084443000,6.86844287109375,-0.5927686167672276,0.16945779119096696,-0.47489948545098304
1733751652094419000,6.8784189453125,-0.5077966696634888,0.20415413377992808,-0.3271878813177347
1733751652104394000,6.88839404296875,-0.427880836905539,0.2629267868746072,0.04447276345491409
1733751652114369800,6.898369873046875,-0.1879398618862033,0.3637333589047193,0.37829905987381934
1733751652124346000,6.90834619140625,0.26752602429836986,0.3650467065256089,0.5107862068682909
1733751652134321000,6.91832080078125,0.7472232654199004,0.3056176353488117,0.4612462231516838
1733751652144297000,6.928296875,1.0555042016938327,0.3304767667952925,0.29316227759718894
1733751652154273000,6.93827294921875,0.9812491711765527,0.37732776715625077,0.2438239539325237
1733751652164248800,6.948248779296875,0.707361210630834,0.2920797430574894,0.47797407059073443
1733751652174224000,6.958223876953125,0.6104504039302467,0.09175360660050064,0.657123600038886
1733751652184200000,6.968199951171875,0.5963070200264453,-0.1872777812482789,0.7008359005153179
1733751652194176000,6.978176025390625,0.7108668806642293,-0.42241069839876144,0.7487655264258384
1733751652204151800,6.98815185546875,0.8175763200625776,-0.6762676417741924,0.608512421604991
1733751652214127000,6.998127197265625,0.762972038693726,-0.8837374029081314,0.45308688209354875
1733751652224103000,7.00810302734375,0.6638304042011499,-0.9994339394256472,0.32576632408201694
1733751652234079000,7.018078857421875,0.5715145240753888,-1.1030629484653471,0.19930325968265533
1733751652244053800,7.0280537109375,0.4613061366453767,-1.126117880034074,0.15625556059479712
1733751652254030000,7.038030029296875,0.39704087748378514,-1.1094042072508483,0.16442776113450527
1733751652264006000,7.048005859375,0.27991321218460796,-1.072230149436742,0.0692769498437643
1733751652273982000,7.05798193359375,0.13247837916612623,-1.0181682313162832,-0.15540975742042062
1733751652283957000,7.06795703125,0.09811053787916899,-0.9256012259736657,-0.20466975515186786
1733751652293932800,7.077932861328125,0.23667408217787742,-0.9079154932878911,-0.09529168106615543
1733751652303909000,7.0879091796875,0.4898135614663362,-0.9038816346619277,0.10767653086483478
1733751652313884000,7.0978837890625,0.7656485644266009,-0.7244231853950768,0.3277209652811289
1733751652323860000,7.10785986328125,0.781694859342277,-0.4122902498681098,0.2698492065489292
1733751652333835800,7.117835693359375,0.6711500795647501,-0.194399851680547,-0.036461306434869764
1733751652343812000,7.12781201171875,0.37892449829578395,0.32167759346365926,-0.2621463770866394
1733751652353787000,7.137786865234375,-0.3707259942710399,0.686661536951363,-0.4921311907589435
1733751652363763000,7.147762939453125,-0.9677344405651092,0.49722076898291706,-0.6953297043144703
1733751652373739000,7.157739013671875,-0.9638654901772737,0.17417291007936,-0.6538122835338115
1733751652383714000,7.167714111328125,-0.6570224777519702,-0.24424627099782226,-0.6506096881002187
1733751652393689900,7.17768994140625,-0.1725762885376811,-0.6625033933810889,-0.6380196711182594
1733751652403666000,7.187666015625,0.2866366752207279,-0.9298945392534136,-0.7137520807117224
1733751652413642000,7.19764208984375,0.5699094269663095,-0.9002892361931503,-0.7161912905573844
1733751652423616800,7.20761669921875,0.6418254931420088,-0.6415284098915756,-0.48896834281384943
1733751652433593000,7.217593017578125,0.5627107476338744,-0.32126068322584034,-0.24998890630304813
1733751652443569000,7.22756884765625,0.5087859729617834,0.028060119444876908,-0.1143593696296215
1733751652453545000,7.237544921875,0.5027937468096614,0.23219196832776068,-0.14152794706225394
1733751652463520000,7.24752001953125,0.4926140058398246,0.20311551144719123,-0.30930911027789115
1733751652473496000,7.25749609375,0.2839806077539921,0.2297320079550147,-0.3653741118490696
1733751652483472000,7.267471923828125,-0.14982289719879627,0.41513738292753694,-0.26082243500649926
1733751652493447200,7.277447265625,-0.5102513693392277,0.5472125881202519,-0.2202361575961113
1733751652503423000,7.287423095703125,-0.5601227769672871,0.4857806526884436,-0.15509528464376926
1733751652513398800,7.297398681640625,-0.3344540729284286,0.26848171758800743,-0.13965689249336719
1733751652523375000,7.307375,0.020056115078926084,0.08233867599070072,-0.2158516589015722
1733751652533350000,7.317349853515625,0.5131584889575839,-0.19380086287409065,-0.25750293519496914
1733751652543326000,7.327325927734375,0.846130798895657,-0.3267982974782586,-0.18829145180284976
1733751652553302000,7.337302001953125,0.76849430924654,-0.1928559832394123,-0.14567220726013183
1733751652563278000,7.347278076171875,0.48193771352469916,-0.0019856208592653273,-0.03369768694043159
1733751652573252900,7.3572529296875,0.1461520997315645,0.07679127099663019,0.03601706979870796
1733751652583229200,7.367229248046875,-0.009601064299046993,-0.09934913976341485,0.04039572327435016
1733751652593205000,7.377205078125,0.055769818016886706,-0.3293663944005966,0.03457622334063053
1733751652603180000,7.387179931640625,0.2623340086132288,-0.4392395585268736,-0.03885317000746727
1733751652613155800,7.39715576171875,0.41922172963172194,-0.3192226015269756,-0.06332359439730643
1733751652623132000,7.4071318359375,0.28273206899762154,0.03660305299311876,0.2078834565013647
1733751652633108000,7.41710791015625,-0.02392185059636831,0.42536505469232794,0.5011176302909851
1733751652643082800,7.427082763671875,-0.2847492540389299,0.6679325788229703,0.7400619954884052
1733751652653059000,7.43705908203125,-0.3426949547901749,0.677551178778708,0.7884393651664257
1733751652663035000,7.447034912109375,-0.03928162455260754,0.5031175719365477,0.664509034115076
1733751652673010000,7.457010009765625,0.33614129536300896,0.22906331491321325,0.41268940525352954
1733751652682986000,7.466986083984375,0.763464498385787,-0.0339914091899991,0.18622224431335924
1733751652692962000,7.476962158203125,1.1503148212447762,-0.29527473970651624,0.11737550258040427
1733751652702937900,7.486937744140625,1.5318778513506055,-0.5059092484816908,0.18153730136752128
1733751652712913200,7.4969130859375,1.9515254051789641,-0.593801174685359,0.2998416092306375
1733751652722889000,7.506888916015625,2.1579954877510668,-0.2693956175625324,0.6558142710059881
1733751652732864800,7.51686474609375,1.6541700598061084,0.4942945062726736,1.051544358152151
1733751652742840000,7.526840087890625,0.48978404311090706,1.2971382443666457,1.0661989064484834
1733751652752815900,7.53681591796875,-0.433988798391819,1.5003724137574432,0.45723874107599255
1733751652762792000,7.5467919921875,-1.0516329132184385,1.2757687086015939,-0.3281529269576072
1733751652772768000,7.55676806640625,-1.3399606102660298,0.8939718697398901,-0.6999848366439342
1733751652782743000,7.566742919921875,-1.6215677668869495,0.5197475119590759,-0.8478595223844051
1733751652792718800,7.57671875,-1.82511348644495,0.26111644951701163,-0.6727391023218632
1733751652802695000,7.58669482421875,-1.5706506495982409,0.05678630158305168,-0.17966624679863452
1733751652812671000,7.5966708984375,-0.9074152886807918,-0.18077157769203184,0.17688859877884386
1733751652822646000,7.60664599609375,-0.1735153229534626,-0.20908990968167782,0.42213410994708533
1733751652832622000,7.6166220703125,0.4219397564187646,-0.029095746102929112,0.4982055422365665
1733751652842598000,7.626597900390625,0.8308709781825542,0.029732290440797803,0.27531507073938843
1733751652852573000,7.636572998046875,1.0693456800416112,0.14168693701624868,-0.1891699882030487
1733751652862548700,7.646548828125,1.0337915515795348,0.3959638959020376,-0.571812630239129
1733751652872525000,7.656525146484375,0.7838362552851438,0.4700900393426418,-0.552970567125082
1733751652882500900,7.6665009765625,0.32781536556631324,0.43706689066290855,-0.30177462311983105
1733751652892476000,7.676475830078125,0.05019581727683544,0.3384089480340481,-0.2013561005592346
1733751652902452000,7.686451904296875,-0.04940671272575855,0.09121990158259868,-0.28229017044901844
1733751652912427800,7.696427734375,0.03229951058030128,-0.05357260023355484,-0.2740460737168789
1733751652922404000,7.706404052734375,0.10996668762862681,-0.17647300371527672,-0.27317455157935616
1733751652932379000,7.71637890625,0.21213760681450367,-0.25800854662954803,-0.21310908219516275
1733751652942355000,7.72635498046875,0.4068301578313112,-0.25825229225754737,-0.09679273327887057
1733751652952330800,7.736330810546875,0.7422130360424518,-0.2396720949500799,-0.05437397974431515
1733751652962306000,7.74630615234375,1.0873726273804902,-0.31959143483936786,-0.039322541084885594
1733751652972281900,7.75628173828125,1.2794263543263078,-0.4097141888350248,-0.007833762365579604
1733751652982258000,7.7662578125,1.3376573017597198,-0.566275454378128,0.059251814913749694
1733751652992233500,7.7762333984375,1.2145678054466842,-0.6840279735773801,-0.03521744385361671
1733751653002208500,7.78620849609375,0.8020131324887275,-0.5933773963153361,-0.009184592452645302
1733751653012184300,7.796184326171875,0.3506722172796726,-0.41628187678754325,0.37894787917137146
1733751653022160600,7.80616064453125,-0.12078911041617393,-0.19379121826291082,0.8437345514088869
1733751653032135400,7.816135498046875,-0.47508521728143094,0.07725742720365524,0.9250883080154657
1733751653042111500,7.826111572265625,-0.8106202173143625,0.48543899964392184,0.7337374686419963
1733751653052087600,7.836087646484375,-1.3408498141907155,0.8779501247435808,0.4313742319792509
1733751653062063400,7.8460634765625,-1.8803706787645815,1.244436581748724,0.1839028614550829
1733751653072038400,7.856038330078125,-2.2536644776970145,1.4280150335550308,0.19036650451123713
1733751653082014500,7.866014404296875,-2.1604652388654646,1.3933862032443285,0.11553893480300903
1733751653091990500,7.875990478515625,-1.5618598787687719,1.3211504035949706,-0.11717676513791084
1733751653101966300,7.88596630859375,-1.0010860905468464,1.2345359499812125,-0.33236265360713
1733751653111941400,7.89594140625,-0.522431051954627,1.2083183896631002,-0.35038697059750556
1733751653121917400,7.90591748046875,-0.2405611527442932,1.3374521345764399,-0.32821371723413467
1733751653131893500,7.9158935546875,-0.18823183057010173,1.4490683429777622,-0.5691127236306667
1733751653141868300,7.925868408203125,-0.3143463737927377,1.4246657231271267,-1.0129179826378822
1733751653151844600,7.9358447265625,-0.4457856191694736,1.1188052919983864,-1.249388066676259
1733751653161820400,7.9458203125,-0.5665705648671835,0.766840112298727,-1.1285025101482868
1733751653171796500,7.95579638671875,-0.7811100451916456,0.6489981612503528,-0.8464245211452245
1733751653181771500,7.965771484375,-0.8879032904159277,0.5237485642939805,-0.5127753348588944
1733751653191747300,7.975747314453125,-0.8576946877002716,0.44652503935992716,-0.22805063073933124
1733751653201723400,7.985723388671875,-0.7028793890416621,0.3913829978525638,-0.0319067118704319
1733751653211698400,7.995698486328125,-0.4278261841088533,0.17697744610607624,-0.085105802616477
1733751653221674500,8.005674560546876,-0.004939136902615428,-0.049888358762860296,-0.044213820257782935
1733751653231650300,8.015650390625,0.4107120042333379,-0.12380875049829482,0.09332418038547038
1733751653241626600,8.025626708984374,0.5117436537235975,-0.1461351485967636,0.20697861661612987
1733751653251601400,8.035601318359374,0.35044659183025356,-0.07153028172850609,0.3355272551178932
1733751653261577500,8.045577392578124,0.1664168891251087,-0.042670097947120664,0.4014887968033552
1733751653271553500,8.055553466796875,0.1438344704389572,-0.07030804645717144,0.3002782470822334
1733751653281529300,8.065529296875,0.20621238148398696,-0.04750877014994621,0.24998598369359967
1733751653291504400,8.07550439453125,0.01810622312016785,0.146596920889616,0.2455582303792238
1733751653301480400,8.08548046875,-0.5082967281401157,0.12995967434346675,0.22859160574823617
1733751653311456500,8.09545654296875,-0.5699756240703165,0.6333183615595102,0.5454600453644991
1733751653321431300,8.105431396484375,-0.767771694060415,0.8977478811472653,0.09821896668970584
1733751653331407600,8.11540771484375,-1.0307118518732488,0.6146767894536257,-0.6547156621143222
1733751653341383400,8.125383544921876,-1.196966390043497,0.5553840580075979,-1.2392974652945994
1733751653351359500,8.135359375,-1.325708651421219,0.7353472419261932,-1.4393579730853439
1733751653361334500,8.14533447265625,-1.5018145753897725,0.6286924553245306,-1.0203481326386332
1733751653371310600,8.155310546875,-1.6522167337812483,0.5035708686619996,-0.38770577064454553
1733751653381286400,8.165286376953125,-1.625138026589155,0.7628700396239757,-0.01269201605170965
1733751653391261400,8.175261474609375,-1.468376123907417,0.7420324187785386,-0.033870413158833976
1733751653401237500,8.185237548828125,-1.210889847586304,0.4835112464517355,-0.06371639310717582
1733751653411213300,8.19521337890625,-0.8651230841353535,0.3384428503036499,0.17115823843330144
1733751653421189600,8.205189697265626,-0.6823135708749294,0.32956396279931066,0.2938809472605586
1733751653431164400,8.215164306640625,-0.729721949390322,0.3018611323595047,0.07497486922442913
1733751653441140500,8.225140380859376,-1.015701914267987,0.0376753583997488,-0.327784093645215
1733751653451116500,8.235116455078124,-0.9595987726435065,0.38741409422159195,-0.3969727806836366
1733751653461092400,8.24509228515625,-1.059803067931533,0.4359136289745569,-0.7252914195969701
1733751653471067400,8.2550673828125,-1.0667913193836807,-0.05581307263672351,-0.9678189039781689
1733751653481043500,8.26504345703125,-0.7364931970909238,-0.08223229300677776,-1.039015131446719
1733751653491019500,8.27501953125,-0.3994777492418885,-0.16806231824457643,-1.1340525454908608
1733751653500994600,8.28499462890625,0.15838088218569754,0.07822247284352779,-0.979127210586518
1733751653510970400,8.294970458984375,0.3114811936199665,0.004610708665847778,-1.1290032992772758
1733751653520946400,8.304946533203125,0.33479309562444687,-0.32926936376690863,-1.1112437707029283
1733751653530922500,8.314922607421876,0.25928631148040293,-0.37318332429528234,-0.7315053256757557
1733751653540897300,8.324897216796876,0.1854360623717308,-0.32146482749581334,-0.3786743229269981
1733751653550873600,8.33487353515625,0.23429683165252208,-0.44607261941730975,-0.38142975911498067
1733751653560849400,8.344849365234374,0.3014864538282156,-0.5665636236697436,-0.5364104774683713
1733751653570824400,8.354824462890624,0.14794073671400546,-0.6463520306557416,-0.4463951293699443
1733751653580800500,8.364800537109375,-0.31673721445202824,-0.7725649196863174,-0.07108166117817163
1733751653590776300,8.3747763671875,-0.745842040194571,-0.8003484141469002,0.28208719522282477
1733751653600752400,8.38475244140625,-1.005252854837477,-0.806674694558978,0.3947100964486599
1733751653610727400,8.3947275390625,-1.0595476318657397,-0.5986573825448751,0.49349984876364467
1733751653620703500,8.404703369140625,-1.0014952558696268,-0.3028764468818903,0.4659383264906704
1733751653630679300,8.41467919921875,-0.8643009540975093,-0.148836808770895,0.3579239419735968
1733751653640655600,8.424655517578126,-0.6158692141085863,-0.24646716191768644,0.24955051488578317
1733751653650630400,8.43463037109375,-0.5352484479516745,-0.6031640463143587,0.08784282636493444
1733751653660606500,8.4446064453125,-0.6632920595407485,-0.9965817648649216,-0.044610564490407706
1733751653670582500,8.45458251953125,-0.6375427012562751,-1.294099899584055,0.052440673594176763
1733751653680557600,8.4645576171875,-0.7341121471732854,-1.4673486805558205,0.012928820482268929
1733751653690533400,8.474533447265625,-0.5762292776376009,-1.1705974385559559,0.30270700859911737
1733751653700509400,8.484509521484375,-0.532308302846551,-0.7413619721710681,0.1981763745445758
1733751653710485500,8.494485595703125,-0.5760995137780904,-0.5769429788649082,-0.18454210920669137
1733751653720460300,8.504460205078125,-0.4174947597086429,-0.2206184349119663,0.016403072464093563
1733751653730436600,8.5144365234375,-0.4673655828148126,0.03648936348557472,0.23051563261337576
1733751653740412400,8.524412353515626,-0.7276081721067428,-0.3444242628008127,0.24675869221016763
1733751653750387500,8.534387451171876,-1.0583633905172347,-0.8316022150665521,0.15686675129570066
1733751653760363300,8.54436328125,-0.986265538033843,-1.0266215138196944,0.15541538344360886
1733751653770339600,8.554339599609374,-0.7178770516872406,-1.2279659239411354,0.12342530413866043
1733751653780315400,8.5643154296875,-0.35123277377188206,-1.377784144964814,-0.11116868382953107
1733751653790290400,8.57429052734375,0.09187398157715797,-1.3558347634851933,-0.22717918166704473
1733751653800266500,8.5842666015625,0.5193652346432208,-1.1538859577298164,-0.16510507587417958
1733751653810242300,8.5942421875,0.831667681518197,-0.8754419413149356,0.07812156975232064
1733751653820217300,8.60421728515625,0.8560217860519885,-0.6881091054111719,0.5069165988933295
1733751653830193400,8.614193359375,0.6965010861814022,-0.6506377451509237,0.7817330724608152
1733751653840169500,8.62416943359375,0.7507932328611612,-0.7551432447642088,0.8771961645711213
1733751653850145300,8.634145263671876,0.9285159443765878,-0.9123603438675403,0.6270964913699776
1733751653860120600,8.64412060546875,1.225062603715062,-0.9691028063088655,0.3165240466253832
1733751653870096400,8.654096435546874,1.4848463433235883,-0.9574778349667787,0.10657262474354356
1733751653880072400,8.664072509765624,1.567849036180973,-1.0419500158548354,-0.11540745391044765
1733751653890048500,8.674048583984375,1.512377908849716,-1.1197919649481773,-0.12933938702065498
1733751653900023600,8.6840234375,1.245546004295349,-1.2085948685169219,-0.026413959673047063
1733751653909999400,8.693999267578125,0.7218564767122269,-1.175078383362293,0.1342636916803196
1733751653919975400,8.703975341796875,0.15384440779983996,-0.9882570041120051,0.4352552746636793
1733751653929950500,8.713950439453125,-0.3633487435013056,-0.805744135710597,0.7077453876428306
1733751653939926300,8.72392626953125,-0.6728320413023233,-0.5984679974526167,0.9146810419000685
1733751653949902600,8.733902587890626,-0.6280366217643022,-0.4792354688286781,1.046380034191534
1733751653959878400,8.74387841796875,-0.36930969773232936,-0.4003694373846054,1.1181722547918558
1733751653969853400,8.753853515625,-0.014274609068036079,-0.41039281874895095,1.0875997141346334
1733751653979829500,8.76382958984375,0.21879648018181322,-0.5441892947763204,1.0178767010238021
1733751653989805300,8.773805419921874,0.19506722954809663,-0.7684586534112692,0.9944118734799325
1733751653999780400,8.7837802734375,0.08757949925363064,-0.9887918416410684,1.0068313562005757
1733751654009756400,8.79375634765625,0.04061258089542389,-1.132000873658061,0.949124505706504
1733751654019732200,8.803732177734375,0.1367898126244545,-1.2244523628622292,0.8899965363681316
1733751654029708300,8.813708251953125,0.30177988381683823,-1.2571715601593256,0.8886514053694904
1733751654039683300,8.823683349609375,0.4747188681870699,-1.129217964941263,1.0184958558354527
1733751654049659100,8.8336591796875,0.4947960260540247,-1.0079828643232582,1.0219240036532282
1733751654059635500,8.843635498046876,0.48102469033300876,-1.004759226101637,0.9202143453035503
1733751654069610200,8.8536103515625,0.5353530773699283,-0.9821727157622575,0.7991223794832826
1733751654079586300,8.86358642578125,0.5946960776984691,-0.9959627561837434,0.6327548093926161
1733751654089562400,8.873562255859374,0.5768418565779924,-0.9624702364265918,0.5582071891369298
1733751654099538400,8.883538330078125,0.46535599655807014,-0.9194821585714816,0.628518998453766
1733751654109513200,8.89351318359375,0.32429683605134485,-0.9536299273669719,0.6923625250719487
1733751654119489500,8.903489501953125,0.2232680726379156,-1.0404723445177078,0.6512430175676941
1733751654129465300,8.91346533203125,0.2728986572474241,-1.0968722771316766,0.6754061295740306
1733751654139441200,8.923441162109375,0.31823066788017745,-1.239678573566675,0.6864012785799801
1733751654149416200,8.933416259765625,0.4004705596715212,-1.3306886317908764,0.6709180243745446
1733751654159392300,8.943392333984375,0.5780459716707468,-1.320060854792595,0.7065906646497547
1733751654169368300,8.953368408203126,0.705211046859622,-1.325872171419859,0.6203668908540159
1733751654179343000,8.963343017578126,0.6417495052963494,-1.3200374739170073,0.45850792076159264
1733751654189319400,8.9733193359375,0.5756237129598856,-1.2281623232960701,0.2921002013236284
1733751654199295200,8.983295166015624,0.5300128853857516,-1.2383499553114174,0.12561565378978848
1733751654209271600,8.993271484375,0.4885895726293325,-1.393808228048682,-0.020113544354587794
1733751654219246300,9.003246337890625,0.41886663258373735,-1.5692857909858227,0.03196728295125067
1733751654229222400,9.013222412109375,0.34165012191236016,-1.7618512668460606,0.2197664942577481
1733751654239198200,9.0231982421875,0.2569926475852728,-1.9726789601057766,0.38002252266556025
1733751654249173500,9.033173583984375,0.21912147435247897,-1.9721137274384497,0.6548246023815125
1733751654259149300,9.0431494140625,0.20912790360450742,-1.774191692981124,0.9960589830998331
1733751654269125000,9.053125,0.2643763280957937,-1.6553776820302009,1.129558595072478
1733751654279101400,9.063101318359376,0.37480011184215545,-1.586118852365017,1.08543106485866
1733751654289076200,9.073076171875,0.5028711959600448,-1.4663567469090222,1.0438919437028467
1733751654299052300,9.08305224609375,0.6167974348694085,-1.3811685267060994,0.9278230667416005
1733751654309028400,9.0930283203125,0.6061591364771127,-1.2069921094954013,0.7720042901288717
1733751654319003400,9.10300341796875,0.5379711509138345,-0.8724223012328147,0.5857970241889358
1733751654328979200,9.112979248046875,0.3727133686959743,-0.5906681373566389,0.2857752360858023
1733751654338955500,9.12295556640625,0.23201310462951658,-0.41125908018946644,-0.03439122216254473
1733751654348931300,9.132931396484375,0.11125614291727542,-0.36816052769720553,-0.13234116265252233
1733751654358906400,9.14290625,0.01907996352314949,-0.3945733183264732,-0.000950140331685543
1733751654368882400,9.15288232421875,0.03244885592311621,-0.38735739559829235,0.2240159683957696
1733751654378858200,9.162858154296876,0.14546937816441058,-0.3448462876051664,0.5849556049287319
1733751654388834300,9.172834228515624,0.3186500623360276,-0.4191261603027582,0.8467232118308544
1733751654398809300,9.182809326171874,0.5745458545953035,-0.5560585962682962,0.8716241365924478
1733751654408785400,9.192785400390624,0.8850801227539777,-0.7427005272984504,0.5630670137256384
1733751654418761200,9.20276123046875,1.1150400942459702,-0.886955853497982,0.25364596750587226
1733751654428736300,9.212736328125,1.0602043422088026,-0.9386007005393504,0.099927962564677
1733751654438712300,9.22271240234375,0.8267331477254629,-0.8899328234821557,0.16178396862745284
1733751654448688400,9.2326884765625,0.5597033825114369,-0.8040273949205875,0.1992645351074636
1733751654458664400,9.24266455078125,0.2761956529662013,-0.7076163544356823,0.18005685355141757
1733751654468639500,9.252639404296875,0.10905541800260543,-0.5129413390755653,0.22292130502685903
1733751654478615300,9.262615234375,0.06705342857539653,-0.2959258970916271,0.1693082266524434
1733751654488591400,9.27259130859375,0.12457447417378426,-0.11910977902710437,0.05674670022502541
1733751654498566400,9.28256640625,0.21333120051324367,-0.0009913491249084472,-0.06151625271439552
1733751654508542200,9.292542236328124,0.3230570651233196,0.043778935971856114,-0.10710457619577646
1733751654518518300,9.302518310546875,0.3937833369925618,0.05648936446309089,0.08808043451309204
1733751654528494300,9.312494384765625,0.3379743560090661,0.22236790892779826,0.5474971041500568
1733751654538469400,9.322469482421875,0.043968905586004255,0.6057365271508693,1.1062614522457122
1733751654548445200,9.332445068359375,-0.2966321456648409,0.8142167805016041,1.2545488104403018
1733751654558421200,9.342421142578125,-0.25664617223516106,0.7680372131288051,0.795671362246573
1733751654568396300,9.352396240234375,0.1259095221698284,0.45163142258822914,0.058247314046323294
1733751654578372400,9.362372314453125,0.7383095257978886,0.01847206075787544,-0.736261434161663
1733751654588348400,9.372348388671876,1.333949094891548,-0.381087813809514,-1.2070546533375979
1733751654598324200,9.38232421875,1.6784826632857321,-0.7352414434641599,-1.1804226669996976
1733751654608299300,9.39229931640625,1.664879669868946,-0.9641939914792775,-0.763960465209186
1733751654618275300,9.402275390625,1.332003806042671,-1.0325111563801765,-0.3372688380882144
1733751654628251400,9.41225146484375,0.9109826988387852,-1.1413690059840678,-0.13143062367886305
1733751654638226200,9.42222607421875,0.8403823914367705,-0.9678472532898187,0.04983838214129209
1733751654648202500,9.432202392578125,0.9008727351695298,-0.554673279389739,0.10216536622792481
1733751654658178300,9.44217822265625,0.5954583673078566,-0.35546763486266136,-0.16679682835340498
1733751654668154000,9.452154052734375,0.039283231987804174,-0.1564005220234394,-0.436968983246386
1733751654678129400,9.46212939453125,-0.63648457050547,-0.03868891935646534,0.17030688230097293
1733751654688105500,9.47210546875,-1.52113156253919,-0.13698621197938918,1.197026011276245
1733751654698081300,9.482081298828126,-1.9214257427304982,-0.1260574062079191,1.8567948651269077
1733751654708057300,9.492057373046874,-1.8482113073073327,0.16053309178352354,1.800862842285633
1733751654718032400,9.502032470703124,-1.5933055489987134,0.5762222633749247,1.0919351129904389
1733751654728008200,9.51200830078125,-1.2190905435681343,0.37029812424778935,0.4781377367198467
1733751654737984500,9.521984619140625,-0.7297969143226742,0.2587134800285101,-0.42507746992260215
1733751654747959300,9.531959228515625,0.029298282937705516,0.19087094690203665,-0.8511042033940553
1733751654757935400,9.541935302734375,0.3504778637513518,0.15830547886192797,-0.7996212689161301
1733751654767911400,9.551911376953125,0.28408903656452894,0.4169149139940738,-0.23169074080735444
1733751654777887200,9.56188720703125,-0.023235037375986575,0.7038853512138128,0.2090177212283015
1733751654787862300,9.5718623046875,-0.18347528369277716,1.140755257999897,0.43222675715535874
1733751654797838300,9.58183837890625,-0.14509762224256992,1.5368220297545194,0.4060410532802343
1733751654807814400,9.591814453125,0.11790040323734283,1.7418647098720073,0.06784370217025279
1733751654817790200,9.601790283203124,0.4208955080628395,1.8077081781357525,-0.5694660671129822
1733751654827765200,9.61176513671875,0.5988771627753973,1.5971879433900118,-1.3669275276467203
1733751654837741300,9.6217412109375,0.48611909086257216,1.1577736128181217,-2.1603397127896544
1733751654847717400,9.63171728515625,-0.022806875091791152,0.4210071517437696,-2.3862556695878503
1733751654857692200,9.641692138671875,-0.7539306541040539,-0.21829846753180027,-2.1296891384601593
1733751654867668500,9.65166845703125,-1.4681132351875303,-0.32232816632688044,-1.3254606680095196
1733751654877644300,9.661644287109375,-2.0329767769411204,0.1480786838799715,0.15505495263338087
1733751654887620000,9.6716201171875,-2.351498536722362,0.5358884994208812,1.3088514785140752
1733751654897595400,9.681595458984376,-2.1234072817116973,0.5542115070968866,1.5129308665573595
1733751654907571200,9.6915712890625,-1.4139444226264952,0.38123219071626663,1.0783692367136477
1733751654917547300,9.70154736328125,-0.310650295753777,0.16496844388246534,0.6604425153285265
1733751654927522300,9.711522216796874,0.620556495141983,-0.1772615237444639,0.3861182091921568
1733751654937498400,9.721498291015624,1.1151771646291018,-0.4793056114554405,0.175640644544363
1733751654947474200,9.73147412109375,1.3188508944809436,-0.6809224087774753,-0.18261808234155177
1733751654957450500,9.741450439453125,1.197035071365535,-0.8160878350704908,-0.5418751726150512
1733751654967425300,9.75142529296875,0.7165764904826879,-0.807241680791974,-0.6763590463846921
1733751654977401300,9.7614013671875,0.1102548569202423,-0.5369733720481396,-0.5082797770053148
1733751654987377400,9.77137744140625,-0.424687886083126,-0.08645487913787364,-0.05483867464661598
1733751654997352700,9.781352783203126,-0.7633686367958784,0.13038637532293795,0.3022287966281175
1733751655007328500,9.79132861328125,-0.8837047427475452,0.571305265238881,0.3571586566895246
1733751655017304600,9.8013046875,-0.9514373857587576,0.8976952741771936,0.04790390694737434
1733751655027280600,9.81128076171875,-1.179711303859949,1.119206858536601,-0.3938327290922403
1733751655037255400,9.82125537109375,-1.4869158430740237,1.2878957842469214,-0.5517424866348505
1733751655047231700,9.831231689453125,-1.6889710318133233,1.2939216204077004,-0.464832264944911
1733751655057207600,9.84120751953125,-1.58117087456882,1.4004098182708025,-0.23914427168369293
1733751655067183600,9.85118359375,-1.372221250140667,1.310160807546973,-0.07534019540548324
1733751655077158700,9.86115869140625,-1.0266472327828406,1.0746920095056294,0.012297171515226364
1733751655087134700,9.871134765625,-0.5051216052353382,0.8359680090606212,0.041456045982241625
1733751655097110500,9.881110595703126,0.08036006939411162,0.621936551323533,-0.07044190196990967
1733751655107085600,9.89108544921875,0.42944121809005736,0.526177837267518,-0.1788169364929199
1733751655117061600,9.9010615234375,0.5021984112650155,0.5123883813679218,-0.16894202368855477
1733751655127037400,9.911037353515624,0.38284664017558095,0.5302560464918613,-0.13870353729128837
1733751655137013800,9.921013671875,0.06126549282371997,0.6143915427714586,-0.07267185297906398
1733751655146988500,9.930988525390624,-0.228308404892683,0.804559894362092,0.013179215046763419
1733751655156964600,9.940964599609375,-0.3945160351812839,0.9745447051018475,0.012006664136052132
1733751655166940700,9.950940673828125,-0.4336737410932779,1.0452934810638428,-0.07842354837357997
1733751655176915700,9.960915771484375,-0.48523324793875217,1.0213304216742516,-0.12926409329473973
1733751655186891500,9.9708916015625,-0.5091618205368519,1.0122253241986037,0.013550970968604087
1733751655196867600,9.98086767578125,-0.423863710218668,1.028612395375967,0.36381168483793735
1733751655206843600,9.99084375,-0.2776607570827007,1.0135779078513383,0.6554793399631976
1733751655216818700,10.000818603515626,0.06694295393824577,0.9582166706353425,0.848161720201373
1733751655226794500,10.01079443359375,0.5112620076864958,0.8503875795572996,0.8262012328058481
1733751655236770600,10.0207705078125,0.7986632375389338,0.6913397578954696,0.6263847629040479
1733751655246745600,10.03074560546875,0.9570119710206985,0.6014829613596201,0.47095863887071604
1733751655256721400,10.040721435546875,1.0234306088238954,0.5363683918923139,0.2626642634809017
1733751655266697700,10.05069775390625,0.9618699324458837,0.5865653782129288,0.13507014922499655
1733751655276673500,10.060673583984375,0.6565466769337653,0.7388453131750226,0.2985843026459217
1733751655286648600,10.070648681640625,0.20364508827924727,0.8392658815622329,0.5009995568692683
1733751655296624600,10.080624755859375,-0.11201543685197829,0.8874138263985514,0.6893757643461227
1733751655306600400,10.090600341796875,-0.17678513840436935,0.9356798446565866,0.7860510087251663
1733751655316576500,10.100576416015626,-0.08376958557665348,0.9223214736506342,0.7437585119187832
1733751655326551600,10.110551513671876,0.07601064201295375,0.8552920104727149,0.5536036043316126
1733751655336527600,10.120527587890624,0.2900508675783872,0.8014552063450217,0.2756780588328838
1733751655346503400,10.13050341796875,0.44879123072624205,0.751604841504991,-0.0338280353218317
1733751655356478500,10.140478515625,0.4810469021648168,0.7102014024928212,-0.36150574598312374
1733751655366454500,10.15045458984375,0.27616438104510305,0.817698777398467,-0.36531858226954933
1733751655376430600,10.1604306640625,-0.014677929171919821,1.0674129584133625,-0.16785364392995833
1733751655386406700,10.17040673828125,-0.2989315086483955,1.210970949998498,0.1685749439418316
1733751655396381700,10.180381591796875,-0.5122457580268382,1.1118471434235573,0.4907850368469953
1733751655406357500,10.190357421875,-0.4125853603571653,0.9379700014203787,0.7364876441329717
1733751655416333600,10.20033349609375,-0.08275777818560599,0.7653484124362468,0.8860685492694378
1733751655426308600,10.21030859375,0.17672317908406257,0.673683105173707,0.882556157234311
1733751655436284400,10.220284423828126,0.3450777582734823,0.5594017692163586,0.9138409378141165
1733751655446260500,10.230260498046874,0.5706254662811756,0.5632753957793116,0.8168553123116493
1733751655456236500,10.240236572265625,0.7362941673874854,0.5260936661154031,0.8673878141969442
1733751655466211600,10.250211669921875,0.8534791158318519,0.5245215944930911,1.0141823034852742
1733751655476187400,10.2601875,0.9259563230216502,0.4748661677032709,1.1276152059197426
1733751655486163700,10.270163818359375,1.0478671309441328,0.34234774878770113,1.0650737018108367
1733751655496138500,10.280138427734375,1.0627134024202822,0.285910991294682,0.6809820300102234
1733751655506114600,10.290114501953125,1.1659031432598828,0.2565370127722621,0.38851124180853364
1733751655516090600,10.300090576171876,1.2531313448578119,0.2004386934533715,0.2611193721264601
1733751655526066400,10.31006640625,1.198629939341545,0.13046031734198332,0.12577099048197268
1733751655536041500,10.32004150390625,0.9505185173481703,0.17454159726127982,-0.20371990708112717
1733751655546017500,10.330017578125,0.5206079281806946,-0.01001271383985877,-0.43946284588873386
1733751655555993600,10.33999365234375,-0.04179156154692173,-0.37092648527920247,-0.35099487336277957
1733751655565969400,10.349969482421875,-0.3292793006390333,-0.06346592547744512,-0.019705986467003823
1733751655575944700,10.35994482421875,-0.45527562430948015,0.345213513482362,0.2663537656486034
1733751655585920500,10.36992041015625,-0.3697404903650284,0.44330534666106103,0.32454934950768943
1733751655595896600,10.379896484375,-0.014319032731652259,0.5350878505624831,0.060547115421295164
1733751655605871600,10.38987158203125,0.2748375163555145,0.4772951484158635,-0.6005430501610041
1733751655615847700,10.39984765625,0.4130570695221424,0.3524234448611736,-1.013306105172634
1733751655625823500,10.409823486328126,0.3484773375838995,0.2802440515741706,-1.0453250452458858
1733751655635799600,10.419799560546876,0.15802227800637483,0.10948474933058022,-0.7305892337441444
1733751655645774600,10.429774658203126,-0.11094809988141059,-0.09442980353981256,-0.27239947555363175
1733751655655750400,10.43975048828125,-0.28199586367756124,-0.22770868543386458,0.36509880203902717
1733751655665726700,10.449726806640625,-0.2904173628032207,-0.2564396898776293,0.8008563636690378
1733751655675701500,10.459701416015625,-0.20276129118204117,-0.15370938324332237,0.6905290260344743
1733751655685677600,10.469677490234375,0.003712590782344341,0.08619286720082163,0.39746085646152496
1733751655695653600,10.479653564453125,0.1532809286981821,0.4088276152588427,0.0833066442400217
1733751655705629700,10.489629638671875,0.1046563062608242,0.7177449497401714,-0.13635492833852766
1733751655715604500,10.4996044921875,-0.2647229495763779,0.8576950530264527,-0.07168167289793491
1733751655725580500,10.50958056640625,-0.7363888599336147,0.8683275061998516,0.18143091838359832
1733751655735556600,10.519556640625,-1.0637459603384136,0.7667316834881901,0.3624403964847326
1733751655745532400,10.529532470703124,-1.063394662682712,0.6244013340018689,0.48281917253434653
1733751655755507500,10.539507568359374,-0.5552893654614687,0.3961800228707492,0.6113742407768964
1733751655765483500,10.5494833984375,0.22473726840764283,0.22477840413562952,0.3779477622181177
1733751655775459600,10.55945947265625,0.8788932508125901,0.17986980654671786,-0.0667804568529129
1733751655785434400,10.569434326171875,1.190313946416974,0.054396191576123236,-0.505153753939271
1733751655795410700,10.57941064453125,1.0221487523198127,-0.010594532315805554,-0.7085948440790176
1733751655805386500,10.589386474609375,0.42769934285879135,0.05266081915087997,-0.6829401783406734
1733751655815362600,10.599362548828125,-0.030714287215471266,0.22811229779869316,-0.3688262981295585
1733751655825337600,10.609337646484375,-0.4425646112963557,0.4123738730309531,-0.08423252691328525
1733751655835313700,10.619313720703126,-0.5034747148111463,0.5200422936545684,0.07368950558900833
1733751655845289500,10.62928955078125,-0.3221916804656386,0.4422527688682079,0.0276847102612257
1733751655855264800,10.6392646484375,0.03318593802601099,0.23037242475040257,0.05684416925013065
1733751655865240600,10.649240478515624,0.462405914580822,-0.010587883379310369,0.010323825615644454
1733751655875216400,10.65921630859375,0.7899471393808722,-0.23332860767487434,-0.24973113214969633
1733751655885192700,10.669192626953125,0.8714140009731054,-0.45185343130845573,-0.5074129310429096
1733751655895167500,10.67916748046875,0.7088236843988299,-0.538350834413804,-0.483743301641941
1733751655905143600,10.6891435546875,0.4115966415807605,-0.49618700548838823,-0.18162497965097427
1733751655915119600,10.69911962890625,0.16354747116863727,-0.4495052242144942,0.14851824434101582
1733751655925094700,10.7090947265625,0.0945171895623207,-0.43272889799121766,0.41844694586694237
1733751655935070500,10.719070556640625,0.2483639354497194,-0.46741895696986463,0.4249889148563146
1733751655945046800,10.729046875,0.5153969155341387,-0.5594533898057416,0.2411965280383825
1733751655955022600,10.739022705078124,0.7811801878184079,-0.5944581772893667,0.0516787493109703
1733751655964997600,10.74899755859375,1.093566805845499,-0.6755646811366081,-0.010327332746982575
1733751655974973700,10.7589736328125,1.2182289583027361,-1.1041356922633945,0.04238134413361549
1733751655984949500,10.768949462890625,1.2353048885270952,-1.226154928996414,0.2660059751242399
1733751655994924800,10.7789248046875,1.062988127708435,-1.1074630100551992,0.3508557571530342
1733751656004900900,10.78890087890625,0.8842916027247906,-0.9416527085211127,0.4148603195518255
1733751656014877000,10.798876953125,0.7514461438119411,-0.8912417871888726,0.43579380198717116
1733751656024852700,10.808852783203125,0.7573451387226581,-0.7969458391617983,0.3691249888151884
1733751656034827800,10.818827880859375,0.8347808451026678,-0.7161229745615273,0.31234160984158515
1733751656044803800,10.828803955078126,0.9271382262825966,-0.7084389228649437,0.19688859975636006
1733751656054779600,10.838779541015626,1.0089239445656537,-0.6584455693576484,0.030875615257024765
1733751656064756000,10.848755859375,0.9862219911530613,-0.5215552189681679,-0.1555903746843338
1733751656074730800,10.858730712890624,0.6891250044554471,-0.37412579277716573,-0.3825356745302677
1733751656084706800,10.868706787109375,0.14292261629104613,-0.13318974230587483,-0.3952168769270181
1733751656094683000,10.878682861328125,-0.23423370328843593,0.04215133477002382,-0.20509704065322876
1733751656104658000,10.888657958984375,-0.3125567138969898,0.023952391865104436,0.12349077059030532
1733751656114633700,10.8986337890625,-0.055906888400018215,-0.12184592599272727,0.3655255030184984
1733751656124609800,10.90860986328125,0.421081093762815,-0.23202786380723117,0.4058405622720718
1733751656134585900,10.9185859375,0.8033709768384695,-0.29389029961079355,0.276985049778223
1733751656144561000,10.928560791015625,0.8236579780638218,-0.2351205691255629,0.1708575019210577
1733751656154536700,10.93853662109375,0.6227390998780727,-0.1612827411070466,0.13200842356681822
1733751656164512800,10.9485126953125,0.43815468589961526,-0.08536269998699426,0.14780571215748786
1733751656174487800,10.95848779296875,0.3313064225524664,-0.006413812565058469,0.04684650684893131
1733751656184463600,10.968463623046874,0.1371679982870817,0.115310532874614,-0.0798562115252018
1733751656194440000,10.97843994140625,-0.16697890692204237,0.3971677187338471,-0.13621055143177507
1733751656204414700,10.988414794921875,-0.7360366854950785,0.777839937479794,-0.09038637336790561
1733751656214390800,10.998390869140625,-1.2022113049596548,1.0304477941095829,-0.04883680388331413
1733751656224366800,11.008366943359375,-1.2607675388246773,1.0486886764600873,0.021264321824908256
1733751656234343000,11.018343017578125,-0.853393191114068,0.9905845702767372,0.23949206220805644
1733751656244317700,11.028317626953125,-0.1686708055317402,0.8435913435459137,0.3737520640939474
1733751656254294000,11.0382939453125,0.7463274856239557,0.6646046034440398,0.2674836464613676
1733751656264269800,11.048269775390626,1.6013269428908823,0.5193967988252639,-0.008335282146930694
1733751656274245600,11.05824560546875,2.0515973062589765,0.5089890943184495,-0.17417349460124967
1733751656284221000,11.068220947265624,2.075525878857076,0.5911731642693281,-0.2394283493220806
1733751656294196700,11.07819677734375,1.6157877221807837,0.6957540672063827,-0.2838952675580978
1733751656304172800,11.0881728515625,0.9431827676326036,0.8043082576885819,-0.20304069264531135
1733751656314147600,11.098147705078125,0.4683326742812991,0.7137260694876313,-0.25535014107525345
1733751656324124000,11.1081240234375,0.04825491234213113,0.7861290423974394,-0.5854232224404812
1733751656334099700,11.118099609375,-0.46524172252863644,0.567715131792426,-0.7606418421804905
1733751656344076000,11.128075927734375,-0.8877101789966225,0.14147709365785122,-0.7175263385534286
1733751656354050800,11.13805078125,-1.4036387171894311,0.46047640782296656,-0.3646978200227022
1733751656364027000,11.14802685546875,-1.9021406120240687,0.885678088647127,-0.08263502858877181
1733751656374003000,11.1580029296875,-1.8341247681573032,0.7897562929838895,-0.133185650652647
1733751656383978000,11.16797802734375,-1.252420566239953,0.7675795324891805,-0.40161797614097594
1733751656393953800,11.177953857421874,-0.8394342238664626,0.43076749825775623,-0.49094344227910036
1733751656403929600,11.1879296875,-0.4443324977517128,0.29167876104116436,-0.5507365244626998
1733751656413906000,11.197906005859375,-0.07487608502507209,0.11984101591110229,-0.7119166819781064
1733751656423880700,11.207880615234375,0.0035898411855101583,-0.1844856297791004,-1.0413859522312878
1733751656433856800,11.217856689453125,0.0496615642696619,-0.5418541298270225,-1.2162193720459937
1733751656443832800,11.227832763671875,0.1766524519354105,-0.8770949692189693,-0.9864233589440584
1733751656453809000,11.237808837890626,0.36272009020894763,-1.0861790336817503,-0.4156611145406961
1733751656463783700,11.24778369140625,0.567265634459257,-0.7453320448458194,0.22149697131216525
1733751656473760000,11.257760009765626,0.31366029122471806,-0.26991525752246376,0.8227104680806397
1733751656483735800,11.26773583984375,-0.07141513091623783,-0.10219430006146431,0.9349199661999941
1733751656493710800,11.2777109375,-0.027699323308467864,0.06677168902456761,0.7417278828740119
1733751656503687000,11.28768701171875,-0.053576984147727484,0.36975101175904274,0.6101198568016291
1733751656513662700,11.297662841796875,-0.49213177528083324,0.6738637224376202,0.17509060944616794
1733751656523638800,11.307638671875,-0.7044517529249191,0.7279226448833942,-0.5181552743315696
1733751656533613800,11.31761376953125,-0.6749480105429887,0.6964233447700738,-0.758026106724143
1733751656543590000,11.32758984375,-0.7871978406727314,0.6632938131064177,-0.9483832588851452
1733751656553565700,11.337565673828125,-0.9273843099981546,0.7897019324481487,-0.8821545906960964
1733751656563541000,11.347541015625,-1.1069564487725496,0.9458651385843754,-0.5614683463573455
1733751656573516800,11.357516845703126,-1.1706968072772026,0.9225713567584752,-0.3108931645989418
1733751656583492900,11.367492919921874,-1.0978215406805276,0.6297066008031368,-0.2281967612117529
1733751656593469000,11.377468994140624,-0.8097031024694442,0.17445874128341674,-0.3726315356314182
1733751656603444000,11.38744384765625,-0.23756328610256314,-0.17718144424557686,-0.47645782080888743
1733751656613419800,11.397419677734375,0.3925298298001289,-0.31856735248863693,-0.3680617434978485
1733751656623395800,11.407395751953125,0.6511078468807041,-0.4761287349849939,-0.25308570327460767
1733751656633371000,11.417370849609375,0.6066571491271256,-0.634310879728198,-0.2993108633548021
1733751656643346700,11.4273466796875,0.34277065037488935,-0.617555559760332,-0.6241571499824523
1733751656653323000,11.437322998046875,0.15973054322898386,-0.5088403334975242,-0.8181599651694297
1733751656663298800,11.447298828125,-0.022241569359228015,-0.5050637375682592,-0.8340750349208712
1733751656673273900,11.45727392578125,-0.17687573929727077,-0.5192015685141086,-0.8158826678872108
1733751656683249700,11.467249755859376,-0.31353929519355295,-0.3567722877204418,-0.47286301118731494
1733751656693226000,11.47722607421875,-0.6271364580541848,-0.13937866007387636,-0.17718495137691498
1733751656703200800,11.48720068359375,-0.9735206227511167,0.04058978454172611,-0.27201661371588703
1733751656713176800,11.4971767578125,-1.2119570384263991,0.07644318821132183,-0.5261939116194844
1733751656723153000,11.50715283203125,-1.322505325335264,0.03495791613459587,-0.4554384136557579
1733751656733128700,11.517128662109375,-1.35764970395267,-0.08935586127638816,-0.45994186255484815
1733751656743103700,11.527103759765625,-1.227132980248332,-0.2323176405340433,-0.5420867695391178
1733751656753079800,11.537079833984375,-0.843396697756648,-0.28811142394840716,-0.4829512744814157
1733751656763055900,11.547055908203125,-0.4943734167277813,-0.2896510546058416,-0.05228139137923717
1733751656773030700,11.55703076171875,-0.2718506094992161,-0.17827157756984233,0.5249745989575981
1733751656783007000,11.567007080078126,-0.21931495109796523,-0.04628711940050125,1.0046166027605532
1733751656792982800,11.576982666015626,-0.4145031401446089,0.00997018987238407,1.1022273744240403
1733751656802958800,11.586958740234374,-0.6313327407002449,0.013525252005457877,0.7408689279571176
1733751656812934000,11.596933837890624,-0.8259457967400551,0.026145079603791234,0.397574545969069
1733751656822910000,11.606909912109375,-0.8639807091671973,0.045267128702998156,0.3790264973655343
1733751656832885800,11.6168857421875,-0.5839187361616641,0.02301438036262989,0.5294102433174849
1733751656842861000,11.626861083984375,-0.28551439319252964,0.08472761695384978,0.46114860799610613
1733751656852836900,11.6368369140625,-0.25108152384534477,0.3490606904298067,0.3699032797113061
1733751656862812700,11.646812744140625,-0.3044366088707,0.6062643504172563,0.5296712323412299
1733751656872789000,11.6567890625,-0.28889059162735936,0.7031728190302848,0.7420902864456176
1733751656882763800,11.666763671875,-0.03545958204641938,0.6942939315259457,0.7897840577736497
1733751656892739800,11.67673974609375,0.4328501497507095,0.5553057320743799,0.44663434495329857
1733751656902716000,11.6867158203125,0.8105484672524035,0.5103998378992081,-0.1840352556630969
1733751656912691700,11.696691650390624,0.9544798221945762,0.6835556798905134,-0.7790987053692341
1733751656922666800,11.706666748046874,0.7366041101194918,0.7448837165564298,-1.4843568062409758
1733751656932642800,11.716642822265625,0.561266101783514,0.6415618737697601,-1.592470851740241
1733751656942619000,11.726618896484375,0.4715709255501628,0.5128694428831339,-1.374419929228723
1733751656952594000,11.736593994140625,0.2148483270779252,0.5467220281243323,-0.8277154367610812
1733751656962569700,11.74656982421875,-0.19248086631670594,0.7783300590842962,-0.30383038660585876
1733751656972545800,11.7565458984375,-0.5368959228977561,1.139486845499277,0.22466449543237685
1733751656982521900,11.76652197265625,-0.7456123230919242,1.309372287517786,0.36703006236255165
1733751656992497000,11.776496826171876,-0.6946653951868415,1.200241466191411,0.22633418221026658
1733751657002473000,11.786472900390624,-0.17901216680407522,0.8965747457146644,-0.16467676745951174
1733751657012449000,11.796448974609374,0.13490999022722244,0.6979787575185299,-0.8141261796087026
1733751657022424000,11.806424072265624,-0.06221767898201942,0.5624328074753284,-1.0451634249433874
1733751657032400000,11.81639990234375,-0.6975742683708668,0.5534072049766778,-0.7381091078549623
1733751657042376000,11.8263759765625,-1.4901821513935922,0.6819014829427004,-0.10949380941987037
1733751657052352000,11.83635205078125,-2.229284946461022,0.7641150712490081,0.5803001803383231
1733751657062326800,11.846326904296875,-2.5452096754863858,0.8760434143394231,1.2359621833920478
1733751657072303000,11.85630322265625,-2.2958985223144293,0.8867477637052535,1.4880635518044232
1733751657082279000,11.86627880859375,-1.75788908521682,0.8932102377176284,1.3076347962006927
1733751657092254000,11.87625390625,-1.1872931372910738,0.7515735695838928,0.6198989080160856
1733751657102229800,11.886229736328126,-0.7042547690480947,0.5998591595500707,-0.07741144872158766
1733751657112206000,11.8962060546875,-0.37105011165887114,0.5962719487130641,-0.2358221415236592
1733751657122182000,11.906181884765624,-0.15539514437317847,0.5600087951987981,0.053609425112605094
1733751657132157000,11.916156982421874,-0.1715866929784417,0.4840414078056812,0.34682314063608644
1733751657142133000,11.926133056640625,-0.32050767290145155,0.40187808838188643,0.27519641279578205
1733751657152108800,11.93610888671875,-0.5652452345475554,0.3362275123417377,0.01871171473264694
1733751657162083800,11.946083740234375,-0.5837064816504717,0.32807518554627896,-0.016203239043056965
1733751657172060000,11.956059814453125,-0.8295932133316993,0.33392624966204165,-0.12320610843002795
1733751657182036000,11.966035888671875,-1.1181640714854002,0.3277361628502607,-0.29067689052224155
1733751657192011800,11.97601171875,-1.220427929651737,0.4500748407959938,-0.23633330591619015
1733751657201987000,11.985987060546876,-1.3358669112116097,0.6124328099191189,-0.1787242897734046
1733751657211963000,11.995962890625,-1.5530080254018306,0.8484469668835402,-0.09996230322569608
1733751657221939000,12.00593896484375,-1.7398615533560513,1.0147744241595267,0.048258711734414095
1733751657231914000,12.0159140625,-1.7451953155994415,0.9617173722326755,0.15837562148869036
1733751657241890000,12.02589013671875,-1.5619102937817573,0.8000204973667859,0.10834083999246358
1733751657251865900,12.035865966796875,-1.3684972611814736,0.7600655035972594,-0.1032096145838499
1733751657261842000,12.045842041015625,-1.2142787593722342,0.7476520122259854,-0.32084917981550093
1733751657271817000,12.05581689453125,-1.0577402901828288,0.6619482437163591,-0.6562807194739579
1733751657281792800,12.065792724609375,-1.1001660579800605,0.5516472095668316,-1.0755867663882672
1733751657291769000,12.07576904296875,-1.1882201890081165,0.5379354950785636,-1.1038863936774432
1733751657301745000,12.085744873046876,-1.1721668798297642,0.6300304259300231,-0.827752115509659
1733751657311720000,12.095719970703126,-1.1018073954463004,0.6465782406270504,-0.6743294402532279
1733751657321696000,12.105696044921874,-0.6242927590608597,0.5946855563044547,-0.5681808496080338
1733751657331672000,12.115672119140624,0.08412789749503136,0.47654491457045073,-0.8254882622309029
1733751657341646800,12.125646728515624,0.9427589892625808,0.14498364047408102,-1.2982190253406762
1733751657351623200,12.135623046875,1.3454039703637362,-0.5395440993189812,-1.331551824491471
1733751657361599000,12.145598876953125,1.3166595219165087,-1.2078595399796963,-1.0283810708381236
1733751657371574800,12.15557470703125,0.8997557138383387,-1.5861591843754053,-0.347272491838783
1733751657381549800,12.1655498046875,0.1263759706377983,-1.5884844124525785,0.3904652984857559
1733751657391526000,12.17552587890625,-0.735399848896265,-1.278547525665164,0.5566197372823953
1733751657401502000,12.185501953125,-1.1990040333509444,-1.3968243609994648,0.5010898655012249
1733751657411476700,12.195476806640626,-1.3666191923499107,-1.7268208699971437,0.3050125821277499
1733751657421453000,12.205453125,-1.208945581650734,-1.9544465533226727,0.276716461969912
1733751657431428900,12.215428955078124,-0.8887117572546005,-2.1166239051818847,0.026787176899611947
1733751657441405200,12.2254052734375,-0.35181788018345833,-2.2118735006719827,0.20377982057482003
1733751657451380000,12.2353798828125,-0.20362872166633605,-2.3451269558638335,0.23587708658128975
1733751657461356000,12.24535595703125,-0.14439151979982853,-2.212268637469411,0.4365511962257325
1733751657471331800,12.255331787109375,-0.24824060133099554,-2.0288193650007247,0.5066660581983625
1733751657481307100,12.26530712890625,-0.37094460545778274,-1.8356541696816682,0.3536282906062901
1733751657491283000,12.275282958984375,-0.30634967595040796,-1.9180255788981913,0.34908648245818913
1733751657501258800,12.2852587890625,-0.2830979797005653,-2.214109296900034,0.4375326084785163
1733751657511235000,12.295235107421876,-0.4540905061781406,-2.402340835209191,0.8033523452032357
1733751657521209900,12.3052099609375,-0.7843518035918474,-2.3946534955769776,0.913069003593549
1733751657531186000,12.31518603515625,-0.8705085765659809,-2.456074471223354,0.6900524945639074
1733751657541162000,12.325161865234374,-0.7843255001068115,-2.5009932248800992,0.33074389329887927
1733751657551137000,12.335136962890624,-0.5920762505888939,-2.3433514706239102,-0.07768193622604012
1733751657561112800,12.34511279296875,-0.1918938602089882,-2.274173304979503,-0.022246391664817927
1733751657571089200,12.355089111328125,0.13909692052304745,-2.2110510783731936,0.28443843452408907
1733751657581065000,12.36506494140625,0.6467740554600954,-1.9245792383253573,0.6052922905147076
1733751657591040000,12.3750400390625,0.9929542220175266,-1.7588915402576326,0.635429946886003
1733751657601016000,12.38501611328125,1.1879951480805873,-1.7353420301049947,0.51260611577183
1733751657610991900,12.394991943359376,1.138972466236353,-1.7423945789650082,0.4474973915234208
1733751657620967000,12.404966796875,0.9742483525037765,-1.6977964355647563,0.6142054456148296
1733751657630943000,12.41494287109375,0.7282552378386259,-1.6581968311041593,0.904202975570783
