time,seconds_elapsed,z,y,x
1733751645231113000,0.015113037109375,-0.01990136131644249,0.13132429122924805,0.029211008921265602
1733751645241088800,0.0250888671875,-0.042441025376319885,0.18329374492168427,0.015300787054002285
1733751645251065000,0.035065185546875,-0.053162429481744766,0.26068738102912903,0.01950898766517639
1733751645261041000,0.045041015625,-0.06424437463283539,0.2918381094932556,0.041599906980991364
1733751645271016000,0.055015869140625,-0.07013381272554398,0.271649032831192,0.04460989311337471
1733751645280992000,0.064991943359375,-0.06556463241577148,0.15696372091770172,0.0014576277462765574
1733751645290968000,0.074968017578125,-0.10409703105688095,0.03510968014597893,-0.06143951416015625
1733751645300944000,0.08494384765625,-0.16962997615337372,-0.03763402998447418,-0.0971575677394867
1733751645310919200,0.094919189453125,-0.2093474119901657,-0.04566730558872223,-0.11177901178598404
1733751645320895000,0.10489501953125,-0.2208799570798874,-0.07162006944417953,-0.14474894106388092
1733751645330870800,0.114870849609375,-0.2527362108230591,-0.09970111399888992,-0.17478995025157928
1733751645340847000,0.12484716796875,-0.2718782126903534,-0.10266521573066711,-0.21037191152572632
1733751645350822000,0.13482177734375,-0.2667827308177948,-0.076727494597435,-0.239559143781662
1733751645360798000,0.1447978515625,-0.24832619726657867,-0.030517658218741417,-0.2342754304409027
1733751645370774000,0.15477392578125,-0.2503166198730469,-0.03358563035726547,-0.21132943034172058
1733751645380749800,0.164749755859375,-0.25087082386016846,-0.07654135674238205,-0.17614321410655975
1733751645390724900,0.174724853515625,-0.23189423978328705,-0.09989530593156815,-0.14511987566947937
1733751645400701000,0.184700927734375,-0.19625209271907806,-0.11201402544975281,-0.09396481513977051
1733751645410677000,0.194677001953125,-0.16000677645206451,-0.07894480973482132,-0.04387764632701874
1733751645420652800,0.20465283203125,-0.12550073862075806,-0.03338291496038437,0.005125051364302635
1733751645430628000,0.214628173828125,-0.09236828982830048,0.0012080480810254812,0.030955441296100616
1733751645440604000,0.22460400390625,-0.07083423435688019,0.014879651367664337,0.03550651669502258
1733751645450580000,0.234580078125,-0.052626945078372955,0.046079520136117935,0.05273345857858658
1733751645460554800,0.2445546875,-0.03284738212823868,0.10581421852111816,0.08829571306705475
1733751645470531000,0.254531005859375,-0.021690059453248978,0.13579893112182617,0.12202586978673935
1733751645480507000,0.2645068359375,-0.030768774449825287,0.11159291863441467,0.12787070870399475
1733751645490483000,0.27448291015625,-0.03067564219236374,0.04303707927465439,0.0905752032995224
1733751645500458000,0.2844580078125,-0.009289395064115524,-0.01092522032558918,0.028184799477458
1733751645510433800,0.294433837890625,0.005218294449150562,-0.04317689314484596,-0.002799184061586857
1733751645520410000,0.30441015625,0.016413692384958267,-0.046931151300668716,-0.01741115003824234
1733751645530386000,0.314385986328125,0.017502350732684135,-0.021375780925154686,0.00473785912618041
1733751645540361000,0.32436083984375,0.015828819945454597,0.016009407117962837,0.06399132311344147
1733751645550336800,0.334336669921875,0.020672421902418137,0.04432876035571098,0.1284325122833252
1733751645560313000,0.34431298828125,0.02766401693224907,0.06311283260583878,0.17989331483840942
1733751645570289000,0.354288818359375,0.02360408753156662,0.0824214294552803,0.21446329355239868
1733751645580264000,0.364263916015625,0.0018476595869287848,0.0799098014831543,0.22332575917243958
1733751645590240000,0.374239990234375,-0.024026932194828987,0.023361291736364365,0.19473668932914734
1733751645600215800,0.3842158203125,-0.0356106199324131,-0.04978855326771736,0.11865469813346863
1733751645610192100,0.394192138671875,-0.04521769657731056,-0.08625797182321548,0.05383564531803131
1733751645620167000,0.4041669921875,-0.053180281072854996,-0.08166508376598358,0.018906423822045326
1733751645630143000,0.41414306640625,-0.04188142716884613,-0.038762710988521576,0.004385726526379585
1733751645640118800,0.424118896484375,-0.016566215083003044,0.0061967745423316956,0.005049652885645628
1733751645650095000,0.43409521484375,0.0072468239814043045,0.027257056906819344,0.017883190885186195
1733751645660070000,0.44406982421875,0.03057931177318096,0.030648594722151756,0.05944687873125076
1733751645670046000,0.4540458984375,0.07375134527683258,0.05410149693489075,0.10449282824993134
1733751645680022000,0.46402197265625,0.10465546697378159,-0.022695543244481087,0.10115721821784973
1733751645689997800,0.473997802734375,0.11780459433794022,-0.11592599749565125,0.13573020696640015
1733751645699972900,0.483972900390625,0.12860292196273804,-0.10582222789525986,0.15546847879886627
1733751645709949000,0.493948974609375,0.13328023254871368,-0.07072123140096664,0.1701536923646927
1733751645719925000,0.503925048828125,0.13577720522880554,-0.04146347567439079,0.1747412532567978
1733751645729900800,0.51390087890625,0.1180177628993988,-0.028129197657108307,0.18166853487491608
1733751645739876000,0.5238759765625,0.0967114120721817,-0.03537486121058464,0.17998088896274567
1733751645749852000,0.533851806640625,0.11628462374210358,-0.010788328014314175,0.175979882478714
1733751645759828000,0.543827880859375,0.16319195926189423,0.011701001785695553,0.18400318920612335
1733751645769804000,0.553803955078125,0.2247343510389328,0.022731758654117584,0.1786297708749771
1733751645779779000,0.563779052734375,0.26225510239601135,-0.006283114664256573,0.12248872220516205
1733751645789755000,0.5737548828125,0.21912211179733276,-0.08812166005373001,0.07015223801136017
1733751645799731000,0.58373095703125,0.05900513753294945,-0.09469274431467056,0.1255931258201599
1733751645809707000,0.59370703125,-0.011987038888037205,0.06065397709608078,0.34048497676849365
1733751645819681800,0.603681884765625,0.002726126927882433,0.3444462716579437,0.5861411094665527
1733751645829658000,0.613658203125,0.01422963198274374,0.5247129201889038,0.8222281336784363
1733751645839634000,0.623634033203125,0.07617289572954178,0.47176048159599304,0.9389147758483887
1733751645849609000,0.63360888671875,0.17398670315742493,0.29905545711517334,0.9449318051338196
1733751645859585000,0.6435849609375,0.23030748963356018,0.3022560477256775,0.9410595297813416
1733751645869560800,0.653560791015625,0.35499754548072815,0.413885235786438,0.9856009483337402
1733751645879537000,0.663536865234375,0.5492045879364014,0.5517150163650513,1.0234339237213135
1733751645889512000,0.673511962890625,0.6927882432937622,0.5801933407783508,1.084078311920166
1733751645899488000,0.683488037109375,0.794868528842926,0.5038481950759888,1.2041767835617065
1733751645909463800,0.6934638671875,0.9182559251785278,0.32302868366241455,1.3604347705841064
1733751645919440100,0.703440185546875,1.0402004718780518,0.1140722930431366,1.4996848106384277
1733751645929415000,0.713414794921875,1.1294046640396118,-0.05044800043106079,1.6198251247406006
1733751645939391000,0.723390869140625,1.211952805519104,-0.16675730049610138,1.7246724367141724
1733751645949367000,0.733366943359375,1.3050616979599,-0.20498163998126984,1.8119183778762817
1733751645959342800,0.7433427734375,1.4331361055374146,-0.19749654829502106,1.870395541191101
1733751645969318000,0.75331787109375,1.5560401678085327,-0.285077303647995,1.900517225265503
1733751645979293700,0.763293701171875,1.6756919622421265,-0.5307450890541077,1.9000887870788574
1733751645989269500,0.77326953125,1.7984825372695923,-0.826122522354126,1.858900785446167
1733751645999245300,0.783245361328125,1.954966425895691,-0.8633854389190674,1.7336856126785278
1733751646009220600,0.793220703125,2.088951587677002,-0.8878389000892639,1.6484160423278809
1733751646019196400,0.803196533203125,2.19169545173645,-1.1503725051879883,1.6282804012298584
1733751646029172500,0.81317236328125,2.261197090148926,-1.2335292100906372,1.5520673990249634
1733751646039148500,0.8231484375,2.2909374237060547,-1.5716619491577148,1.5401228666305542
1733751646049123600,0.83312353515625,2.2970657348632812,-1.8207993507385254,1.4890962839126587
1733751646059099400,0.843099365234375,2.295234441757202,-1.9069851636886597,1.409960150718689
1733751646069075700,0.85307568359375,2.3258888721466064,-1.9634345769882202,1.370830774307251
1733751646079051500,0.863051513671875,2.3942458629608154,-1.9475924968719482,1.3359736204147339
1733751646089026600,0.873026611328125,2.404440402984619,-1.8301544189453125,1.2689111232757568
1733751646099002600,0.883002685546875,2.345646619796753,-1.8469324111938477,1.1949576139450073
1733751646108978400,0.892978515625,2.2686119079589844,-1.85587739944458,1.1039289236068726
1733751646118954500,0.90295458984375,2.145738124847412,-1.8777837753295898,1.024903655052185
1733751646128929300,0.91292919921875,1.9922640323638916,-1.8362561464309692,0.9902122616767883
1733751646138905600,0.922905517578125,1.8494477272033691,-1.799707293510437,0.989645779132843
1733751646148881400,0.93288134765625,1.7130953073501587,-1.7759771347045898,0.9879154562950134
1733751646158857500,0.942857421875,1.5935814380645752,-1.7286226749420166,0.9619091749191284
1733751646168832500,0.95283251953125,1.4725792407989502,-1.688614845275879,0.9101840853691101
1733751646178808600,0.96280859375,1.3832981586456299,-1.730351448059082,0.8405304551124573
1733751646188784600,0.97278466796875,1.3097771406173706,-1.734917402267456,0.7397617101669312
1733751646198759700,0.982759765625,1.1868916749954224,-1.7612544298171997,0.7077422738075256
1733751646208735500,0.992735595703125,1.029884696006775,-1.4769070148468018,0.605190634727478
1733751646218711300,1.002711181640625,0.9519819617271423,-1.423222541809082,0.6067970395088196
1733751646228687600,1.0126875,0.8700323700904846,-1.4957391023635864,0.5658009052276611
1733751646238662400,1.022662353515625,0.7277806997299194,-1.3922441005706787,0.46694111824035645
1733751646248638500,1.032638427734375,0.623847246170044,-1.5000368356704712,0.4374183714389801
1733751646258614500,1.042614501953125,0.5206542611122131,-1.485172152519226,0.35671764612197876
1733751646268590300,1.05259033203125,0.4657367765903473,-1.5041838884353638,0.32127898931503296
1733751646278565400,1.0625654296875,0.4076143503189087,-1.5509274005889893,0.2653467655181885
1733751646288541400,1.07254150390625,0.3571819067001343,-1.6252758502960205,0.17872411012649536
1733751646298517500,1.082517578125,0.34469833970069885,-1.4387915134429932,0.13752740621566772
1733751646308493300,1.092493408203125,0.43452081084251404,-1.519267201423645,0.3014448583126068
1733751646318468600,1.102468505859375,0.518683671951294,-1.3851325511932373,0.38921117782592773
1733751646328444400,1.1124443359375,0.6762485504150391,-1.1862201690673828,0.45492202043533325
1733751646338420500,1.12242041015625,0.8456966876983643,-0.8882944583892822,0.5025055408477783
1733751646348396500,1.132396484375,0.9854891896247864,-0.6834771037101746,0.513361930847168
1733751646358371600,1.14237158203125,1.079555630683899,-0.4843514859676361,0.4979208707809448
1733751646368347400,1.152347412109375,1.1278421878814697,-0.3728851079940796,0.46460679173469543
1733751646378323500,1.162323486328125,1.124775767326355,-0.5220745801925659,0.37670382857322693
1733751646388299500,1.172299560546875,1.1109493970870972,-0.8249702453613281,0.24173349142074585
1733751646398274300,1.1822744140625,1.026092290878296,-1.0740869045257568,0.03544476255774498
1733751646408250600,1.192250732421875,0.8707168102264404,-1.071772813796997,-0.26230588555336
1733751646418226400,1.202226318359375,0.755470871925354,-0.9211625456809998,-0.5635290741920471
1733751646428202500,1.212202392578125,0.7270176410675049,-1.1558891534805298,-0.8073299527168274
1733751646438177500,1.222177490234375,0.6902894377708435,-1.1547362804412842,-1.1200377941131592
1733751646448153600,1.232153564453125,0.6978258490562439,-1.2382664680480957,-1.3524755239486694
1733751646458129400,1.24212939453125,0.7685980200767517,-1.131565809249878,-1.4986928701400757
1733751646468105500,1.25210546875,0.9071304202079773,-0.8892421722412109,-1.5507100820541382
1733751646478080500,1.26208056640625,1.0258938074111938,-0.5948755145072937,-1.5029011964797974
1733751646488056300,1.272056396484375,1.0981929302215576,-0.4029940366744995,-1.376537561416626
1733751646498032600,1.28203271484375,1.1404306888580322,-0.28858625888824463,-1.24936044216156
1733751646508008400,1.292008544921875,1.1634184122085571,-0.2691759765148163,-1.137763261795044
1733751646517983500,1.3019833984375,1.1961829662322998,-0.31593069434165955,-1.0357109308242798
1733751646527959600,1.31195947265625,1.2054684162139893,-0.3757123053073883,-0.9520165920257568
1733751646537935600,1.321935546875,1.1965314149856567,-0.387207567691803,-0.9260877966880798
1733751646547910400,1.331910400390625,1.1984057426452637,-0.2794877886772156,-0.9384889602661133
1733751646557886700,1.34188671875,1.1858338117599487,-0.125647634267807,-0.969815194606781
1733751646567862500,1.351862548828125,1.1577894687652588,-0.015164713375270367,-0.9892634153366089
1733751646577838300,1.36183837890625,1.0507125854492188,0.30282366275787354,-1.0439977645874023
1733751646587813400,1.3718134765625,0.9234853386878967,0.4422665536403656,-1.1773473024368286
1733751646597789400,1.38178955078125,0.8954468369483948,0.21281258761882782,-1.2175277471542358
1733751646607765500,1.391765625,0.9133003354072571,0.2112525999546051,-1.19109046459198
1733751646617741600,1.401741455078125,0.9146982431411743,0.37133121490478516,-1.1769986152648926
1733751646627716600,1.411716552734375,0.861084520816803,0.519432783126831,-1.176872968673706
1733751646637692400,1.4216923828125,0.756242036819458,0.5676908493041992,-1.157741665840149
1733751646647668500,1.43166845703125,0.6614301204681396,0.5295397639274597,-1.1361035108566284
1733751646657644500,1.44164453125,0.6292670965194702,0.44091007113456726,-1.1568375825881958
1733751646667619600,1.45161962890625,0.6140973567962646,0.43908393383026123,-1.2241507768630981
1733751646677595400,1.461595458984375,0.6025237441062927,0.49320441484451294,-1.2935810089111328
1733751646687571500,1.471571533203125,0.5716234445571899,0.5201042294502258,-1.301851511001587
1733751646697547500,1.481547607421875,0.49622297286987305,0.4635626971721649,-1.24363112449646
1733751646707522300,1.491522216796875,0.41877126693725586,0.4018038511276245,-1.1381480693817139
1733751646717498600,1.50149853515625,0.38261327147483826,0.4042728543281555,-1.0251970291137695
1733751646727474400,1.511474365234375,0.4010540544986725,0.4529608488082886,-0.9249534606933594
1733751646737450500,1.521450439453125,0.42636874318122864,0.5294769406318665,-0.8409773111343384
1733751646747425500,1.531425537109375,0.4123696982860565,0.5506085157394409,-0.7893485426902771
1733751646757401300,1.5414013671875,0.39573052525520325,0.5338678956031799,-0.7812935709953308
1733751646767377400,1.55137744140625,0.3621472716331482,0.4386444091796875,-0.7863304018974304
1733751646777353500,1.561353515625,0.2721492052078247,0.2942632734775543,-0.7997004985809326
1733751646787328500,1.57132861328125,0.14808876812458038,0.17862100899219513,-0.8122342824935913
1733751646797304300,1.58130419921875,0.05111163109540939,0.12636180222034454,-0.803084671497345
1733751646807280600,1.59128076171875,0.0242893286049366,-0.022222789004445076,-0.7657234072685242
1733751646817255400,1.60125537109375,0.0479845367372036,-0.024310974404215813,-0.7228131890296936
1733751646827231500,1.6112314453125,0.0719786137342453,0.12047964334487915,-0.7191806435585022
1733751646837207600,1.62120751953125,0.058707017451524734,0.20644967257976532,-0.7065601944923401
1733751646847183400,1.631183349609375,-0.00225217011757195,0.2049241065979004,-0.5933133959770203
1733751646857158400,1.641158447265625,-0.061970360577106476,0.16168847680091858,-0.39350977540016174
1733751646867134500,1.651134521484375,-0.07046987861394882,0.015292763710021973,-0.132050022482872
1733751646877110500,1.661110595703125,-0.06736649572849274,0.028019744902849197,0.2255304753780365
1733751646887086300,1.67108642578125,-0.1002688854932785,0.12873098254203796,0.5010966062545776
1733751646897061600,1.6810615234375,-0.12289910018444061,0.09841009229421616,0.6409277319908142
1733751646907037400,1.691037353515625,-0.14613348245620728,0.0029193582013249397,0.6655032634735107
1733751646917013500,1.701013427734375,-0.17602959275245667,-0.08857007324695587,0.5904535055160522
1733751646926989600,1.710989501953125,-0.21122092008590698,-0.15419502556324005,0.4991413950920105
1733751646936964600,1.720964599609375,-0.27435755729675293,-0.1896829903125763,0.4668383300304413
1733751646946940400,1.7309404296875,-0.3110653758049011,-0.17203687131404877,0.5013704895973206
1733751646956916500,1.74091650390625,-0.31241825222969055,-0.1478460431098938,0.5537311434745789
1733751646966892500,1.750892578125,-0.2654913663864136,-0.09816078841686249,0.6098255515098572
1733751646976867300,1.760867431640625,-0.18916594982147217,-0.027871713042259216,0.6472795009613037
1733751646986844200,1.77084423828125,-0.12994492053985596,0.021007906645536423,0.6638833284378052
1733751646996820000,1.780820068359375,-0.1264766901731491,0.04638011008501053,0.653580367565155
1733751647006796000,1.790796142578125,-0.21176767349243164,0.007976391352713108,0.6260374188423157
1733751647016771000,1.80077099609375,-0.303941547870636,-0.03917194530367851,0.5918501615524292
1733751647026747000,1.810746826171875,-0.31494495272636414,-0.04547785967588425,0.5265307426452637
1733751647036723200,1.82072314453125,-0.2897501289844513,-0.003193252719938755,0.4708711802959442
1733751647046698000,1.830697998046875,-0.3289791941642761,0.1736244410276413,0.3858773708343506
1733751647056674000,1.840674072265625,-0.35484328866004944,0.1641094982624054,0.2743777632713318
1733751647066650000,1.850650146484375,-0.3760099411010742,0.16944381594657898,0.236317440867424
1733751647076626200,1.860626220703125,-0.42066237330436707,0.203252911567688,0.24306721985340118
1733751647086601000,1.87060107421875,-0.42680543661117554,0.28807589411735535,0.2538110613822937
1733751647096577300,1.880577392578125,-0.3638043701648712,0.5033551454544067,0.2760138213634491
1733751647106553000,1.890552978515625,-0.26951146125793457,0.6282449960708618,0.33404162526130676
1733751647116529000,1.90052880859375,-0.15811142325401306,0.46171835064888,0.422752320766449
1733751647126504200,1.910504150390625,-0.1740935891866684,0.02616005390882492,0.538612961769104
1733751647136480000,1.92047998046875,-0.34209325909614563,-0.17947779595851898,0.6778593063354492
1733751647146456000,1.9304560546875,-0.47022154927253723,-0.1852824091911316,0.7380577325820923
1733751647156432100,1.94043212890625,-0.4434264004230499,-0.1794319748878479,0.7816030383110046
1733751647166407200,1.9504072265625,-0.37549954652786255,0.08327411860227585,0.7989659905433655
1733751647176383000,1.960383056640625,-0.3244451582431793,0.387113094329834,0.8097642660140991
1733751647186359000,1.970359130859375,-0.2663913369178772,0.45249566435813904,0.897520899772644
1733751647196335000,1.980335205078125,-0.23765875399112701,0.47420254349708557,1.0712205171585083
1733751647206310100,1.99031005859375,-0.21344134211540222,0.5110790729522705,1.2917920351028442
1733751647216286200,2.0002861328125,-0.14321644604206085,0.4352750778198242,1.534875512123108
1733751647226262000,2.010261962890625,-0.03485720977187157,0.49725642800331116,1.7713003158569336
1733751647236237000,2.020237060546875,0.09196092188358307,0.6810798048973083,1.9365074634552002
1733751647246212900,2.030212890625,0.17089855670928955,0.681705117225647,2.0479869842529297
1733751647256189200,2.040189208984375,-0.0037060067988932133,0.6079190373420715,2.129305839538574
1733751647266165000,2.0501650390625,-0.40347734093666077,0.5044391751289368,2.212111473083496
1733751647276140000,2.06014013671875,-0.7420935034751892,0.3449355363845825,2.2155001163482666
1733751647286116000,2.0701162109375,-0.7968506217002869,0.19821570813655853,2.1169028282165527
1733751647296092200,2.080092041015625,-0.6287490129470825,0.10644851624965668,1.9446748495101929
1733751647306068200,2.090068115234375,-0.43419018387794495,0.26428598165512085,1.736521601676941
1733751647316043300,2.100043212890625,-0.3173471987247467,0.18850280344486237,1.5283557176589966
1733751647326019000,2.11001904296875,-0.34520673751831055,-0.11305739730596542,1.4178223609924316
1733751647335995000,2.119994873046875,-0.5667670965194702,-0.09477853029966354,1.3901535272598267
1733751647345971200,2.12997119140625,-0.8171112537384033,-0.0655486062169075,1.3829413652420044
1733751647355946000,2.139946044921875,-0.9982323050498962,-0.15482042729854584,1.358093023300171
1733751647365922000,2.149922119140625,-1.0852208137512207,-0.25578054785728455,1.3377346992492676
1733751647375898000,2.159898193359375,-1.024390459060669,-0.2483772188425064,1.333431601524353
1733751647385874000,2.1698740234375,-0.8075219988822937,-0.38528087735176086,1.35041081905365
1733751647395849000,2.179848876953125,-0.5887747406959534,-0.3036717474460602,1.4071513414382935
1733751647405825000,2.189824951171875,-0.4961419701576233,-0.13616839051246643,1.4851607084274292
1733751647415801000,2.199801025390625,-0.5124111771583557,0.20357371866703033,1.532774567604065
1733751647425776000,2.209776123046875,-0.5384121537208557,0.3887767493724823,1.5593441724777222
1733751647435752200,2.219752197265625,-0.5278841257095337,0.43319615721702576,1.5543485879898071
1733751647445728000,2.22972802734375,-0.49788427352905273,0.20891305804252625,1.529624581336975
1733751647455704000,2.2397041015625,-0.4687820374965668,-0.01989881694316864,1.4993470907211304
1733751647465679000,2.24967919921875,-0.4925873577594757,-0.03363293036818504,1.4627374410629272
1733751647475655200,2.2596552734375,-0.5829505324363708,-0.003591141663491726,1.3975800275802612
1733751647485631000,2.269630859375,-0.6474489569664001,0.16179735958576202,1.3810323476791382
1733751647495607000,2.27960693359375,-0.6321983337402344,0.226337730884552,1.4495985507965088
1733751647505582000,2.28958203125,-0.5489763617515564,0.5252518057823181,1.5784454345703125
1733751647515558000,2.299557861328125,-0.38739702105522156,0.5936476588249207,1.7261947393417358
1733751647525534200,2.3095341796875,-0.22067216038703918,0.5579707026481628,1.9053313732147217
1733751647535510000,2.319510009765625,-0.062426596879959106,0.5494261980056763,2.0189554691314697
1733751647545485000,2.329485107421875,0.00039399691740982234,0.6138231158256531,2.0501160621643066
1733751647555461000,2.339461181640625,-0.028797710314393044,0.6358831524848938,2.04232120513916
1733751647565437200,2.349437255859375,-0.1334083080291748,0.6121008992195129,2.075165033340454
1733751647575412000,2.359411865234375,-0.2575102746486664,0.5242797136306763,2.164977550506592
1733751647585388300,2.36938818359375,-0.3806411921977997,0.5117330551147461,2.308476209640503
1733751647595364000,2.379364013671875,-0.46148544549942017,0.6046464443206787,2.4472296237945557
1733751647605340000,2.38933984375,-0.4464428126811981,0.7622748613357544,2.5115747451782227
1733751647615315000,2.39931494140625,-0.3658047020435333,0.8618022799491882,2.482196807861328
1733751647625291000,2.409291015625,-0.2700510621070862,0.8168072700500488,2.3887789249420166
1733751647635267000,2.41926708984375,-0.22955024242401123,0.7182335257530212,2.2564382553100586
1733751647645243100,2.4292431640625,-0.28439489006996155,0.6208320260047913,2.157029867172241
1733751647655218200,2.43921826171875,-0.409067302942276,0.5487729907035828,2.11128830909729
1733751647665194000,2.449194091796875,-0.48421892523765564,0.4395621716976166,2.1200621128082275
1733751647675170300,2.45917041015625,-0.4771344065666199,0.366571843624115,2.104971408843994
1733751647685146000,2.46914599609375,-0.4446147084236145,0.4092831313610077,2.016807794570923
1733751647695121200,2.47912109375,-0.4522619843482971,0.39634788036346436,1.8637659549713135
1733751647705097000,2.489096923828125,-0.49668771028518677,0.27700096368789673,1.6644028425216675
1733751647715073000,2.499072998046875,-0.5066913366317749,0.2048282027244568,1.434082269668579
1733751647725049000,2.509049072265625,-0.44201749563217163,0.23605544865131378,1.2047618627548218
1733751647735023900,2.51902392578125,-0.2931622564792633,0.277262806892395,1.011376976966858
1733751647745000200,2.529000244140625,-0.13246208429336548,0.29767054319381714,0.892966628074646
1733751647754976000,2.53897607421875,-0.08521441370248795,0.3069647252559662,0.8811408877372742
1733751647764951000,2.548950927734375,-0.13019278645515442,0.3067462146282196,0.9454890489578247
1733751647774927000,2.558927001953125,-0.21997353434562683,0.33550116419792175,1.0186612606048584
1733751647784903200,2.568903076171875,-0.2860370874404907,0.36857518553733826,1.0554953813552856
1733751647794879000,2.57887890625,-0.3065918982028961,0.3810041546821594,1.0364340543746948
1733751647804854300,2.588854248046875,-0.3052777051925659,0.40537378191947937,0.9625966548919678
1733751647814830000,2.598830078125,-0.3194878101348877,0.43532076478004456,0.8590444326400757
1733751647824806000,2.608805908203125,-0.34850478172302246,0.45783987641334534,0.7468879222869873
1733751647834782200,2.6187822265625,-0.36428987979888916,0.4161832630634308,0.6448512673377991
1733751647844757000,2.628757080078125,-0.3641536831855774,0.4255831837654114,0.5673235654830933
1733751647854733000,2.638733154296875,-0.3296726644039154,0.516330897808075,0.5309436917304993
1733751647864709000,2.648709228515625,-0.2658988833427429,0.5503972768783569,0.5669992566108704
1733751647874685000,2.658684814453125,-0.20799538493156433,0.49931225180625916,0.6680954694747925
1733751647884660000,2.668659912109375,-0.17259481549263,0.32921281456947327,0.8059477806091309
1733751647894636000,2.678635986328125,-0.18406638503074646,0.13986285030841827,0.9296766519546509
1733751647904612000,2.688612060546875,-0.2232736051082611,0.013835439458489418,0.9902175664901733
1733751647914588000,2.698587890625,-0.2739221155643463,-0.07221422344446182,0.9727946519851685
1733751647924563200,2.708563232421875,-0.3245032727718353,-0.1195303425192833,0.8934904932975769
1733751647934539000,2.7185390625,-0.36871734261512756,-0.1849713921546936,0.7730351686477661
1733751647944515000,2.72851513671875,-0.398842453956604,-0.28518998622894287,0.6571004390716553
1733751647954490000,2.738489990234375,-0.43368247151374817,-0.3620014190673828,0.5857250690460205
1733751647964466200,2.748466064453125,-0.482880562543869,-0.3577492833137512,0.6086095571517944
1733751647974442000,2.75844189453125,-0.5394719839096069,-0.30812233686447144,0.7250016927719116
1733751647984417300,2.768417236328125,-0.5593727231025696,-0.28527477383613586,0.8891937136650085
1733751647994392000,2.77839208984375,-0.5581599473953247,-0.2837671637535095,1.0396548509597778
1733751648004368100,2.7883681640625,-0.5397241115570068,-0.2571653723716736,1.1403619050979614
1733751648014344200,2.79834423828125,-0.5158944129943848,-0.28028905391693115,1.1892611980438232
1733751648024320000,2.808320068359375,-0.5076685547828674,-0.39656996726989746,1.219202995300293
1733751648034295000,2.818294921875,-0.5236299633979797,-0.5141986012458801,1.2400301694869995
1733751648044271000,2.82827099609375,-0.5292820334434509,-0.5633655190467834,1.2378045320510864
1733751648054247200,2.8382470703125,-0.5226590633392334,-0.5901095271110535,1.2164627313613892
1733751648064223000,2.848222900390625,-0.49938759207725525,-0.5808128714561462,1.1881462335586548
1733751648074198000,2.858197998046875,-0.46735695004463196,-0.5260676145553589,1.1914554834365845
1733751648084174000,2.868174072265625,-0.4679519236087799,-0.4472470283508301,1.2348219156265259
1733751648094150100,2.878150146484375,-0.5206327438354492,-0.37357521057128906,1.3261744976043701
1733751648104125000,2.888125,-0.5824181437492371,-0.3205602467060089,1.4423749446868896
1733751648114101200,2.898101318359375,-0.6127325892448425,-0.35584554076194763,1.5789355039596558
1733751648124077000,2.9080771484375,-0.6262773871421814,-0.3818081021308899,1.6952584981918335
1733751648134053000,2.91805322265625,-0.6094861626625061,-0.3339942395687103,1.758716344833374
1733751648144028200,2.928028076171875,-0.5815824270248413,-0.3169165253639221,1.784481167793274
1733751648154004200,2.938004150390625,-0.5711153745651245,-0.38032370805740356,1.8132052421569824
1733751648163980000,2.94797998046875,-0.5982966423034668,-0.515850305557251,1.8709312677383423
1733751648173956000,2.9579560546875,-0.6646956205368042,-0.5829004645347595,1.9344111680984497
1733751648183931100,2.96793115234375,-0.7360731363296509,-0.5529376864433289,2.026031255722046
1733751648193907000,2.977906982421875,-0.7755066156387329,-0.4648571014404297,2.155200242996216
1733751648203883300,2.98788330078125,-0.750373899936676,-0.29628676176071167,2.2493698596954346
1733751648213859000,2.997859130859375,-0.682603120803833,-0.12444254755973816,2.2810862064361572
1733751648223834000,3.007834228515625,-0.6146397590637207,-0.040788959711790085,2.2458033561706543
1733751648233810200,3.01781005859375,-0.6087363362312317,-0.06838516891002655,2.146378517150879
1733751648243786000,3.027785888671875,-0.6691710352897644,-0.11891923099756241,1.978830337524414
1733751648253762000,3.037761962890625,-0.7369413375854492,-0.25561022758483887,1.7637381553649902
1733751648263737000,3.047737060546875,-0.7985185980796814,-0.46859392523765564,1.5121017694473267
1733751648273713200,3.057713134765625,-0.829028308391571,-0.7164729833602905,1.2900173664093018
1733751648283689000,3.06768896484375,-0.8492396473884583,-0.957156777381897,1.1468663215637207
1733751648293664300,3.077664306640625,-0.8458800315856934,-1.1063157320022583,1.0792299509048462
1733751648303640000,3.08764013671875,-0.8123235106468201,-1.082181692123413,1.042863130569458
1733751648313616100,3.0976162109375,-0.7582685351371765,-0.9592518210411072,0.9895555973052979
1733751648323592200,3.10759228515625,-0.6839407682418823,-0.8004410266876221,0.9011754393577576
1733751648333567200,3.117567138671875,-0.607241153717041,-0.6849501132965088,0.8146354556083679
1733751648343543000,3.12754296875,-0.5761245489120483,-0.6447262167930603,0.7713572382926941
1733751648353519000,3.13751904296875,-0.6044152975082397,-0.6655009984970093,0.8025402426719666
1733751648363495200,3.1474951171875,-0.6814752221107483,-0.7943832874298096,0.9230580925941467
1733751648373470000,3.157469970703125,-0.8022019267082214,-0.9874017238616943,1.1030954122543335
1733751648383446300,3.1674462890625,-0.9466533660888672,-1.1202502250671387,1.298550009727478
1733751648393422000,3.177422119140625,-1.0943880081176758,-1.1365163326263428,1.4484909772872925
1733751648403397000,3.187397216796875,-1.2166000604629517,-1.009823203086853,1.53766930103302
1733751648413373200,3.197373291015625,-1.2440892457962036,-0.784081757068634,1.571508526802063
1733751648423349200,3.207349365234375,-1.150905728340149,-0.5120120644569397,1.5508023500442505
1733751648433325000,3.217324951171875,-0.93735671043396,-0.3478151857852936,1.4962126016616821
1733751648443300000,3.227300048828125,-0.6720811128616333,-0.3519384264945984,1.4241650104522705
1733751648453276200,3.237276123046875,-0.4794251322746277,-0.46034425497055054,1.3289543390274048
1733751648463252000,3.247251953125,-0.44894328713417053,-0.6351362466812134,1.201898217201233
1733751648473228300,3.257228271484375,-0.519704282283783,-0.7995337247848511,1.0367960929870605
1733751648483203000,3.267203125,-0.6343576312065125,-0.9096440672874451,0.8352649807929993
1733751648493179100,3.27717919921875,-0.720095694065094,-0.9881207942962646,0.5919090509414673
1733751648503155200,3.2871552734375,-0.7628147602081299,-1.059832215309143,0.3296438455581665
1733751648513131300,3.29713134765625,-0.7441848516464233,-1.0540469884872437,0.08608872443437576
1733751648523106000,3.30710595703125,-0.6913028359413147,-0.9691276550292969,-0.102809838950634
1733751648533082000,3.31708203125,-0.60930997133255,-0.8825443387031555,-0.19676697254180908
1733751648543058200,3.32705810546875,-0.5137896537780762,-0.8159250617027283,-0.2183036506175995
1733751648553033200,3.337033203125,-0.4187856614589691,-0.7501188516616821,-0.2238406389951706
1733751648563009000,3.347009033203125,-0.3280937373638153,-0.7035530805587769,-0.2408999651670456
1733751648572985000,3.356985107421875,-0.24577651917934418,-0.6222009658813477,-0.29274240136146545
1733751648582961200,3.366961181640625,-0.19878500699996948,-0.5069901347160339,-0.37144067883491516
1733751648592936000,3.37693603515625,-0.21126751601696014,-0.40677326917648315,-0.4324073791503906
1733751648602912300,3.386912353515625,-0.27637866139411926,-0.34049564599990845,-0.44836145639419556
1733751648612888000,3.39688818359375,-0.3455614447593689,-0.3004017472267151,-0.4085831642150879
1733751648622864100,3.406864013671875,-0.36992090940475464,-0.29372403025627136,-0.3313610851764679
1733751648632839200,3.416839111328125,-0.3316643536090851,-0.3136657774448395,-0.21951550245285034
1733751648642815200,3.426815185546875,-0.24674199521541595,-0.37732455134391785,-0.10828421264886856
1733751648652791000,3.436791015625,-0.18489274382591248,-0.4373556673526764,-0.02490888722240925
1733751648662767000,3.44676708984375,-0.17342501878738403,-0.4394548535346985,0.012871373444795609
1733751648672742100,3.4567421875,-0.17614276707172394,-0.33912134170532227,-0.008332982659339905
1733751648682718000,3.466718017578125,-0.1546681523323059,-0.16041433811187744,-0.05650113895535469
1733751648692694300,3.4766943359375,-0.08790828287601471,0.053014323115348816,-0.09942170977592468
1733751648702669000,3.4866689453125,0.01776968315243721,0.23551081120967865,-0.10208763927221298
1733751648712645000,3.49664501953125,0.1294006109237671,0.31901049613952637,-0.06129200756549835
1733751648722621200,3.50662109375,0.20897319912910461,0.33269238471984863,-0.0010351688833907247
1733751648732597000,3.516596923828125,0.23758940398693085,0.28347131609916687,0.056530654430389404
1733751648742572000,3.526572021484375,0.23775677382946014,0.20554207265377045,0.0675416812300682
1733751648752548000,3.536548095703125,0.2274058759212494,0.12554949522018433,0.021320125088095665
1733751648762524200,3.546524169921875,0.20800074934959412,0.06314365565776825,-0.07289852201938629
1733751648772500000,3.5565,0.2043468952178955,0.04452868551015854,-0.2093418538570404
1733751648782475000,3.56647509765625,0.2097744345664978,0.11375133693218231,-0.38007640838623047
1733751648792451000,3.576451171875,0.2466038167476654,0.2305370718240738,-0.5374085307121277
1733751648802427100,3.58642724609375,0.3302520215511322,0.3434527814388275,-0.6620447635650635
1733751648812403200,3.5964033203125,0.44701698422431946,0.3995426595211029,-0.7369635105133057
1733751648822378200,3.606378173828125,0.5566313862800598,0.39685842394828796,-0.7553521990776062
1733751648832354000,3.61635400390625,0.6333078145980835,0.3351697623729706,-0.7381455302238464
1733751648842330000,3.626330078125,0.6468548774719238,0.3006495237350464,-0.725089430809021
1733751648852305200,3.63630517578125,0.6123025417327881,0.3192242681980133,-0.7255650758743286
1733751648862281000,3.646281005859375,0.5523682236671448,0.30548152327537537,-0.7298040986061096
1733751648872257000,3.656257080078125,0.4941299855709076,0.253312885761261,-0.7371786236763
1733751648882233000,3.666233154296875,0.4556017518043518,0.16943733394145966,-0.7470910549163818
1733751648892208000,3.6762080078125,0.41646847128868103,0.08894222229719162,-0.7666687965393066
1733751648902184000,3.686183837890625,0.3861813545227051,0.045011911541223526,-0.798936128616333
1733751648912160300,3.69616015625,0.3502286672592163,0.0697082057595253,-0.8555133938789368
1733751648922136000,3.706135986328125,0.33283865451812744,0.1342320293188095,-0.9254646301269531
1733751648932111000,3.716111083984375,0.343742698431015,0.23347526788711548,-0.9833822846412659
1733751648942087200,3.726087158203125,0.4065793454647064,0.3487621545791626,-0.9979162216186523
1733751648952063000,3.73606298828125,0.5192363858222961,0.4134697914123535,-0.9568241834640503
1733751648962039000,3.7460390625,0.6494320034980774,0.40216147899627686,-0.874782919883728
1733751648972014000,3.75601416015625,0.7524630427360535,0.3741926848888397,-0.7871007323265076
1733751648981991200,3.7659912109375,0.8187122941017151,0.37023091316223145,-0.7256671190261841
1733751648991967200,3.77596728515625,0.8263230919837952,0.3669741451740265,-0.693620502948761
1733751649001942300,3.7859423828125,0.7991276383399963,0.4038640856742859,-0.6715073585510254
1733751649011918300,3.79591845703125,0.7645052075386047,0.3996531069278717,-0.6381997466087341
1733751649021894100,3.80589404296875,0.7192204594612122,0.36282357573509216,-0.5837644934654236
1733751649031870200,3.8158701171875,0.6773449182510376,0.3638390302658081,-0.5187702775001526
1733751649041845000,3.825844970703125,0.6536376476287842,0.356303870677948,-0.46446147561073303
1733751649051821300,3.8358212890625,0.6458979845046997,0.331118106842041,-0.4344218373298645
1733751649061797000,3.845797119140625,0.6410462856292725,0.32593539357185364,-0.42414000630378723
1733751649071773200,3.855773193359375,0.6398183107376099,0.3258610963821411,-0.42886632680892944
1733751649081748200,3.865748291015625,0.623368501663208,0.31116437911987305,-0.43533018231391907
1733751649091724000,3.87572412109375,0.6066728830337524,0.306503564119339,-0.4702855050563812
1733751649101700400,3.885700439453125,0.6003997921943665,0.27625975012779236,-0.5254309773445129
1733751649111675100,3.895675048828125,0.582952082157135,0.21950937807559967,-0.5851520895957947
1733751649121651200,3.905651123046875,0.5629218816757202,0.1793091744184494,-0.657696545124054
1733751649131627000,3.915626953125,0.5512498021125793,0.1540118157863617,-0.7339814305305481
1733751649141603300,3.925603271484375,0.5560303926467896,0.15322116017341614,-0.8129054307937622
1733751649151578000,3.935578125,0.5772091746330261,0.15680764615535736,-0.8839391469955444
1733751649161554200,3.94555419921875,0.6335476040840149,0.14798401296138763,-0.9420374631881714
1733751649171530200,3.9555302734375,0.7149180769920349,0.14012528955936432,-0.9782229065895081
1733751649181506000,3.965506103515625,0.7862386107444763,0.12569105625152588,-0.9964284300804138
1733751649191481000,3.975481201171875,0.8322593569755554,0.13853202760219574,-1.0191622972488403
1733751649201457200,3.98545703125,0.8458520770072937,0.1571517288684845,-1.028584599494934
1733751649211433200,3.99543310546875,0.8294855952262878,0.15600711107254028,-1.0049080848693848
1733751649221409000,4.005408935546875,0.7821483612060547,0.13261714577674866,-0.9275258183479309
1733751649231384300,4.01538427734375,0.7406980991363525,0.10195589810609818,-0.8072941899299622
1733751649241360100,4.025360107421875,0.7330126762390137,0.07605434209108353,-0.6820574402809143
1733751649251336200,4.035336181640625,0.7606269717216492,0.059476692229509354,-0.6034289002418518
1733751649261311200,4.045311279296875,0.8128002285957336,0.0495990514755249,-0.5935210585594177
1733751649271287300,4.055287353515625,0.8689255714416504,0.019931435585021973,-0.6500058770179749
1733751649281263000,4.06526318359375,0.904617190361023,-0.027329426258802414,-0.7593856453895569
1733751649291239200,4.0752392578125,0.8979976773262024,-0.05286860838532448,-0.8704376220703125
1733751649301214200,4.085214111328125,0.8536465167999268,-0.05781601369380951,-0.9388983845710754
1733751649311190000,4.09518994140625,0.8017798662185669,-0.06602520495653152,-0.9392475485801697
1733751649321166300,4.105166259765625,0.7681116461753845,-0.0857163518667221,-0.8595367074012756
1733751649331142100,4.11514208984375,0.7619177103042603,-0.13308972120285034,-0.7238955497741699
1733751649341117200,4.1251171875,0.7828267216682434,-0.15547692775726318,-0.5866492390632629
1733751649351093200,4.13509326171875,0.813034176826477,-0.13886146247386932,-0.5009279251098633
1733751649361069300,4.1450693359375,0.8181280493736267,-0.11834824830293655,-0.4783911406993866
1733751649371045000,4.155045166015625,0.7797908186912537,-0.09156723320484161,-0.5119951963424683
1733751649381020400,4.1650205078125,0.7205478549003601,-0.09249196201562881,-0.570870041847229
1733751649390996200,4.174996337890625,0.6682047843933105,-0.09254363179206848,-0.6440041661262512
1733751649400972000,4.184971923828125,0.6304044723510742,-0.08499765396118164,-0.6952722072601318
1733751649410947000,4.194947021484375,0.6161307096481323,-0.09320418536663055,-0.705264151096344
1733751649420923100,4.204923095703125,0.6008066534996033,-0.116205595433712,-0.676240861415863
1733751649430899200,4.214899169921875,0.567660927772522,-0.1364791840314865,-0.6066900491714478
1733751649440875300,4.224875244140625,0.5059821605682373,-0.14969408512115479,-0.5219257473945618
1733751649450850300,4.234850341796875,0.4424087703227997,-0.14137916266918182,-0.44118958711624146
1733751649460826000,4.244826171875,0.4122730493545532,-0.13970443606376648,-0.38264718651771545
1733751649470802400,4.254802490234375,0.4358481466770172,-0.14232659339904785,-0.35833412408828735
1733751649480778200,4.2647783203125,0.47635459899902344,-0.13225321471691132,-0.36831870675086975
1733751649490753300,4.274753173828125,0.506489098072052,-0.13796250522136688,-0.38353389501571655
1733751649500729000,4.28472900390625,0.5162270069122314,-0.1818409562110901,-0.3937586545944214
1733751649510705200,4.294705078125,0.5176509618759155,-0.2667430639266968,-0.4040118157863617
1733751649520681200,4.30468115234375,0.5207380056381226,-0.32331445813179016,-0.43882736563682556
1733751649530656000,4.314656005859375,0.5357017517089844,-0.34076163172721863,-0.5068886876106262
1733751649540632300,4.32463232421875,0.5527403950691223,-0.35834163427352905,-0.5957219004631042
1733751649550608100,4.334608154296875,0.5584670305252075,-0.3746875822544098,-0.70094895362854
1733751649560583200,4.344583251953125,0.535164475440979,-0.37460485100746155,-0.7951838970184326
1733751649570559200,4.354559326171875,0.5054814219474792,-0.35577282309532166,-0.858071506023407
1733751649580535300,4.364535400390625,0.5005370378494263,-0.33699244260787964,-0.8925654292106628
1733751649590511000,4.374510986328125,0.5302028059959412,-0.3341793417930603,-0.9115694761276245
1733751649600486400,4.384486328125,0.6001808643341064,-0.31819260120391846,-0.9357151389122009
1733751649610462200,4.394462158203125,0.6899238228797913,-0.25173714756965637,-0.9904630780220032
1733751649620438000,4.40443798828125,0.814635694026947,-0.10958953946828842,-1.0854289531707764
1733751649630414300,4.414414306640625,0.9418695569038391,0.08568381518125534,-1.195813775062561
1733751649640389000,4.42438916015625,1.0375248193740845,0.3232998549938202,-1.286693811416626
1733751649650365200,4.434365234375,1.0854955911636353,0.5341439247131348,-1.3153952360153198
1733751649660341200,4.44434130859375,1.0924373865127563,0.667708694934845,-1.2281203269958496
1733751649670316300,4.45431640625,1.05606210231781,0.7340309619903564,-1.0517075061798096
1733751649680292000,4.4642919921875,1.029475212097168,0.7959190607070923,-0.8387868404388428
1733751649690268200,4.47426806640625,1.0488840341567993,0.8152562975883484,-0.6675781011581421
1733751649700244200,4.484244140625,1.1011720895767212,0.8302453756332397,-0.5957696437835693
1733751649710219300,4.49421923828125,1.1565083265304565,0.8601638078689575,-0.6564857363700867
1733751649720195300,4.5041953125,1.19467294216156,0.8339526057243347,-0.8357853293418884
1733751649730171100,4.514171142578125,1.1859982013702393,0.7729693651199341,-1.1077313423156738
1733751649740147200,4.524147216796875,1.1054668426513672,0.7501406073570251,-1.427871823310852
1733751649750122200,4.534122314453125,0.9946174621582031,0.7353379130363464,-1.7278656959533691
1733751649760098300,4.544098388671875,0.898591935634613,0.6945288777351379,-1.9478057622909546
1733751649770074000,4.55407421875,0.8379080295562744,0.597477912902832,-2.0516512393951416
1733751649780050200,4.56405029296875,0.8022207617759705,0.4988501965999603,-2.055980682373047
1733751649790025200,4.574025146484375,0.7788070440292358,0.4212200939655304,-1.9985003471374512
1733751649800001000,4.5840009765625,0.751484215259552,0.40651366114616394,-1.9158684015274048
1733751649809977300,4.593977294921875,0.7111831307411194,0.45361965894699097,-1.8246358633041382
1733751649819952000,4.6039521484375,0.6470910906791687,0.6033694744110107,-1.7255563735961914
1733751649829928200,4.61392822265625,0.6118113994598389,0.8285248279571533,-1.5936412811279297
1733751649839904300,4.623904296875,0.6189318299293518,0.9667717814445496,-1.424311876296997
1733751649849880300,4.63388037109375,0.6693252325057983,0.9603732824325562,-1.2487170696258545
1733751649859855000,4.643855224609375,0.7298623919487,0.8889228701591492,-1.132224440574646
1733751649869831200,4.6538310546875,0.7805034518241882,0.7791755795478821,-1.1104472875595093
1733751649879807200,4.66380712890625,0.7894072532653809,0.6345760226249695,-1.1666934490203857
1733751649889783000,4.673782958984375,0.7639466524124146,0.49870553612709045,-1.2637603282928467
1733751649899758000,4.683758056640625,0.7068462371826172,0.40599846839904785,-1.3763844966888428
1733751649909734100,4.693734130859375,0.6247119903564453,0.29457688331604004,-1.4748719930648804
1733751649919710200,4.703710205078125,0.5573927164077759,0.25141385197639465,-1.5281058549880981
1733751649929686300,4.713686279296875,0.5439823269844055,0.2550589144229889,-1.5279431343078613
1733751649939661300,4.723661376953125,0.6087242364883423,0.2854464650154114,-1.4663503170013428
1733751649949637000,4.73363720703125,0.7000019550323486,0.2888694107532501,-1.3576093912124634
1733751649959613200,4.74361328125,0.7562344074249268,0.2757236063480377,-1.2288572788238525
1733751649969588200,4.753588134765625,0.743603527545929,0.3008345663547516,-1.110093593597412
1733751649979564300,4.763564208984375,0.6746103763580322,0.355648398399353,-1.0048153400421143
1733751649989539800,4.773539794921875,0.6068851351737976,0.5086619257926941,-0.8913191556930542
1733751649999516000,4.783515869140625,0.5871372818946838,0.652982771396637,-0.7470299601554871
1733751650009491000,4.793490966796875,0.6460620760917664,0.7880892157554626,-0.5864772796630859
1733751650019466800,4.803466796875,0.7708213329315186,0.9201135635375977,-0.47470545768737793
1733751650029443000,4.813443115234375,0.9003944993019104,0.9379375576972961,-0.4441275894641876
1733751650039419000,4.8234189453125,0.9515970945358276,0.8477239012718201,-0.5123880505561829
1733751650049394000,4.833393798828125,0.8855009078979492,0.6976856589317322,-0.6507222056388855
1733751650059370000,4.843369873046875,0.7236534357070923,0.5500074028968811,-0.8543662428855896
1733751650069346000,4.853345947265625,0.5299127101898193,0.46114516258239746,-1.0845980644226074
1733751650079320800,4.86332080078125,0.3605288863182068,0.4417244493961334,-1.287302017211914
1733751650089297200,4.873297119140625,0.26061880588531494,0.4160126745700836,-1.4031682014465332
1733751650099273000,4.88327294921875,0.24196402728557587,0.29823943972587585,-1.4175786972045898
1733751650109248800,4.893248779296875,0.31426674127578735,0.16369333863258362,-1.3772908449172974
1733751650119223800,4.903223876953125,0.41841310262680054,0.04509700462222099,-1.3385164737701416
1733751650129199900,4.913199951171875,0.509445309638977,-0.02405090630054474,-1.316599726676941
1733751650139176000,4.923176025390625,0.555641770362854,-0.07213608920574188,-1.3343687057495117
1733751650149152000,4.933152099609375,0.5553357601165771,-0.10932979732751846,-1.3967702388763428
1733751650159127000,4.943126953125,0.51390141248703,-0.11936889588832855,-1.4970766305923462
1733751650169102800,4.953102783203125,0.4418463706970215,-0.11196450889110565,-1.6067008972167969
1733751650179079200,4.9630791015625,0.3584355115890503,-0.08260227739810944,-1.7027356624603271
1733751650189055000,4.973054931640625,0.30896463990211487,-0.04560564085841179,-1.748384952545166
1733751650199030000,4.983030029296875,0.3375089466571808,-0.0206292774528265,-1.730424404144287
1733751650209005800,4.993005859375,0.44007739424705505,-0.001346127362921834,-1.643784761428833
1733751650218982000,5.00298193359375,0.5669535994529724,0.033702898770570755,-1.519287347793579
1733751650228957000,5.01295703125,0.6672975420951843,0.0876002162694931,-1.3780510425567627
1733751650238932700,5.0229326171875,0.7091451287269592,0.1122906506061554,-1.242466926574707
1733751650248909000,5.032908935546875,0.6987084150314331,0.11719059944152832,-1.1550776958465576
1733751650258884900,5.042884765625,0.655234158039093,0.14306335151195526,-1.1233081817626953
1733751650268860000,5.05285986328125,0.6025978326797485,0.17360182106494904,-1.1391679048538208
1733751650278836000,5.0628359375,0.5417652130126953,0.1671973168849945,-1.198046326637268
1733751650288812000,5.07281201171875,0.4809313714504242,0.11669126898050308,-1.2689087390899658
1733751650298787800,5.082787841796875,0.42643725872039795,0.04681451991200447,-1.3385618925094604
1733751650308763100,5.09276318359375,0.39369237422943115,-0.00442922580987215,-1.3965399265289307
1733751650318739000,5.102739013671875,0.3703692555427551,0.04297805204987526,-1.4159069061279297
1733751650328714800,5.11271484375,0.36085909605026245,0.17094852030277252,-1.3642634153366089
1733751650338691000,5.122691162109375,0.3801371157169342,0.3180205523967743,-1.1936544179916382
1733751650348665900,5.132665771484375,0.43435242772102356,0.4174928069114685,-0.95540452003479
1733751650358642000,5.142641845703125,0.4913644790649414,0.4625483453273773,-0.6994966864585876
1733751650368618000,5.152617919921875,0.5298895239830017,0.4524501860141754,-0.49371853470802307
1733751650378593000,5.162593017578125,0.5131850242614746,0.38264983892440796,-0.36118370294570923
1733751650388568800,5.17256884765625,0.4646105468273163,0.3067638874053955,-0.3055334985256195
1733751650398545200,5.182545166015625,0.40179285407066345,0.2166219800710678,-0.31534087657928467
1733751650408521000,5.19252099609375,0.3133071959018707,0.14765943586826324,-0.36236485838890076
1733751650418496000,5.20249609375,0.23203419148921967,0.10446888953447342,-0.4375394284725189
1733751650428472000,5.21247216796875,0.18327464163303375,0.11794901639223099,-0.5030382871627808
1733751650438447900,5.22244775390625,0.14103874564170837,0.1551896035671234,-0.5239837169647217
1733751650448424000,5.232423828125,0.09492211043834686,0.18713928759098053,-0.4753216505050659
1733751650458399000,5.24239892578125,0.06206834316253662,0.2101052850484848,-0.36554840207099915
1733751650468375000,5.252375,0.0448579303920269,0.23454324901103973,-0.23368492722511292
1733751650478350800,5.262350830078125,0.04480224847793579,0.27759966254234314,-0.12341026961803436
1733751650488326000,5.272325927734375,0.06466303765773773,0.3135664463043213,-0.04753335192799568
1733751650498302000,5.282302001953125,0.08310361951589584,0.3009430468082428,-0.010964827612042427
1733751650508278000,5.292278076171875,0.09091892838478088,0.209926575422287,0.019735559821128845
1733751650518254000,5.302254150390625,0.0746433362364769,0.07275989651679993,0.03649309277534485
1733751650528229000,5.31222900390625,0.018462618812918663,-0.02749054506421089,0.04034535586833954
1733751650538205000,5.322204833984375,-0.06115935742855072,-0.09670238196849823,0.03524484112858772
1733751650548181000,5.332180908203125,-0.12825636565685272,-0.13779973983764648,0.04570973291993141
1733751650558157000,5.342156982421875,-0.1709459125995636,-0.17944687604904175,0.0966777577996254
1733751650568131800,5.3521318359375,-0.1937447041273117,-0.22607430815696716,0.18736904859542847
1733751650578108000,5.36210791015625,-0.20517340302467346,-0.2509114742279053,0.28784453868865967
1733751650588084000,5.372083984375,-0.1874449998140335,-0.2689216434955597,0.37008988857269287
1733751650598059000,5.38205908203125,-0.15512283146381378,-0.28202566504478455,0.42499643564224243
1733751650608034800,5.392034912109375,-0.14096279442310333,-0.28762418031692505,0.4504394829273224
1733751650618011000,5.402010986328125,-0.15678809583187103,-0.2716195583343506,0.4539983868598938
1733751650627987000,5.411987060546875,-0.18560484051704407,-0.2809659242630005,0.4459681510925293
1733751650637962000,5.4219619140625,-0.22689977288246155,-0.32579872012138367,0.4485195577144623
1733751650647938000,5.43193798828125,-0.28007617592811584,-0.3731617033481598,0.4583844244480133
1733751650657913900,5.441913818359375,-0.34623172879219055,-0.3935697078704834,0.5045372843742371
1733751650667890000,5.451889892578125,-0.4043368399143219,-0.4021048843860626,0.590842068195343
1733751650677865000,5.461864990234375,-0.4485260546207428,-0.4147854149341583,0.712566614151001
1733751650687841000,5.471841064453125,-0.49818840622901917,-0.395908921957016,0.8452495336532593
1733751650697816800,5.48181689453125,-0.5828309655189514,-0.2981565594673157,0.9686549305915833
1733751650707793000,5.49179296875,-0.707568883895874,-0.22720569372177124,1.0753026008605957
1733751650717768000,5.501767822265625,-0.8376917243003845,-0.42936182022094727,1.1980286836624146
1733751650727743700,5.51174365234375,-0.922086775302887,-0.8991101384162903,1.3739888668060303
1733751650737720000,5.521719970703125,-0.9262410998344421,-1.1189675331115723,1.6224777698516846
1733751650747694800,5.53169482421875,-0.8510621786117554,-1.00201416015625,1.8760164976119995
1733751650757671000,5.5416708984375,-0.7409510612487793,-0.7073568105697632,2.0948190689086914
1733751650767647000,5.55164697265625,-0.6721325516700745,-0.3531494736671448,2.2740979194641113
1733751650777623000,5.561623046875,-0.6543529629707336,-0.05912815034389496,2.410032272338867
1733751650787597800,5.571597900390625,-0.6480785608291626,0.09076707065105438,2.4874460697174072
1733751650797574100,5.58157421875,-0.6056699752807617,0.12585857510566711,2.5222856998443604
1733751650807550000,5.591550048828125,-0.5548520684242249,0.022091424092650414,2.5324900150299072
1733751650817525800,5.60152587890625,-0.5284143686294556,-0.12445327639579773,2.510077476501465
1733751650827501000,5.6115009765625,-0.5289366245269775,-0.23309293389320374,2.4415457248687744
1733751650837476900,5.621476806640625,-0.5615020394325256,-0.32042554020881653,2.310246706008911
1733751650847453000,5.631452880859375,-0.616692304611206,-0.30656591057777405,2.1106972694396973
1733751650857427700,5.641427734375,-0.7412452697753906,-0.2519340515136719,1.9070160388946533
1733751650867404000,5.651404052734375,-0.9164834022521973,-0.19962932169437408,1.7564715147018433
1733751650877379800,5.6613798828125,-1.0643974542617798,-0.15957577526569366,1.677971601486206
1733751650887356200,5.671356201171875,-1.0963833332061768,-0.1760042905807495,1.695610523223877
1733751650897331000,5.6813310546875,-1.013465404510498,-0.257562518119812,1.7534047365188599
1733751650907307000,5.69130712890625,-0.8779454231262207,-0.2721521258354187,1.7781460285186768
1733751650917283000,5.701282958984375,-0.7379570603370667,-0.26478615403175354,1.730668544769287
1733751650927259000,5.7112587890625,-0.6536203622817993,-0.3206968307495117,1.6401604413986206
1733751650937234000,5.72123388671875,-0.6714550852775574,-0.32132309675216675,1.4991285800933838
1733751650947209700,5.731209716796875,-0.7854628562927246,-0.23372720181941986,1.367688775062561
1733751650957186000,5.74118603515625,-0.9545201063156128,-0.10935602337121964,1.314605712890625
1733751650967160800,5.751160888671875,-1.0949021577835083,-0.011215874925255775,1.3568952083587646
1733751650977137000,5.761136962890625,-1.1379486322402954,-0.035415053367614746,1.4606983661651611
1733751650987113000,5.771113037109375,-1.094495177268982,-0.08237484097480774,1.579132080078125
1733751650997089000,5.781089111328125,-1.014304518699646,-0.17495939135551453,1.6630390882492065
1733751651007063800,5.791063720703125,-0.9524141550064087,-0.25491493940353394,1.7040365934371948
1733751651017040100,5.8010400390625,-0.9058443903923035,-0.31885531544685364,1.6838120222091675
1733751651027016000,5.811015869140625,-0.8753687739372253,-0.3660507798194885,1.6238791942596436
1733751651036991700,5.82099169921875,-0.8320936560630798,-0.35950273275375366,1.5459318161010742
1733751651046967000,5.830967041015625,-0.7943995594978333,-0.2896416485309601,1.5103785991668701
1733751651056942800,5.84094287109375,-0.7982953190803528,-0.18860512971878052,1.564164638519287
1733751651066919000,5.8509189453125,-0.8557921648025513,-0.17826887965202332,1.6922427415847778
1733751651076894000,5.86089404296875,-0.9201777577400208,-0.25685247778892517,1.8597012758255005
1733751651086870000,5.8708701171875,-0.97492915391922,-0.3440406322479248,2.0032501220703125
1733751651096845800,5.880845703125,-0.9764975309371948,-0.38631173968315125,2.0561695098876953
1733751651106822000,5.89082177734375,-0.9243181943893433,-0.3817763924598694,1.9776309728622437
1733751651116797000,5.900796875,-0.8421726226806641,-0.344979852437973,1.806721806526184
1733751651126773000,5.91077294921875,-0.7692142724990845,-0.33865562081336975,1.5994155406951904
1733751651136749000,5.9207490234375,-0.7546843886375427,-0.3731868267059326,1.410435676574707
1733751651146724900,5.930724853515625,-0.8406972885131836,-0.34531843662261963,1.2901995182037354
1733751651156700000,5.940699951171875,-0.9557621479034424,-0.29819369316101074,1.2589884996414185
1733751651166676000,5.950676025390625,-1.0394892692565918,-0.2616924047470093,1.3221904039382935
1733751651176652000,5.960652099609375,-1.0607637166976929,-0.194712296128273,1.4794836044311523
1733751651186627800,5.9706279296875,-1.0086376667022705,-0.15999825298786163,1.6878303289413452
1733751651196603100,5.98060302734375,-0.8942655324935913,-0.18781088292598724,1.8660449981689453
1733751651206579000,5.990578857421875,-0.7507911920547485,-0.20583009719848633,1.939063549041748
1733751651216555000,6.000554931640625,-0.6579563021659851,-0.21406149864196777,1.9065699577331543
1733751651226529800,6.01052978515625,-0.6592682003974915,-0.24413231015205383,1.7847782373428345
1733751651236506000,6.020506103515625,-0.7277492880821228,-0.28871065378189087,1.5894471406936646
1733751651246482000,6.03048193359375,-0.8111142516136169,-0.3146192133426666,1.3426635265350342
1733751651256458000,6.0404580078125,-0.8384755253791809,-0.3707077205181122,1.0881636142730713
1733751651266433000,6.05043310546875,-0.7992730140686035,-0.43093323707580566,0.8774440884590149
1733751651276408800,6.060408935546875,-0.7216966152191162,-0.4740678071975708,0.7203492522239685
1733751651286385200,6.07038525390625,-0.6492689847946167,-0.48122638463974,0.6226442456245422
1733751651296361000,6.08036083984375,-0.6215860247612,-0.4961950480937958,0.5928959250450134
1733751651306336000,6.0903359375,-0.653927206993103,-0.5186135172843933,0.6336649060249329
1733751651316311800,6.100311767578125,-0.7136733531951904,-0.5012558698654175,0.7177739143371582
1733751651326288000,6.110287841796875,-0.7798166871070862,-0.40225955843925476,0.8418838977813721
1733751651336263000,6.120262939453125,-0.7805420160293579,-0.2326509654521942,0.9892998337745667
1733751651346239000,6.130239013671875,-0.6947397589683533,-0.10571779310703278,1.1484860181808472
1733751651356215000,6.140215087890625,-0.5614627599716187,-0.01152418926358223,1.2694488763809204
1733751651366190800,6.15019091796875,-0.42778438329696655,-0.0005594226531684399,1.3263428211212158
1733751651376166000,6.160165771484375,-0.34736597537994385,-0.038876891136169434,1.296623945236206
1733751651386142000,6.170141845703125,-0.35888999700546265,-0.04877160117030144,1.200013279914856
1733751651396118000,6.180117919921875,-0.45017755031585693,-0.018966298550367355,1.111676812171936
1733751651406093800,6.19009375,-0.5698856115341187,0.0377529039978981,1.0709439516067505
1733751651416069000,6.200069091796875,-0.6550928354263306,0.08282063901424408,1.0728647708892822
1733751651426045000,6.210044921875,-0.6784761548042297,0.0852571651339531,1.0829392671585083
1733751651436020700,6.220020751953125,-0.6483915448188782,0.06811386346817017,1.0724035501480103
1733751651445996000,6.22999609375,-0.5700626373291016,0.0196299497038126,1.0180130004882812
1733751651455971800,6.239971923828125,-0.48581939935684204,-0.10414177924394608,0.9177035689353943
1733751651465948000,6.249947998046875,-0.4428764581680298,-0.25526127219200134,0.7722691297531128
1733751651475924000,6.259924072265625,-0.4638684093952179,-0.42481690645217896,0.604795515537262
1733751651485899000,6.26989892578125,-0.543258011341095,-0.5800448060035706,0.45464861392974854
1733751651495874800,6.279874755859375,-0.6491129994392395,-0.7042552828788757,0.3414447605609894
1733751651505851100,6.28985107421875,-0.7436386942863464,-0.7865973114967346,0.2946128249168396
1733751651515827000,6.299826904296875,-0.8088697195053101,-0.780850887298584,0.34011515974998474
1733751651525802000,6.309802001953125,-0.8400359153747559,-0.6760736107826233,0.4703906178474426
1733751651535778000,6.319778076171875,-0.8130583763122559,-0.5742878317832947,0.6700431108474731
1733751651545753900,6.32975390625,-0.7580785155296326,-0.47994139790534973,0.8984044194221497
1733751651555729000,6.33972900390625,-0.6927433013916016,-0.420653373003006,1.1032806634902954
1733751651565705000,6.349705078125,-0.646989107131958,-0.3989161252975464,1.242499589920044
1733751651575681000,6.359680908203125,-0.6192893385887146,-0.3620569407939911,1.2877449989318848
1733751651585656800,6.36965673828125,-0.6180189847946167,-0.42117834091186523,1.262309193611145
1733751651595631900,6.3796318359375,-0.6546682715415955,-0.5205318331718445,1.1752313375473022
1733751651605608000,6.38960791015625,-0.7282096147537231,-0.6020490527153015,1.0668030977249146
1733751651615584000,6.399583984375,-0.8188902735710144,-0.6586818695068359,0.9848272800445557
1733751651625560000,6.40956005859375,-0.9325513243675232,-0.6688873767852783,0.9628887176513672
1733751651635535000,6.41953515625,-1.027618646621704,-0.6146131753921509,1.0143139362335205
1733751651645511000,6.429510986328125,-1.0472898483276367,-0.544887363910675,1.1173977851867676
1733751651655487000,6.439487060546875,-0.9762201905250549,-0.4737507402896881,1.202750563621521
1733751651665462000,6.4494619140625,-0.8635421395301819,-0.4161692261695862,1.2326010465621948
1733751651675437800,6.459437744140625,-0.7612538933753967,-0.4296830892562866,1.2036511898040771
1733751651685414000,6.469413818359375,-0.6926607489585876,-0.46863821148872375,1.1228514909744263
1733751651695390000,6.479389892578125,-0.6762845516204834,-0.6052535772323608,1.0178364515304565
1733751651705365000,6.489364990234375,-0.7263959050178528,-0.7849772572517395,0.8889849185943604
1733751651715340800,6.4993408203125,-0.8392912745475769,-0.927155613899231,0.7667165398597717
1733751651725317000,6.509317138671875,-0.9137487411499023,-1.0283385515213013,0.6607288718223572
1733751651735292000,6.5192919921875,-0.9135469794273376,-1.0957785844802856,0.5827500820159912
1733751651745268000,6.52926806640625,-0.8872858285903931,-1.1087894439697266,0.5438277125358582
1733751651755244000,6.539244140625,-0.883090078830719,-1.0155208110809326,0.5503132939338684
1733751651765219800,6.5492197265625,-0.888322651386261,-0.8585559725761414,0.6094005703926086
1733751651775195000,6.55919482421875,-0.9039775729179382,-0.7041469812393188,0.6895412802696228
1733751651785171000,6.5691708984375,-0.9114490747451782,-0.6071456074714661,0.7638019323348999
1733751651795147000,6.57914697265625,-0.9007245898246765,-0.5566060543060303,0.800958514213562
1733751651805122800,6.589122802734375,-0.8660611510276794,-0.5577940940856934,0.7909998893737793
1733751651815098000,6.59909814453125,-0.8290563821792603,-0.5898318886756897,0.73418790102005
1733751651825074000,6.609073974609375,-0.7957716584205627,-0.6854798197746277,0.6560214757919312
1733751651835050000,6.619050048828125,-0.7793481945991516,-0.7817959189414978,0.5640790462493896
1733751651845025000,6.62902490234375,-0.7661479711532593,-0.8397377729415894,0.4626685380935669
1733751651855001000,6.6390009765625,-0.7461182475090027,-0.8777493238449097,0.35711053013801575
1733751651864977000,6.648976806640625,-0.7192594408988953,-0.8884738683700562,0.273149311542511
1733751651874953000,6.658952880859375,-0.7071004509925842,-0.8379737734794617,0.21480430662631989
1733751651884928000,6.668927978515625,-0.7023520469665527,-0.7517723441123962,0.18629969656467438
1733751651894903800,6.67890380859375,-0.684370219707489,-0.65802401304245,0.18489564955234528
1733751651904880000,6.688880126953125,-0.6464148759841919,-0.5442620515823364,0.1792452186346054
1733751651914856000,6.69885595703125,-0.596194863319397,-0.43660885095596313,0.15911628305912018
1733751651924831000,6.7088310546875,-0.5539100170135498,-0.3505996763706207,0.12012307345867157
1733751651934807000,6.71880712890625,-0.5257618427276611,-0.29511043429374695,0.07794211059808731
1733751651944782800,6.728782958984375,-0.5149416923522949,-0.2883310914039612,0.04717540740966797
1733751651954758000,6.7387578125,-0.5478066205978394,-0.29281553626060486,0.029999317601323128
1733751651964734000,6.74873388671875,-0.5972346067428589,-0.29259583353996277,0.03982105478644371
1733751651974710000,6.7587099609375,-0.614269495010376,-0.2747742831707001,0.0600036196410656
1733751651984685800,6.768685791015625,-0.5968888998031616,-0.27773118019104004,0.09165901690721512
1733751651994660900,6.778660888671875,-0.560182511806488,-0.3236131966114044,0.1278364062309265
1733751652004637000,6.788636962890625,-0.5188116431236267,-0.40064433217048645,0.15978609025478363
1733751652014613000,6.798613037109375,-0.48680853843688965,-0.448355108499527,0.15785904228687286
1733751652024589000,6.808589111328125,-0.4440291225910187,-0.4474419057369232,0.11210993677377701
1733751652034564000,6.818564208984375,-0.39912527799606323,-0.4519091248512268,0.03932301327586174
1733751652044540000,6.828539794921875,-0.38246962428092957,-0.46402090787887573,-0.007014920935034752
1733751652054515700,6.838515625,-0.39503014087677,-0.4771626591682434,-0.02862846478819847
1733751652064491000,6.848490966796875,-0.4111821949481964,-0.4462055265903473,-0.03083942085504532
1733751652074466800,6.858466796875,-0.4161476790904999,-0.3813917934894562,-0.026149937883019447
1733751652084443000,6.86844287109375,-0.4078484773635864,-0.31262046098709106,0.002246549818664789
1733751652094419000,6.8784189453125,-0.3797304034233093,-0.2701131999492645,0.048214543610811234
1733751652104394000,6.88839404296875,-0.34089910984039307,-0.24101020395755768,0.08292058855295181
1733751652114369800,6.898369873046875,-0.2897322177886963,-0.21119451522827148,0.07186125218868256
1733751652124346000,6.90834619140625,-0.249090775847435,-0.17201940715312958,0.013217379339039326
1733751652134321000,6.91832080078125,-0.2509818971157074,-0.14741162955760956,-0.08440189808607101
1733751652144297000,6.928296875,-0.2704259157180786,-0.15429696440696716,-0.17574912309646606
1733751652154273000,6.93827294921875,-0.26778021454811096,-0.18985210359096527,-0.2535412311553955
1733751652164248800,6.948248779296875,-0.22686710953712463,-0.22353923320770264,-0.3161768913269043
1733751652174224000,6.958223876953125,-0.14983737468719482,-0.21158923208713531,-0.3729666769504547
1733751652184200000,6.968199951171875,-0.04690726473927498,-0.16949531435966492,-0.4208498001098633
1733751652194176000,6.978176025390625,0.047191280871629715,-0.12525470554828644,-0.4535902738571167
1733751652204151800,6.98815185546875,0.1173115149140358,-0.08579438179731369,-0.48453620076179504
1733751652214127000,6.998127197265625,0.1536804586648941,-0.05441631004214287,-0.5065081715583801
1733751652224103000,7.00810302734375,0.18586502969264984,0.001344154356047511,-0.5117852091789246
1733751652234079000,7.018078857421875,0.2244524210691452,0.07929554581642151,-0.5088464021682739
1733751652244053800,7.0280537109375,0.2903217077255249,0.15824176371097565,-0.49297451972961426
1733751652254030000,7.038030029296875,0.35635653138160706,0.22957618534564972,-0.4657681882381439
1733751652264006000,7.048005859375,0.4000720679759979,0.30115506052970886,-0.43580231070518494
1733751652273982000,7.05798193359375,0.44021710753440857,0.3555412292480469,-0.4072437584400177
1733751652283957000,7.06795703125,0.49826735258102417,0.38283011317253113,-0.4037209153175354
1733751652293932800,7.077932861328125,0.5775762796401978,0.37790998816490173,-0.43759894371032715
1733751652303909000,7.0879091796875,0.6513501405715942,0.36123061180114746,-0.4988905191421509
1733751652313884000,7.0978837890625,0.7060039043426514,0.24398158490657806,-0.5383773446083069
1733751652323860000,7.10785986328125,0.6893197298049927,0.2292817384004593,-0.5503634214401245
1733751652333835800,7.117835693359375,0.5820624828338623,0.2982434332370758,-0.4968133568763733
1733751652343812000,7.12781201171875,0.44908979535102844,0.30368295311927795,-0.38560640811920166
1733751652353787000,7.137786865234375,0.3585829734802246,0.26826685667037964,-0.24914780259132385
1733751652363763000,7.147762939453125,0.3352619409561157,0.28867730498313904,-0.1340201497077942
1733751652373739000,7.157739013671875,0.3835686445236206,0.37165990471839905,-0.07400120794773102
1733751652383714000,7.167714111328125,0.49005991220474243,0.4888978600502014,-0.07463983446359634
1733751652393689900,7.17768994140625,0.6013571619987488,0.6048986315727234,-0.12905871868133545
1733751652403666000,7.187666015625,0.6771296858787537,0.6591877341270447,-0.216570183634758
1733751652413642000,7.19764208984375,0.7215282917022705,0.6390783786773682,-0.32175013422966003
1733751652423616800,7.20761669921875,0.7419539093971252,0.5706867575645447,-0.4396171271800995
1733751652433593000,7.217593017578125,0.759129524230957,0.48650652170181274,-0.56846022605896
1733751652443569000,7.22756884765625,0.771746814250946,0.43634164333343506,-0.6926162838935852
1733751652453545000,7.237544921875,0.7857720255851746,0.4320529103279114,-0.7915225028991699
1733751652463520000,7.24752001953125,0.8020351529121399,0.44257453083992004,-0.8487104177474976
1733751652473496000,7.25749609375,0.8134231567382812,0.4594417214393616,-0.8469014763832092
1733751652483472000,7.267471923828125,0.8265120387077332,0.47726890444755554,-0.7922971248626709
1733751652493447200,7.277447265625,0.8572006821632385,0.4788845181465149,-0.7202054858207703
1733751652503423000,7.287423095703125,0.8911197781562805,0.4525282680988312,-0.6628713607788086
1733751652513398800,7.297398681640625,0.9117140769958496,0.44489574432373047,-0.640380322933197
1733751652523375000,7.307375,0.9395803213119507,0.4501762390136719,-0.6673322916030884
1733751652533350000,7.317349853515625,0.9728176593780518,0.4501064717769623,-0.7201294302940369
1733751652543326000,7.327325927734375,0.9841747283935547,0.4435979723930359,-0.7688767313957214
1733751652553302000,7.337302001953125,0.9637269973754883,0.42415663599967957,-0.7911285758018494
1733751652563278000,7.347278076171875,0.936547577381134,0.38588327169418335,-0.7880931496620178
1733751652573252900,7.3572529296875,0.9272370934486389,0.34628796577453613,-0.77162766456604
1733751652583229200,7.367229248046875,0.9431833028793335,0.3434000313282013,-0.7687405347824097
1733751652593205000,7.377205078125,0.9735128879547119,0.37948477268218994,-0.7983007431030273
1733751652603180000,7.387179931640625,0.9925087094306946,0.41697967052459717,-0.8538734912872314
1733751652613155800,7.39715576171875,0.9968134164810181,0.43683189153671265,-0.8822941184043884
1733751652623132000,7.4071318359375,0.9759475588798523,0.4017902910709381,-0.8556787967681885
1733751652633108000,7.41710791015625,0.9405752420425415,0.316354364156723,-0.7815690040588379
1733751652643082800,7.427082763671875,0.9068388342857361,0.22958751022815704,-0.6913642883300781
1733751652653059000,7.43705908203125,0.8763169646263123,0.16918931901454926,-0.6216045022010803
1733751652663035000,7.447034912109375,0.8501295447349548,0.1567576825618744,-0.5871841907501221
1733751652673010000,7.457010009765625,0.8332787156105042,0.18189704418182373,-0.6063550710678101
1733751652682986000,7.466986083984375,0.8334957361221313,0.19557715952396393,-0.6949517726898193
1733751652692962000,7.476962158203125,0.8391389846801758,0.17798280715942383,-0.8609673380851746
1733751652702937900,7.486937744140625,0.8524500131607056,0.09684587270021439,-1.1021431684494019
1733751652712913200,7.4969130859375,0.8517866730690002,-0.1027885377407074,-1.3848564624786377
1733751652722889000,7.506888916015625,0.8231345415115356,-0.3955274820327759,-1.6309330463409424
1733751652732864800,7.51686474609375,0.7500870227813721,-0.7152734398841858,-1.782874345779419
1733751652742840000,7.526840087890625,0.6536379456520081,-0.8678224682807922,-1.8095277547836304
1733751652752815900,7.53681591796875,0.5926731824874878,-0.7984203100204468,-1.6831715106964111
1733751652762792000,7.5467919921875,0.5883316993713379,-0.6138635277748108,-1.4372706413269043
1733751652772768000,7.55676806640625,0.6063632369041443,-0.34008103609085083,-1.0945959091186523
1733751652782743000,7.566742919921875,0.6642665266990662,-0.07394759356975555,-0.7077712416648865
1733751652792718800,7.57671875,0.7504165768623352,0.12570255994796753,-0.3646070957183838
1733751652802695000,7.58669482421875,0.8501898050308228,0.2543862462043762,-0.142902672290802
1733751652812671000,7.5966708984375,0.9290614724159241,0.294803649187088,-0.06953433156013489
1733751652822646000,7.60664599609375,0.9618103504180908,0.25161170959472656,-0.12180499732494354
1733751652832622000,7.6166220703125,0.9451063871383667,0.15010496973991394,-0.24271392822265625
1733751652842598000,7.626597900390625,0.8734649419784546,0.07834583520889282,-0.39421316981315613
1733751652852573000,7.636572998046875,0.7853991985321045,0.06871563196182251,-0.53202885389328
1733751652862548700,7.646548828125,0.7407928109169006,0.056654173880815506,-0.6025802493095398
1733751652872525000,7.656525146484375,0.7329443693161011,0.02409321442246437,-0.5873287320137024
1733751652882500900,7.6665009765625,0.7287970185279846,0.028227239847183228,-0.5193544626235962
1733751652892476000,7.676475830078125,0.7422008514404297,0.06581570953130722,-0.4474945664405823
1733751652902452000,7.686451904296875,0.7654169201850891,0.10757674276828766,-0.40337875485420227
1733751652912427800,7.696427734375,0.7948071360588074,0.12833815813064575,-0.3842353820800781
1733751652922404000,7.706404052734375,0.815596342086792,0.1438385546207428,-0.3852875828742981
1733751652932379000,7.71637890625,0.8166826963424683,0.13737590610980988,-0.3977150619029999
1733751652942355000,7.72635498046875,0.7931142449378967,0.11712124198675156,-0.4300476908683777
1733751652952330800,7.736330810546875,0.7462431788444519,0.0660620927810669,-0.4804465174674988
1733751652962306000,7.74630615234375,0.6641510128974915,-0.03459687530994415,-0.5432893633842468
1733751652972281900,7.75628173828125,0.5451177358627319,-0.18019619584083557,-0.6193757653236389
1733751652982258000,7.7662578125,0.399330735206604,-0.3145023286342621,-0.7039050459861755
1733751652992233500,7.7762333984375,0.2904772460460663,-0.40166911482810974,-0.7885810136795044
1733751653002208500,7.78620849609375,0.27997079491615295,-0.45494723320007324,-0.8443569540977478
1733751653012184300,7.796184326171875,0.3325178623199463,-0.5100799202919006,-0.8488452434539795
1733751653022160600,7.80616064453125,0.39092710614204407,-0.5497381091117859,-0.8274435997009277
1733751653032135400,7.816135498046875,0.4053564965724945,-0.5395487546920776,-0.7684115767478943
1733751653042111500,7.826111572265625,0.38343843817710876,-0.5001779198646545,-0.6663480997085571
1733751653052087600,7.836087646484375,0.3646564781665802,-0.46873006224632263,-0.5331445932388306
1733751653062063400,7.8460634765625,0.37548649311065674,-0.4847026467323303,-0.3866955041885376
1733751653072038400,7.856038330078125,0.42646849155426025,-0.4964117109775543,-0.27351969480514526
1733751653082014500,7.866014404296875,0.5023435354232788,-0.4731343686580658,-0.24906203150749207
1733751653091990500,7.875990478515625,0.5998362302780151,-0.41760554909706116,-0.3164622485637665
1733751653101966300,7.88596630859375,0.7253187894821167,-0.3643580377101898,-0.4619475305080414
1733751653111941400,7.89594140625,0.8360540270805359,-0.340560644865036,-0.6465292572975159
1733751653121917400,7.90591748046875,0.8817874193191528,-0.3361895978450775,-0.822191059589386
1733751653131893500,7.9158935546875,0.8441799879074097,-0.3385685980319977,-0.9533136487007141
1733751653141868300,7.925868408203125,0.7956875562667847,-0.32388022541999817,-1.0187714099884033
1733751653151844600,7.9358447265625,0.7937911152839661,-0.2598567605018616,-1.0333088636398315
1733751653161820400,7.9458203125,0.8375313878059387,-0.17093460261821747,-0.9982030391693115
1733751653171796500,7.95579638671875,0.9218385219573975,-0.05848778411746025,-0.937293291091919
1733751653181771500,7.965771484375,1.0172580480575562,0.022250473499298096,-0.8839187026023865
1733751653191747300,7.975747314453125,1.0883105993270874,0.06473960727453232,-0.8786629438400269
1733751653201723400,7.985723388671875,1.1223570108413696,0.0491689071059227,-0.926537275314331
1733751653211698400,7.995698486328125,1.1556686162948608,-0.0021765301935374737,-1.0510965585708618
1733751653221674500,8.005674560546876,1.1844161748886108,-0.0934332087635994,-1.2164576053619385
1733751653231650300,8.015650390625,1.1910710334777832,-0.22336386144161224,-1.3957217931747437
1733751653241626600,8.025626708984374,1.1893588304519653,-0.41075533628463745,-1.5595288276672363
1733751653251601400,8.035601318359374,1.1833585500717163,-0.5866953730583191,-1.6916874647140503
1733751653261577500,8.045577392578124,1.206474781036377,-0.677856981754303,-1.7987499237060547
1733751653271553500,8.055553466796875,1.2835748195648193,-0.6644558906555176,-1.8562366962432861
1733751653281529300,8.065529296875,1.42205810546875,-0.6198543310165405,-1.848453164100647
1733751653291504400,8.07550439453125,1.6469168663024902,-0.4839757978916168,-1.7767102718353271
1733751653301480400,8.08548046875,1.8364616632461548,-0.21811240911483765,-1.687732458114624
1733751653311456500,8.09545654296875,1.9276347160339355,-0.05723996087908745,-1.5701831579208374
1733751653321431300,8.105431396484375,1.9050582647323608,0.0946667492389679,-1.4480808973312378
1733751653331407600,8.11540771484375,1.7860751152038574,0.25956377387046814,-1.3418817520141602
1733751653341383400,8.125383544921876,1.623203992843628,0.4450814425945282,-1.2787483930587769
1733751653351359500,8.135359375,1.5423948764801025,0.5631335973739624,-1.253474235534668
1733751653361334500,8.14533447265625,1.546569585800171,0.6450119614601135,-1.2535592317581177
1733751653371310600,8.155310546875,1.5419602394104004,0.6633859276771545,-1.2626416683197021
1733751653381286400,8.165286376953125,1.497243881225586,0.6046901345252991,-1.261102318763733
1733751653391261400,8.175261474609375,1.4257951974868774,0.4989143908023834,-1.2616345882415771
1733751653401237500,8.185237548828125,1.3834447860717773,0.384922593832016,-1.2910792827606201
1733751653411213300,8.19521337890625,1.3449585437774658,0.2810594439506531,-1.3585493564605713
1733751653421189600,8.205189697265626,1.3011530637741089,0.1583220660686493,-1.4415934085845947
1733751653431164400,8.215164306640625,1.2809845209121704,0.1613166183233261,-1.5327054262161255
1733751653441140500,8.225140380859376,1.2458208799362183,0.21195316314697266,-1.6270713806152344
1733751653451116500,8.235116455078124,1.1895215511322021,0.22832117974758148,-1.6821649074554443
1733751653461092400,8.24509228515625,1.1504011154174805,0.20179156959056854,-1.6973228454589844
1733751653471067400,8.2550673828125,1.1175626516342163,0.049780357629060745,-1.6893914937973022
1733751653481043500,8.26504345703125,1.0782126188278198,0.017027473077178,-1.7063872814178467
1733751653491019500,8.27501953125,0.9943464398384094,0.039006635546684265,-1.739863634109497
1733751653500994600,8.28499462890625,0.9089588522911072,-0.01716981828212738,-1.7807799577713013
1733751653510970400,8.294970458984375,0.8627986907958984,-0.04889543727040291,-1.8361685276031494
1733751653520946400,8.304946533203125,0.8669744729995728,-0.0803377777338028,-1.8788464069366455
1733751653530922500,8.314922607421876,0.8903323411941528,-0.14918167889118195,-1.9017584323883057
1733751653540897300,8.324897216796876,0.8850733637809753,-0.2219134122133255,-1.899348497390747
1733751653550873600,8.33487353515625,0.8290307521820068,-0.24226444959640503,-1.8772140741348267
1733751653560849400,8.344849365234374,0.7678437829017639,-0.20531494915485382,-1.8126201629638672
1733751653570824400,8.354824462890624,0.7457095980644226,-0.16576971113681793,-1.7124630212783813
1733751653580800500,8.364800537109375,0.7631466388702393,-0.12341640889644623,-1.5822662115097046
1733751653590776300,8.3747763671875,0.7872464656829834,-0.04296048358082771,-1.4478518962860107
1733751653600752400,8.38475244140625,0.7977603673934937,0.016851453110575676,-1.3194738626480103
1733751653610727400,8.3947275390625,0.7660356163978577,0.05478391423821449,-1.2107374668121338
1733751653620703500,8.404703369140625,0.7030529379844666,0.035419538617134094,-1.1220319271087646
1733751653630679300,8.41467919921875,0.6168099045753479,-0.011556759476661682,-1.0653529167175293
1733751653640655600,8.424655517578126,0.5367278456687927,-0.09317412972450256,-1.0441882610321045
1733751653650630400,8.43463037109375,0.5149539709091187,-0.14303834736347198,-1.0659064054489136
1733751653660606500,8.4446064453125,0.565885066986084,-0.1583709716796875,-1.1249902248382568
1733751653670582500,8.45458251953125,0.6620469689369202,-0.037374693900346756,-1.199399709701538
1733751653680557600,8.4645576171875,0.7485315203666687,0.15207938849925995,-1.2765157222747803
1733751653690533400,8.474533447265625,0.7667683959007263,0.19040822982788086,-1.3184561729431152
1733751653700509400,8.484509521484375,0.732646644115448,0.12943516671657562,-1.3084964752197266
1733751653710485500,8.494485595703125,0.6360263228416443,0.14627614617347717,-1.2602510452270508
1733751653720460300,8.504460205078125,0.502464771270752,0.11890897154808044,-1.1589406728744507
1733751653730436600,8.5144365234375,0.38703039288520813,-0.003667137585580349,-1.001725196838379
1733751653740412400,8.524412353515626,0.3152123689651489,-0.13102802634239197,-0.8574473857879639
1733751653750387500,8.534387451171876,0.29739174246788025,-0.12922553718090057,-0.796684980392456
1733751653760363300,8.54436328125,0.3352568447589874,-0.07356920093297958,-0.7944200038909912
1733751653770339600,8.554339599609374,0.3925625681877136,-0.0011564029846340418,-0.8093366622924805
1733751653780315400,8.5643154296875,0.444803923368454,0.08121197670698166,-0.8191573023796082
1733751653790290400,8.57429052734375,0.467306524515152,0.18091481924057007,-0.7927320599555969
1733751653800266500,8.5842666015625,0.4692381024360657,0.2197469025850296,-0.739536464214325
1733751653810242300,8.5942421875,0.4673177897930145,0.21350625157356262,-0.6509560346603394
1733751653820217300,8.60421728515625,0.45319798588752747,0.1614830046892166,-0.5358715057373047
1733751653830193400,8.614193359375,0.43238598108291626,0.06348295509815216,-0.4345487952232361
1733751653840169500,8.62416943359375,0.42302098870277405,-0.044389449059963226,-0.3781587481498718
1733751653850145300,8.634145263671876,0.423530250787735,-0.09738781303167343,-0.3839055597782135
1733751653860120600,8.64412060546875,0.42371666431427,-0.10237830877304077,-0.43019476532936096
1733751653870096400,8.654096435546874,0.4227837920188904,-0.06197870522737503,-0.48931193351745605
1733751653880072400,8.664072509765624,0.4222058951854706,0.02755623869597912,-0.5423126220703125
1733751653890048500,8.674048583984375,0.4373687207698822,0.12047713249921799,-0.5566555261611938
1733751653900023600,8.6840234375,0.4634711444377899,0.18950733542442322,-0.5176516771316528
1733751653909999400,8.693999267578125,0.48113229870796204,0.2708005905151367,-0.4346472918987274
1733751653919975400,8.703975341796875,0.48296427726745605,0.26875609159469604,-0.32976800203323364
1733751653929950500,8.713950439453125,0.4624618589878082,0.2389993965625763,-0.2336030900478363
1733751653939926300,8.72392626953125,0.42063239216804504,0.19585192203521729,-0.15253141522407532
1733751653949902600,8.733902587890626,0.34738048911094666,0.13264751434326172,-0.08735673874616623
1733751653959878400,8.74387841796875,0.23733150959014893,0.07557757198810577,-0.03410444036126137
1733751653969853400,8.753853515625,0.11154787987470627,0.02098897658288479,0.016118064522743225
1733751653979829500,8.76382958984375,-0.0011911836918443441,-0.022348111495375633,0.04973035305738449
1733751653989805300,8.773805419921874,-0.06418570876121521,-0.05536298453807831,0.06390742212533951
1733751653999780400,8.7837802734375,-0.08547022193670273,-0.0543706901371479,0.06386108696460724
1733751654009756400,8.79375634765625,-0.08864287286996841,-0.021116483956575394,0.05830245465040207
1733751654019732200,8.803732177734375,-0.07936735451221466,0.0033571654930710793,0.06855563074350357
1733751654029708300,8.813708251953125,-0.07782859355211258,-0.001874959678389132,0.10697140544652939
1733751654039683300,8.823683349609375,-0.0925913006067276,-0.03103550896048546,0.17017515003681183
1733751654049659100,8.8336591796875,-0.10915490239858627,-0.07846449315547943,0.2293233573436737
1733751654059635500,8.843635498046876,-0.13695405423641205,-0.1003761813044548,0.26793599128723145
1733751654069610200,8.8536103515625,-0.17472660541534424,-0.08781590312719345,0.27572765946388245
1733751654079586300,8.86358642578125,-0.20980308949947357,-0.0576995424926281,0.2744003236293793
1733751654089562400,8.873562255859374,-0.2326555848121643,-0.03432771563529968,0.2844817042350769
1733751654099538400,8.883538330078125,-0.25288015604019165,-0.029422705993056297,0.3132696747779846
1733751654109513200,8.89351318359375,-0.2731563150882721,-0.026541389524936676,0.3660750091075897
1733751654119489500,8.903489501953125,-0.28215596079826355,-0.01867787167429924,0.42530637979507446
1733751654129465300,8.91346533203125,-0.2806337773799896,-0.005647240672260523,0.47542914748191833
1733751654139441200,8.923441162109375,-0.26263320446014404,0.012918454594910145,0.5117562413215637
1733751654149416200,8.933416259765625,-0.23302069306373596,0.010475348681211472,0.5277073383331299
1733751654159392300,8.943392333984375,-0.22745494544506073,-0.0002963384613394737,0.5390292406082153
1733751654169368300,8.953368408203126,-0.25669318437576294,-0.022122232243418694,0.5581873655319214
1733751654179343000,8.963343017578126,-0.32421231269836426,-0.060932744294404984,0.5952579975128174
1733751654189319400,8.9733193359375,-0.41099196672439575,-0.0930429995059967,0.6442333459854126
1733751654199295200,8.983295166015624,-0.5039016604423523,-0.1041310727596283,0.7138582468032837
1733751654209271600,8.993271484375,-0.5788782238960266,-0.08711937069892883,0.8106631636619568
1733751654219246300,9.003246337890625,-0.6245951056480408,-0.05058612674474716,0.9338279962539673
1733751654229222400,9.013222412109375,-0.6431325674057007,0.008989399299025536,1.0699759721755981
1733751654239198200,9.0231982421875,-0.6256630420684814,0.062051549553871155,1.2083988189697266
1733751654249173500,9.033173583984375,-0.5941996574401855,0.07414888590574265,1.338316798210144
1733751654259149300,9.0431494140625,-0.5617924332618713,0.05208858475089073,1.4486374855041504
1733751654269125000,9.053125,-0.5487435460090637,0.044425107538700104,1.5178165435791016
1733751654279101400,9.063101318359376,-0.539226233959198,0.05011868104338646,1.5419775247573853
1733751654289076200,9.073076171875,-0.5367306470870972,0.04377029091119766,1.5371626615524292
1733751654299052300,9.08305224609375,-0.5460485219955444,0.01360759325325489,1.520344614982605
1733751654309028400,9.0930283203125,-0.5763030052185059,-0.038115840405225754,1.5056031942367554
1733751654319003400,9.10300341796875,-0.6435483694076538,-0.05976281315088272,1.5017088651657104
1733751654328979200,9.112979248046875,-0.7307100892066956,-0.04966254159808159,1.5244110822677612
1733751654338955500,9.12295556640625,-0.8153282999992371,-0.01185284461826086,1.567080020904541
1733751654348931300,9.132931396484375,-0.8794360160827637,0.06173694506287575,1.627532720565796
1733751654358906400,9.14290625,-0.9108940958976746,0.13396400213241577,1.69679856300354
1733751654368882400,9.15288232421875,-0.9054105877876282,0.16927729547023773,1.7755579948425293
1733751654378858200,9.162858154296876,-0.8767541646957397,0.15968725085258484,1.8382631540298462
1733751654388834300,9.172834228515624,-0.8541198968887329,0.10082004219293594,1.87887442111969
1733751654398809300,9.182809326171874,-0.854117214679718,0.00954499188810587,1.8862870931625366
1733751654408785400,9.192785400390624,-0.8632773160934448,-0.027612481266260147,1.859057903289795
1733751654418761200,9.20276123046875,-0.8614884614944458,-0.0014333422295749187,1.8136307001113892
1733751654428736300,9.212736328125,-0.8267770409584045,0.0288179200142622,1.7779945135116577
1733751654438712300,9.22271240234375,-0.7781386375427246,0.04499928653240204,1.759379267692566
1733751654448688400,9.2326884765625,-0.7411444187164307,0.07444040477275848,1.7644081115722656
1733751654458664400,9.24266455078125,-0.7247046828269958,0.11020692437887192,1.7813175916671753
1733751654468639500,9.252639404296875,-0.7340018153190613,0.1240779235959053,1.804432988166809
1733751654478615300,9.262615234375,-0.7824955582618713,0.10472127050161362,1.8366273641586304
1733751654488591400,9.27259130859375,-0.8708723783493042,0.05126694589853287,1.8807759284973145
1733751654498566400,9.28256640625,-0.9725723266601562,-0.02146531641483307,1.9423959255218506
1733751654508542200,9.292542236328124,-1.0550692081451416,-0.0887920930981636,2.0270752906799316
1733751654518518300,9.302518310546875,-1.084950566291809,-0.14559677243232727,2.149872064590454
1733751654528494300,9.312494384765625,-1.037166953086853,-0.28814420104026794,2.3241641521453857
1733751654538469400,9.322469482421875,-0.9464501142501831,-0.4333021938800812,2.5526444911956787
1733751654548445200,9.332445068359375,-0.8856329321861267,-0.5352622270584106,2.8031704425811768
1733751654558421200,9.342421142578125,-0.879933774471283,-0.5698103308677673,3.0254695415496826
1733751654568396300,9.352396240234375,-0.9362511038780212,-0.5701053738594055,3.169574022293091
1733751654578372400,9.362372314453125,-1.0311939716339111,-0.5562760829925537,3.2140533924102783
1733751654588348400,9.372348388671876,-1.1147246360778809,-0.45007896423339844,3.1556034088134766
1733751654598324200,9.38232421875,-1.1435527801513672,-0.32667872309684753,3.011314630508423
1733751654608299300,9.39229931640625,-1.1210132837295532,-0.29210367798805237,2.8458118438720703
1733751654618275300,9.402275390625,-1.0770431756973267,-0.21471010148525238,2.6711843013763428
1733751654628251400,9.41225146484375,-0.9922237396240234,-0.1612803339958191,2.475371837615967
1733751654638226200,9.42222607421875,-0.9307992458343506,-0.11467528343200684,2.2934136390686035
1733751654648202500,9.432202392578125,-0.9843677282333374,-0.09725009649991989,2.1745216846466064
1733751654658178300,9.44217822265625,-1.1620244979858398,-0.07357246428728104,2.1463205814361572
1733751654668154000,9.452154052734375,-1.3204476833343506,-0.01907765492796898,2.185391426086426
1733751654678129400,9.46212939453125,-1.2796869277954102,-0.03664360195398331,2.2387235164642334
1733751654688105500,9.47210546875,-1.0729917287826538,-0.09136077016592026,2.244469165802002
1733751654698081300,9.482081298828126,-0.8595412969589233,-0.08317101746797562,2.170689105987549
1733751654708057300,9.492057373046874,-0.712327241897583,-0.03774531930685043,2.036104202270508
1733751654718032400,9.502032470703124,-0.6014723777770996,-0.02484443597495556,1.893183708190918
1733751654728008200,9.51200830078125,-0.5900043249130249,-0.06214039400219917,1.7289186716079712
1733751654737984500,9.521984619140625,-0.6340985298156738,-0.03751414269208908,1.5465190410614014
1733751654747959300,9.531959228515625,-0.6487303972244263,-0.016055947169661522,1.3734983205795288
1733751654757935400,9.541935302734375,-0.5784956812858582,0.035544928163290024,1.2108620405197144
1733751654767911400,9.551911376953125,-0.4255107045173645,0.09207909554243088,1.065969467163086
1733751654777887200,9.56188720703125,-0.23312635719776154,0.09787573665380478,0.9474110007286072
1733751654787862300,9.5718623046875,-0.08099627494812012,0.018728045746684074,0.859427273273468
1733751654797838300,9.58183837890625,-0.018764592707157135,-0.0817708671092987,0.7757347822189331
1733751654807814400,9.591814453125,-0.07874345034360886,-0.16155265271663666,0.7044305801391602
1733751654817790200,9.601790283203124,-0.252314954996109,-0.19576787948608398,0.6550933718681335
1733751654827765200,9.61176513671875,-0.48982754349708557,-0.17019930481910706,0.6663522124290466
1733751654837741300,9.6217412109375,-0.6901374459266663,-0.07482458651065826,0.7770704627037048
1733751654847717400,9.63171728515625,-0.805675745010376,0.15391822159290314,0.9485845565795898
1733751654857692200,9.641692138671875,-0.8009145855903625,0.4462049603462219,1.1377646923065186
1733751654867668500,9.65166845703125,-0.6662835478782654,0.6751644611358643,1.3291547298431396
1733751654877644300,9.661644287109375,-0.48466819524765015,0.6905322670936584,1.5369223356246948
1733751654887620000,9.6716201171875,-0.3763626217842102,0.5386613011360168,1.7247520685195923
1733751654897595400,9.681595458984376,-0.3736847937107086,0.34234556555747986,1.8187412023544312
1733751654907571200,9.6915712890625,-0.41361767053604126,0.1710972636938095,1.7528705596923828
1733751654917547300,9.70154736328125,-0.4258727431297302,0.03852643817663193,1.5432641506195068
1733751654927522300,9.711522216796874,-0.4113534390926361,-0.022933365777134895,1.2280572652816772
1733751654937498400,9.721498291015624,-0.39590656757354736,-0.033156439661979675,0.8767096996307373
1733751654947474200,9.73147412109375,-0.40378811955451965,-0.027967510744929314,0.5614221692085266
1733751654957450500,9.741450439453125,-0.4293440580368042,-0.06131507828831673,0.3342883288860321
1733751654967425300,9.75142529296875,-0.4471626281738281,-0.09172713756561279,0.20177175104618073
1733751654977401300,9.7614013671875,-0.41447579860687256,-0.1296505481004715,0.14940574765205383
1733751654987377400,9.77137744140625,-0.34952762722969055,-0.1285308301448822,0.15679657459259033
1733751654997352700,9.781352783203126,-0.32527634501457214,-0.08591677993535995,0.20604801177978516
1733751655007328500,9.79132861328125,-0.36387595534324646,-0.02122751623392105,0.28751257061958313
1733751655017304600,9.8013046875,-0.4629519283771515,0.033813633024692535,0.4031433165073395
1733751655027280600,9.81128076171875,-0.564474880695343,0.007877955213189125,0.5584220290184021
1733751655037255400,9.82125537109375,-0.6496169567108154,-0.056388117372989655,0.7390857934951782
1733751655047231700,9.831231689453125,-0.7258926630020142,-0.10970409214496613,0.9140143990516663
1733751655057207600,9.84120751953125,-0.7736303806304932,-0.13958609104156494,1.0679436922073364
1733751655067183600,9.85118359375,-0.7853248715400696,-0.14382512867450714,1.1676011085510254
1733751655077158700,9.86115869140625,-0.7794070243835449,-0.1387408822774887,1.1937587261199951
1733751655087134700,9.871134765625,-0.7776927351951599,-0.10818005353212357,1.126205563545227
1733751655097110500,9.881110595703126,-0.7859876751899719,-0.06452818214893341,1.0128779411315918
1733751655107085600,9.89108544921875,-0.8019969463348389,-0.032967470586299896,0.8901861310005188
1733751655117061600,9.9010615234375,-0.8201583623886108,-0.026059232652187347,0.7929874062538147
1733751655127037400,9.911037353515624,-0.844612181186676,-0.02775476686656475,0.7339343428611755
1733751655137013800,9.921013671875,-0.8784776926040649,-0.03359561040997505,0.7241501808166504
1733751655146988500,9.930988525390624,-0.9222313165664673,-0.019182713702321053,0.7453619837760925
1733751655156964600,9.940964599609375,-0.9636013507843018,0.019569475203752518,0.784695029258728
1733751655166940700,9.950940673828125,-0.992347776889801,0.06407240033149719,0.8325775265693665
1733751655176915700,9.960915771484375,-0.9929645657539368,0.10774824023246765,0.8793186545372009
1733751655186891500,9.9708916015625,-0.9639375805854797,0.13706719875335693,0.915461540222168
1733751655196867600,9.98086767578125,-0.9115737080574036,0.16508258879184723,0.9354704022407532
1733751655206843600,9.99084375,-0.8492653369903564,0.16874165832996368,0.9158700704574585
1733751655216818700,10.000818603515626,-0.8048158884048462,0.15216800570487976,0.8435540795326233
1733751655226794500,10.01079443359375,-0.7958370447158813,0.10744912922382355,0.7357408404350281
1733751655236770600,10.0207705078125,-0.808860182762146,0.05214087292551994,0.6013124585151672
1733751655246745600,10.03074560546875,-0.836468517780304,0.034349001944065094,0.4585022032260895
1733751655256721400,10.040721435546875,-0.8539950251579285,0.054642822593450546,0.31896960735321045
1733751655266697700,10.05069775390625,-0.8461015224456787,0.06907125562429428,0.21822737157344818
1733751655276673500,10.060673583984375,-0.8102729320526123,0.04518270120024681,0.1643415093421936
1733751655286648600,10.070648681640625,-0.7606695294380188,0.005225064232945442,0.1496598869562149
1733751655296624600,10.080624755859375,-0.720747172832489,-0.05801728740334511,0.15276753902435303
1733751655306600400,10.090600341796875,-0.7051116228103638,-0.16023091971874237,0.14606310427188873
1733751655316576500,10.100576416015626,-0.7131455540657043,-0.258083701133728,0.11328598856925964
1733751655326551600,10.110551513671876,-0.7554245591163635,-0.3364417254924774,0.056084636598825455
1733751655336527600,10.120527587890624,-0.8347694277763367,-0.3697115182876587,-0.011476295068860054
1733751655346503400,10.13050341796875,-0.9231727123260498,-0.3773878812789917,-0.07538251578807831
1733751655356478500,10.140478515625,-0.9764271378517151,-0.373407244682312,-0.10313931107521057
1733751655366454500,10.15045458984375,-1.030134916305542,-0.3659534156322479,-0.08231743425130844
1733751655376430600,10.1604306640625,-1.0723081827163696,-0.40394607186317444,-0.011395853012800217
1733751655386406700,10.17040673828125,-1.0959250926971436,-0.4866064786911011,0.11317015439271927
1733751655396381700,10.180381591796875,-1.0906075239181519,-0.5905856490135193,0.2441428154706955
1733751655406357500,10.190357421875,-1.0797702074050903,-0.669597864151001,0.349351167678833
1733751655416333600,10.20033349609375,-1.0623339414596558,-0.7123439908027649,0.41870254278182983
1733751655426308600,10.21030859375,-1.0269248485565186,-0.7311395406723022,0.4665171205997467
1733751655436284400,10.220284423828126,-0.9801801443099976,-0.7290298342704773,0.4855667054653168
1733751655446260500,10.230260498046874,-0.9159852862358093,-0.6995591521263123,0.4934246242046356
1733751655456236500,10.240236572265625,-0.8338238596916199,-0.7194673418998718,0.5008652210235596
1733751655466211600,10.250211669921875,-0.7522609233856201,-0.7903475165367126,0.5206848978996277
1733751655476187400,10.2601875,-0.7044220566749573,-0.8892836570739746,0.5392119884490967
1733751655486163700,10.270163818359375,-0.7052838206291199,-0.9760048985481262,0.5504231452941895
1733751655496138500,10.280138427734375,-0.7304203510284424,-1.0250779390335083,0.5333280563354492
1733751655506114600,10.290114501953125,-0.7336434125900269,-1.0453660488128662,0.4824903905391693
1733751655516090600,10.300090576171876,-0.7026673555374146,-1.026982307434082,0.41446447372436523
1733751655526066400,10.31006640625,-0.7161207795143127,-0.9440274238586426,0.34757834672927856
1733751655536041500,10.32004150390625,-0.6963201761245728,-0.8847843408584595,0.3013107180595398
1733751655546017500,10.330017578125,-0.6026568412780762,-0.8713432550430298,0.322626531124115
1733751655555993600,10.33999365234375,-0.48731565475463867,-0.916303277015686,0.35505211353302
1733751655565969400,10.349969482421875,-0.40268993377685547,-0.9628134369850159,0.3965616524219513
1733751655575944700,10.35994482421875,-0.357628732919693,-1.021842360496521,0.43380436301231384
1733751655585920500,10.36992041015625,-0.3892150819301605,-1.0738223791122437,0.4785669445991516
1733751655595896600,10.379896484375,-0.5119348764419556,-1.0720372200012207,0.5250982046127319
1733751655605871600,10.38987158203125,-0.6662496328353882,-0.9990726709365845,0.561872661113739
1733751655615847700,10.39984765625,-0.7742725014686584,-0.8429579138755798,0.5950508713722229
1733751655625823500,10.409823486328126,-0.7957183122634888,-0.6612554788589478,0.623709499835968
1733751655635799600,10.419799560546876,-0.7290218472480774,-0.5170525312423706,0.6397534608840942
1733751655645774600,10.429774658203126,-0.5844954252243042,-0.4592784345149994,0.6522865295410156
1733751655655750400,10.43975048828125,-0.43911850452423096,-0.4669414162635803,0.6328989267349243
1733751655665726700,10.449726806640625,-0.3616766631603241,-0.5025479197502136,0.5751156806945801
1733751655675701500,10.459701416015625,-0.3606715798377991,-0.5172970294952393,0.4918002784252167
1733751655685677600,10.469677490234375,-0.4311979115009308,-0.4803657829761505,0.41756895184516907
1733751655695653600,10.479653564453125,-0.5395348072052002,-0.4116021692752838,0.39418667554855347
1733751655705629700,10.489629638671875,-0.6298149228096008,-0.3669992983341217,0.44845134019851685
1733751655715604500,10.4996044921875,-0.670441746711731,-0.3688214421272278,0.5590478777885437
1733751655725580500,10.50958056640625,-0.6632722616195679,-0.41980239748954773,0.6794837713241577
1733751655735556600,10.519556640625,-0.6112708449363708,-0.4833044111728668,0.7608830332756042
1733751655745532400,10.529532470703124,-0.5036135911941528,-0.5062229037284851,0.7491182684898376
1733751655755507500,10.539507568359374,-0.41064953804016113,-0.47903522849082947,0.6316635608673096
1733751655765483500,10.5494833984375,-0.3739125728607178,-0.4140690267086029,0.43986746668815613
1733751655775459600,10.55945947265625,-0.39239490032196045,-0.32094255089759827,0.22652696073055267
1733751655785434400,10.569434326171875,-0.42874932289123535,-0.2979968190193176,0.041469477117061615
1733751655795410700,10.57941064453125,-0.43926188349723816,-0.26145583391189575,-0.08910317718982697
1733751655805386500,10.589386474609375,-0.42184194922447205,-0.23286330699920654,-0.13753288984298706
1733751655815362600,10.599362548828125,-0.37849313020706177,-0.2316180169582367,-0.13062173128128052
1733751655825337600,10.609337646484375,-0.34789949655532837,-0.23331494629383087,-0.09611283987760544
1733751655835313700,10.619313720703126,-0.31971630454063416,-0.2262546271085739,-0.06948123127222061
1733751655845289500,10.62928955078125,-0.2839718461036682,-0.20822054147720337,-0.07064064592123032
1733751655855264800,10.6392646484375,-0.2472042441368103,-0.1811031699180603,-0.12204445153474808
1733751655865240600,10.649240478515624,-0.22440724074840546,-0.12588843703269958,-0.2041988968849182
1733751655875216400,10.65921630859375,-0.20306600630283356,-0.043245214968919754,-0.3041183054447174
1733751655885192700,10.669192626953125,-0.17685237526893616,0.0466378889977932,-0.38936737179756165
1733751655895167500,10.67916748046875,-0.14305207133293152,0.09884915500879288,-0.4318479895591736
1733751655905143600,10.6891435546875,-0.09264175593852997,0.11849681288003922,-0.42145371437072754
1733751655915119600,10.69911962890625,-0.03125962242484093,0.11297821253538132,-0.3983476161956787
1733751655925094700,10.7090947265625,0.0090986592695117,0.10592815279960632,-0.36529648303985596
1733751655935070500,10.719070556640625,0.025394007563591003,0.10894391685724258,-0.3355255424976349
1733751655945046800,10.729046875,-0.0038361072074621916,0.144862100481987,-0.3353164792060852
1733751655955022600,10.739022705078124,-0.008390911854803562,0.164921835064888,-0.37432485818862915
1733751655964997600,10.74899755859375,0.03625624254345894,0.19096288084983826,-0.4224247336387634
1733751655974973700,10.7589736328125,0.125011146068573,0.19541196525096893,-0.4613516330718994
1733751655984949500,10.768949462890625,0.20745369791984558,0.2157786637544632,-0.4815160930156708
1733751655994924800,10.7789248046875,0.2943297326564789,0.23146627843379974,-0.48040473461151123
1733751656004900900,10.78890087890625,0.3700520098209381,0.25286027789115906,-0.47266656160354614
1733751656014877000,10.798876953125,0.43497082591056824,0.2687223255634308,-0.47731003165245056
1733751656024852700,10.808852783203125,0.49322545528411865,0.28002437949180603,-0.5110353827476501
1733751656034827800,10.818827880859375,0.5480943322181702,0.2955748438835144,-0.5663899779319763
1733751656044803800,10.828803955078126,0.5938131213188171,0.3402274549007416,-0.6336029767990112
1733751656054779600,10.838779541015626,0.6231291890144348,0.42183977365493774,-0.6964275240898132
1733751656064756000,10.848755859375,0.6311547160148621,0.5226375460624695,-0.7254142761230469
1733751656074730800,10.858730712890624,0.6311840415000916,0.6215502619743347,-0.705392599105835
1733751656084706800,10.868706787109375,0.6384204626083374,0.689838707447052,-0.6490046381950378
1733751656094683000,10.878682861328125,0.6831346750259399,0.7069891691207886,-0.5943496823310852
1733751656104658000,10.888657958984375,0.7660282254219055,0.7135228514671326,-0.5838144421577454
1733751656114633700,10.8986337890625,0.8581472039222717,0.747856616973877,-0.635175347328186
1733751656124609800,10.90860986328125,0.9444103837013245,0.7929575443267822,-0.7470359802246094
1733751656134585900,10.9185859375,0.9956746697425842,0.8219319581985474,-0.8757055401802063
1733751656144561000,10.928560791015625,1.011184811592102,0.8167160749435425,-0.9815375804901123
1733751656154536700,10.93853662109375,1.0212448835372925,0.7988889217376709,-1.0785194635391235
1733751656164512800,10.9485126953125,1.0331958532333374,0.8005752563476562,-1.1709753274917603
1733751656174487800,10.95848779296875,1.0385456085205078,0.8431341648101807,-1.2514581680297852
1733751656184463600,10.968463623046874,1.0208102464675903,0.879865825176239,-1.3000805377960205
1733751656194440000,10.97843994140625,0.9763532876968384,0.8627760410308838,-1.2796130180358887
1733751656204414700,10.988414794921875,0.9131354689598083,0.8173388242721558,-1.1903181076049805
1733751656214390800,10.998390869140625,0.8738452792167664,0.774215579032898,-1.0558161735534668
1733751656224366800,11.008366943359375,0.8905181884765625,0.7367864847183228,-0.9393048286437988
1733751656234343000,11.018343017578125,0.9636648297309875,0.7294931411743164,-0.9064925312995911
1733751656244317700,11.028317626953125,1.0706558227539062,0.7367808222770691,-1.0000656843185425
1733751656254294000,11.0382939453125,1.1560735702514648,0.7485474348068237,-1.2239391803741455
1733751656264269800,11.048269775390626,1.2072014808654785,0.7135564684867859,-1.535447597503662
1733751656274245600,11.05824560546875,1.229434609413147,0.6567778587341309,-1.8816630840301514
1733751656284221000,11.068220947265624,1.251894235610962,0.5781187415122986,-2.1802356243133545
1733751656294196700,11.07819677734375,1.2940441370010376,0.5380592346191406,-2.4047069549560547
1733751656304172800,11.0881728515625,1.3292407989501953,0.5509226322174072,-2.546581268310547
1733751656314147600,11.098147705078125,1.2828125953674316,0.6243268251419067,-2.6199092864990234
1733751656324124000,11.1081240234375,1.2454712390899658,0.6623327136039734,-2.6236624717712402
1733751656334099700,11.118099609375,1.250282883644104,0.7732190489768982,-2.575340509414673
1733751656344076000,11.128075927734375,1.2999674081802368,0.8430559635162354,-2.4782345294952393
1733751656354050800,11.13805078125,1.3129754066467285,0.8636608123779297,-2.3414745330810547
1733751656364027000,11.14802685546875,1.2751796245574951,0.8266845345497131,-2.1881160736083984
1733751656374003000,11.1580029296875,1.1841338872909546,0.6890465021133423,-2.056612968444824
1733751656383978000,11.16797802734375,1.1272790431976318,0.5379566550254822,-1.9872498512268066
1733751656393953800,11.177953857421874,1.0973619222640991,0.42275652289390564,-1.9784753322601318
1733751656403929600,11.1879296875,1.0470079183578491,0.3649929165840149,-2.003939151763916
1733751656413906000,11.197906005859375,0.9819785356521606,0.3734718859195709,-2.02961802482605
1733751656423880700,11.207880615234375,0.9479915499687195,0.44279035925865173,-2.0508437156677246
1733751656433856800,11.217856689453125,0.9896881580352783,0.5608426928520203,-2.0776758193969727
1733751656443832800,11.227832763671875,1.1139061450958252,0.661361038684845,-2.134962558746338
1733751656453809000,11.237808837890626,1.2375503778457642,0.6593809723854065,-2.215761184692383
1733751656463783700,11.24778369140625,1.3228034973144531,0.5142531991004944,-2.2651171684265137
1733751656473760000,11.257760009765626,1.3630638122558594,0.31732121109962463,-2.2801480293273926
1733751656483735800,11.26773583984375,1.3830349445343018,0.10456673055887222,-2.291724681854248
1733751656493710800,11.2777109375,1.3615412712097168,-0.06079426780343056,-2.2756590843200684
1733751656503687000,11.28768701171875,1.236693024635315,-0.18631592392921448,-2.2143616676330566
1733751656513662700,11.297662841796875,1.0497231483459473,-0.23471355438232422,-2.101473093032837
1733751656523638800,11.307638671875,0.8760182857513428,-0.20814445614814758,-1.9540562629699707
1733751656533613800,11.31761376953125,0.7398697733879089,-0.1258956640958786,-1.7925077676773071
1733751656543590000,11.32758984375,0.6726983785629272,-0.02256336621940136,-1.620929479598999
1733751656553565700,11.337565673828125,0.6588038802146912,0.028480378910899162,-1.4298378229141235
1733751656563541000,11.347541015625,0.6371338963508606,0.03529335930943489,-1.1971248388290405
1733751656573516800,11.357516845703126,0.5853455066680908,-0.029293887317180634,-0.9536336064338684
1733751656583492900,11.367492919921874,0.5238259434700012,-0.07709493488073349,-0.7630334496498108
1733751656593469000,11.377468994140624,0.503892183303833,-0.07425600290298462,-0.7032049894332886
1733751656603444000,11.38744384765625,0.5326549410820007,-0.038401681929826736,-0.7796468734741211
1733751656613419800,11.397419677734375,0.5917699337005615,-0.029766647145152092,-0.9254519939422607
1733751656623395800,11.407395751953125,0.635852038860321,-0.04640679433941841,-1.0590925216674805
1733751656633371000,11.417370849609375,0.6167095303535461,-0.07548531889915466,-1.1383087635040283
1733751656643346700,11.4273466796875,0.5706172585487366,-0.12862429022789001,-1.1730715036392212
1733751656653323000,11.437322998046875,0.5460150241851807,-0.16979622840881348,-1.1732661724090576
1733751656663298800,11.447298828125,0.551273763179779,-0.17302021384239197,-1.158170223236084
1733751656673273900,11.45727392578125,0.5808236598968506,-0.20619894564151764,-1.130755066871643
1733751656683249700,11.467249755859376,0.5930031538009644,-0.24974806606769562,-1.0877052545547485
1733751656693226000,11.47722607421875,0.5704251527786255,-0.2690373361110687,-1.02325439453125
1733751656703200800,11.48720068359375,0.5304065942764282,-0.2700803577899933,-0.93375164270401
1733751656713176800,11.4971767578125,0.4791487157344818,-0.3129977285861969,-0.8268821835517883
1733751656723153000,11.50715283203125,0.4149811565876007,-0.3561098575592041,-0.7316539287567139
1733751656733128700,11.517128662109375,0.35992348194122314,-0.3377436101436615,-0.6851229071617126
1733751656743103700,11.527103759765625,0.34738123416900635,-0.27470582723617554,-0.7063188552856445
1733751656753079800,11.537079833984375,0.3732288181781769,-0.18686173856258392,-0.7909836769104004
1733751656763055900,11.547055908203125,0.4342201054096222,-0.12731921672821045,-0.9085890054702759
1733751656773030700,11.55703076171875,0.49479424953460693,-0.1661158800125122,-1.0044487714767456
1733751656783007000,11.567007080078126,0.5058459043502808,-0.24961347877979279,-1.0561259984970093
1733751656792982800,11.576982666015626,0.4668505787849426,-0.3266180157661438,-1.0681711435317993
1733751656802958800,11.586958740234374,0.4192110598087311,-0.3751007914543152,-1.068016529083252
1733751656812934000,11.596933837890624,0.38699615001678467,-0.429095596075058,-1.0824910402297974
1733751656822910000,11.606909912109375,0.37586089968681335,-0.4444334805011749,-1.1449497938156128
1733751656832885800,11.6168857421875,0.38208550214767456,-0.38578882813453674,-1.2374498844146729
1733751656842861000,11.626861083984375,0.42446020245552063,-0.2678728997707367,-1.3089929819107056
1733751656852836900,11.6368369140625,0.505537211894989,-0.17732353508472443,-1.3096526861190796
1733751656862812700,11.646812744140625,0.610190749168396,-0.11810396611690521,-1.2345489263534546
1733751656872789000,11.6567890625,0.718010425567627,-0.1437550038099289,-1.1235268115997314
1733751656882763800,11.666763671875,0.786341667175293,-0.2021653950214386,-1.0623180866241455
1733751656892739800,11.67673974609375,0.7945442199707031,-0.17963477969169617,-1.0805284976959229
1733751656902716000,11.6867158203125,0.7296465635299683,-0.14133435487747192,-1.1536152362823486
1733751656912691700,11.696691650390624,0.6205949187278748,-0.04292683303356171,-1.2218742370605469
1733751656922666800,11.706666748046874,0.5189762711524963,0.06417062133550644,-1.2618671655654907
1733751656932642800,11.716642822265625,0.48911210894584656,0.19802029430866241,-1.300428032875061
1733751656942619000,11.726618896484375,0.5595919489860535,0.33886441588401794,-1.3401312828063965
1733751656952594000,11.736593994140625,0.6594280004501343,0.4396671950817108,-1.3633618354797363
1733751656962569700,11.74656982421875,0.7266739010810852,0.43286630511283875,-1.355262041091919
1733751656972545800,11.7565458984375,0.7213329076766968,0.335123211145401,-1.303375482559204
1733751656982521900,11.76652197265625,0.6473289132118225,0.14876128733158112,-1.2706255912780762
1733751656992497000,11.776496826171876,0.5267074108123779,-0.011412149295210838,-1.3382225036621094
1733751657002473000,11.786472900390624,0.4040425419807434,-0.025110479444265366,-1.5117504596710205
1733751657012449000,11.796448974609374,0.318342000246048,0.06030401960015297,-1.716820478439331
1733751657022424000,11.806424072265624,0.285706102848053,0.16901573538780212,-1.860618233680725
1733751657032400000,11.81639990234375,0.28970324993133545,0.2266867458820343,-1.8712838888168335
1733751657042376000,11.8263759765625,0.30571112036705017,0.19671764969825745,-1.7675703763961792
1733751657052352000,11.83635205078125,0.3414941430091858,0.07295256853103638,-1.6319289207458496
1733751657062326800,11.846326904296875,0.3894577622413635,-0.1034432128071785,-1.5393898487091064
1733751657072303000,11.85630322265625,0.4074860215187073,-0.2706540524959564,-1.5308996438980103
1733751657082279000,11.86627880859375,0.3588853180408478,-0.3698219656944275,-1.583016037940979
1733751657092254000,11.87625390625,0.26898446679115295,-0.4054281413555145,-1.6540327072143555
1733751657102229800,11.886229736328126,0.21734288334846497,-0.37459173798561096,-1.7212564945220947
1733751657112206000,11.8962060546875,0.2299787849187851,-0.34008675813674927,-1.7635592222213745
1733751657122182000,11.906181884765624,0.2929299771785736,-0.2797364592552185,-1.7771776914596558
1733751657132157000,11.916156982421874,0.37056058645248413,-0.17387686669826508,-1.7573148012161255
1733751657142133000,11.926133056640625,0.4620260000228882,-0.05579794943332672,-1.7244459390640259
1733751657152108800,11.93610888671875,0.5629424452781677,0.043108925223350525,-1.7012282609939575
1733751657162083800,11.946083740234375,0.6253304481506348,0.07925339788198471,-1.6867835521697998
1733751657172060000,11.956059814453125,0.6415038108825684,0.06118012219667435,-1.696323037147522
1733751657182036000,11.966035888671875,0.6390966773033142,-0.006922455970197916,-1.7347744703292847
1733751657192011800,11.97601171875,0.6289478540420532,-0.07996683567762375,-1.7830886840820312
1733751657201987000,11.985987060546876,0.6002752184867859,-0.14431458711624146,-1.806593656539917
1733751657211963000,11.995962890625,0.5794088244438171,-0.22793439030647278,-1.7668795585632324
1733751657221939000,12.00593896484375,0.5778560042381287,-0.33790621161460876,-1.6989967823028564
1733751657231914000,12.0159140625,0.5955865383148193,-0.42497026920318604,-1.666139006614685
1733751657241890000,12.02589013671875,0.6188803315162659,-0.4440006911754608,-1.7081375122070312
1733751657251865900,12.035865966796875,0.6539352536201477,-0.42933201789855957,-1.8127304315567017
1733751657261842000,12.045842041015625,0.6626463532447815,-0.40778979659080505,-1.9222290515899658
1733751657271817000,12.05581689453125,0.6051755547523499,-0.4066784679889679,-1.99089777469635
1733751657281792800,12.065792724609375,0.5267886519432068,-0.4163406193256378,-2.0092082023620605
1733751657291769000,12.07576904296875,0.4751129150390625,-0.44645750522613525,-1.9900707006454468
1733751657301745000,12.085744873046876,0.467353492975235,-0.48891979455947876,-1.9464353322982788
1733751657311720000,12.095719970703126,0.499212384223938,-0.413734495639801,-1.9058279991149902
1733751657321696000,12.105696044921874,0.5033183693885803,-0.3390595316886902,-1.8604260683059692
1733751657331672000,12.115672119140624,0.4412078857421875,-0.21654826402664185,-1.7967219352722168
1733751657341646800,12.125646728515624,0.35473811626434326,-0.07157882302999496,-1.6851238012313843
1733751657351623200,12.135623046875,0.30226558446884155,0.03314626216888428,-1.5492465496063232
1733751657361599000,12.145598876953125,0.32072916626930237,0.0722731500864029,-1.423387050628662
1733751657371574800,12.15557470703125,0.37682783603668213,0.044176533818244934,-1.319846749305725
1733751657381549800,12.1655498046875,0.40352490544319153,-0.031916771084070206,-1.227813720703125
1733751657391526000,12.17552587890625,0.41218018531799316,-0.14021074771881104,-1.147355079650879
1733751657401502000,12.185501953125,0.4022105038166046,-0.2293510138988495,-1.0663425922393799
1733751657411476700,12.195476806640626,0.37330400943756104,-0.3265393376350403,-1.0004535913467407
1733751657421453000,12.205453125,0.3145614266395569,-0.34722986817359924,-0.9655511379241943
1733751657431428900,12.215428955078124,0.2517835199832916,-0.36189961433410645,-0.9546942114830017
1733751657441405200,12.2254052734375,0.2001602053642273,-0.3902018070220947,-0.9282016754150391
1733751657451380000,12.2353798828125,0.16290844976902008,-0.3748561441898346,-0.8926024436950684
1733751657461356000,12.24535595703125,0.12989483773708344,-0.34438565373420715,-0.8354894518852234
1733751657471331800,12.255331787109375,0.09708123654127121,-0.2991550862789154,-0.757749080657959
1733751657481307100,12.26530712890625,0.09167961031198502,-0.23135749995708466,-0.6799296140670776
1733751657491283000,12.275282958984375,0.1086287647485733,-0.1864294409751892,-0.6128302216529846
1733751657501258800,12.2852587890625,0.11991327255964279,-0.19123612344264984,-0.562446653842926
1733751657511235000,12.295235107421876,0.10079523921012878,-0.2608567476272583,-0.5391013622283936
1733751657521209900,12.3052099609375,0.06880417466163635,-0.3071839511394501,-0.5475809574127197
1733751657531186000,12.31518603515625,0.034394536167383194,-0.3128697872161865,-0.5540161728858948
1733751657541162000,12.325161865234374,-0.045491013675928116,-0.2854267656803131,-0.5438205003738403
1733751657551137000,12.335136962890624,-0.10367149114608765,-0.25708380341529846,-0.5180030465126038
1733751657561112800,12.34511279296875,-0.10889958590269089,-0.24292518198490143,-0.4662007689476013
1733751657571089200,12.355089111328125,-0.07503589242696762,-0.2301662564277649,-0.3997458219528198
1733751657581065000,12.36506494140625,-0.05733560025691986,-0.20246680080890656,-0.3178047239780426
1733751657591040000,12.3750400390625,-0.08009018003940582,-0.16350874304771423,-0.21060502529144287
1733751657601016000,12.38501611328125,-0.12601527571678162,-0.10617784410715103,-0.0820959284901619
1733751657610991900,12.394991943359376,-0.15795563161373138,-0.105664923787117,0.058875832706689835
1733751657620967000,12.404966796875,-0.1724446564912796,-0.13359574973583221,0.2068600058555603
