time,seconds_elapsed,z,y,x
1733902661625033000,0.034032958984375,2.240627885991335,1.72448716635257,0.3756936996810138
1733902661635059700,0.044059814453125,1.9957079535156488,1.7825348661735654,0.5146276116620749
1733902661645086700,0.054086669921875,1.7690356253921984,1.9037249586060643,0.2909530771151185
1733902661655113700,0.06411376953125,1.937071640151739,2.298349422597885,-0.004980820619873702
1733902661665139700,0.0741396484375,2.4971394720613955,2.6650442616567016,0.16593666786011307
1733902661675166700,0.084166748046875,2.1146634187638758,2.4926789855211973,0.37561650625895704
1733902661685193700,0.09419384765625,1.7183084777176378,2.36149853721112,0.2665634263439104
1733902661695220700,0.104220703125,1.6814269000440836,2.534639766155183,0.3012192542593926
1733902661705246700,0.114246826171875,1.6208850453197956,2.933939820742607,0.4858980319904163
1733902661715274000,0.12427392578125,1.6554712055325507,3.2411049047291276,0.35050650532394645
1733902661725300700,0.13430078125,1.6856401338249445,3.1027012271672487,0.09460282201915979
1733902661735327700,0.14432763671875,1.669967348396778,3.0639947721540928,0.09084010848477482
1733902661745353700,0.154353759765625,1.8203087165117262,3.1071862636268137,0.017554434456303714
1733902661755381000,0.164381103515625,1.9160107319444417,3.0058576404839754,0.24459541322905567
1733902661765407700,0.17440771484375,2.119139102873206,2.864488098853826,0.16293222534712404
1733902661775434800,0.184434814453125,2.1415905886560678,2.6336469606131314,0.051390616551972926
1733902661785460700,0.194460693359375,2.1259832696795464,2.629903097909689,0.48769602132309225
1733902661795488000,0.204488037109375,1.9784832624703645,2.7635236328482624,0.6195310976170003
1733902661805514800,0.2145146484375,1.8804156869500874,2.886839631393552,0.28775844579227267
1733902661815541800,0.224541748046875,1.8821885418415067,3.0903923652142287,-0.32768351934757084
1733902661825567700,0.234567626953125,1.6461135946005583,3.3636563486427065,-0.6101113812342286
1733902661835595000,0.244594970703125,1.406567171856761,3.6369659247785804,-0.6056472414322197
1733902661845621800,0.254621826171875,1.1349486175477503,3.6469776157051323,-0.7354200149014591
1733902661855648800,0.264648681640625,0.8028004834741354,3.4809003337979316,-0.6417761741075665
1733902661865674800,0.2746748046875,0.6075654961436987,3.427680784785747,-0.36794688494652505
1733902661875702000,0.284701904296875,0.40708442485332486,3.280146290785074,-0.30584172642827034
1733902661885728800,0.294728759765625,0.20078677623867988,3.1256577398627994,-0.35996114688962694
1733902661895755800,0.304755859375,0.08378945932090281,2.7919992012262345,-0.11666404810911044
1733902661905781800,0.31478173828125,-0.3365601052969694,2.193865550294518,0.29287836435558273
1733902661915808800,0.324808837890625,-0.8494920920222997,1.5626035367429256,0.4934337977901101
1733902661925835800,0.334835693359375,-0.5881862574130297,1.5435761801898478,0.9011510406542569
1733902661935862800,0.34486279296875,-0.22040888381451368,1.4787316598355769,1.2360622827656567
1733902661945888800,0.354888671875,-0.14682137729525566,1.1153951912939548,1.2057996848404406
1733902661955915800,0.364915771484375,-0.01650719042569399,1.0332073219507931,1.1341313098154961
1733902661965942800,0.37494287109375,-0.06990472635328769,1.2746224611759185,0.9852130333062261
1733902661975969800,0.3849697265625,-0.07738251488804816,1.7482786685675382,0.8271274808052926
1733902661985995800,0.394995849609375,-0.5081473827973008,1.6932734051823615,0.5055534207813441
1733902661996022800,0.405022705078125,-0.8575210846990347,1.840842970496416,0.5450324676021934
1733902662006049800,0.4150498046875,-1.059629172669351,1.7946949673056602,0.45925917752031237
1733902662016075800,0.42507568359375,-1.1542661892190575,1.5166121854186057,0.5454818188048899
1733902662026102800,0.435102783203125,-1.245544981382042,1.0700795472741127,0.7374694947771727
1733902662036129800,0.4451298828125,-1.445521171890199,0.39759062032103537,0.6340366658966988
1733902662046156800,0.45515673828125,-1.6132022357322275,0.14328385081887243,0.36056437347978354
1733902662056182800,0.465182861328125,-2.083941971155256,0.3131330524802208,-0.3872080502554774
1733902662066209800,0.475209716796875,-2.5991817964315413,0.19547639487087726,-1.0322842888217418
1733902662076236800,0.48523681640625,-2.879915969610214,0.043693011254072184,-0.5482161391396075
1733902662086263800,0.495263916015625,-3.0653111154496666,-0.04026303680539131,0.43029103985242545
1733902662096289800,0.505289794921875,-3.0234909123301503,-0.20689152285456655,0.9567351999059319
1733902662106316800,0.51531689453125,-3.057256403809786,-0.1893792470395565,1.499224412766099
1733902662116343800,0.52534375,-3.3506898995637893,-0.5494499917834997,1.6637173480913041
1733902662126370800,0.535370849609375,-3.6757933758229013,-0.7590788306474685,1.9234682083435355
1733902662136396800,0.545396728515625,-3.498710131254792,-0.6279448518276214,2.0588538532584906
1733902662146423800,0.555423828125,-3.234325035330653,-0.6015928514748812,1.859627165943384
1733902662156450800,0.565450927734375,-3.070294164559245,-0.6087263566166162,1.4600358733244239
1733902662166477600,0.5754775390625,-3.0883032839804887,-0.6186480311721563,1.3696651359170675
1733902662176503800,0.58550390625,-3.1192122169852254,-0.6263438463717699,1.591876831369847
1733902662186530800,0.59553076171875,-3.268993613129854,-0.4951373868376016,1.7304928365081547
1733902662196557800,0.605557861328125,-3.594733633726835,-0.4213263006955385,1.8715012897409498
1733902662206584600,0.61558447265625,-3.7431478331714865,-0.5311866053402423,2.2255841922469437
1733902662216610800,0.62561083984375,-3.6246459569096565,-0.851837778365612,2.4795862797141073
1733902662226637800,0.635637939453125,-3.1719618103981015,-1.2292360900074242,2.876296025547385
1733902662236664800,0.645664794921875,-2.4154971077717837,-1.1775298681676387,3.4149951984748244
1733902662246692000,0.655692138671875,-1.8572060762763023,-1.004074750968814,3.2984833269864318
1733902662256718000,0.665718017578125,-1.7068991949528454,-1.1565998928636312,2.8328029207795855
1733902662266745000,0.6757451171875,-1.5241823284119367,-0.9138444449454546,2.737964536438882
1733902662276772000,0.685772216796875,-1.3556722663998604,-0.5740139396756887,2.3266376517102123
1733902662286798300,0.69579833984375,-1.3137906884819268,-0.11646423295438289,1.879839932888746
1733902662296825000,0.7058251953125,-1.329212129497528,0.4131956012099981,1.3476114172801374
1733902662306852000,0.71585205078125,-1.7842594980090856,0.793058257138729,0.6676832802370191
1733902662316879000,0.725879150390625,-2.6030098302870988,0.9516028054535388,-0.16268237877190111
1733902662326905000,0.735905029296875,-2.853593195351958,1.0470102218538522,-1.049129113703966
1733902662336932000,0.74593212890625,-2.374818329772353,1.4239835860818624,-1.4353659808397292
1733902662346959000,0.755958984375,-2.0197415939234196,2.0870734010487793,-1.266175243087113
1733902662356986000,0.765986083984375,-1.2904302711606026,2.209861576327681,-1.4284499178409575
1733902662367012000,0.77601220703125,-0.6944044061630964,2.125151495030522,-1.6250722678765654
1733902662377039000,0.7860390625,-0.5046791952300816,1.805131605646014,-1.1256930056855081
1733902662387066000,0.796066162109375,-1.1470020434349775,1.2137941907256842,-1.360796185284853
1733902662397093000,0.806093017578125,-1.5870990955740212,0.8763584716379642,-1.728172576867044
1733902662407119000,0.816119140625,-1.7135756039768457,1.20951256788373,-2.1602342065885662
1733902662417146000,0.82614599609375,-1.3599591499388217,1.8862866248100996,-2.400497837691009
1733902662427173000,0.836173095703125,-0.9560609539061784,2.288850357368588,-2.0956021599411963
1733902662437200100,0.8462001953125,-0.9193073865264654,2.1392133381307126,-1.8507731206193565
1733902662447226000,0.85622607421875,-1.5831050575017929,1.6071096179455517,-1.9097613161608575
1733902662457253000,0.866253173828125,-1.8021277476549147,1.1916951716423034,-2.342667872273922
1733902662467280100,0.876280029296875,0.14654316314207388,-1.4105752384543417,-1.6117863775849341
1733902662477306000,0.88630615234375,0.5187842198848724,-3.1186610128432513,0.2479971479639411
1733902662487333000,0.8963330078125,0.42075752436425534,-2.279998357871175,0.7638184263899922
1733902662497360100,0.906360107421875,1.0623860701620578,-0.4735545005828142,0.7790101503029465
1733902662507387100,0.91638720703125,0.9179542183518409,0.8760153572887182,0.5793854035809636
1733902662517413000,0.9264130859375,1.0546657050430774,1.3765233312487601,-0.23566899678856132
1733902662527440100,0.936440185546875,1.668479155665636,1.874896046745777,-0.5974459609284997
1733902662537467100,0.946467041015625,1.5232346722982824,3.2661656962275503,0.3215089588984847
1733902662547494100,0.956494140625,1.0569606841124595,2.4343887091159817,2.222090212651342
1733902662557520100,0.96652001953125,0.42637700821384783,0.685773940461874,5.1628480428457255
1733902662567547100,0.976547119140625,0.26758710683584214,0.22105273467600345,6.039280164241791
1733902662577574000,0.986573974609375,0.20160159975290298,0.40960897489488124,6.127737030851841
1733902662587601200,0.99660107421875,0.33046383424848313,1.0125281065374612,5.70964255168438
1733902662597627100,1.006627197265625,0.9554323006138205,1.6538970880836248,4.086798481251299
1733902662607654100,1.016654052734375,1.9993489403665066,1.7472797206580637,3.1480922745108604
1733902662617681200,1.02668115234375,2.289884668852389,2.1573744332432745,2.424921792590618
1733902662627707100,1.03670703125,1.827521424369514,1.6314339118629693,2.3238801696956157
1733902662637734100,1.046734130859375,1.0004624056905507,0.7899000853687524,3.2183167343378063
1733902662647761200,1.05676123046875,0.03026274405568838,0.25129765081405636,3.5432860628232357
1733902662657788200,1.0667880859375,-1.0391653535723686,-0.2759194663733244,2.9875609362930056
1733902662667814100,1.076814208984375,-2.0910639319896696,-0.45151510273218154,2.2770947453841566
1733902662677841200,1.086841064453125,-3.1565684264332052,-0.2447825698316097,1.4196882269755005
1733902662687868200,1.0968681640625,-4.311690647959709,-0.20343582944273947,0.8131213864803314
1733902662697895200,1.106895263671875,-5.427924043643475,-0.09562661210894584,0.25509675083607436
1733902662707921200,1.116921142578125,-6.05188771688044,0.275310394564271,-0.2767822206825018
1733902662717948200,1.1269482421875,-6.237402105185389,0.20179507649838924,0.3315744258388877
1733902662727975200,1.13697509765625,-6.354473656383156,-0.29568799668252466,1.0047951741978525
1733902662738001200,1.147001220703125,-6.2867819299042225,0.04653846381306648,0.6299857100054621
1733902662748028200,1.157028076171875,-5.881548685875535,0.5147124404013157,0.517647324809432
1733902662758055200,1.16705517578125,-5.4543783353269095,0.7114660156011581,0.5581520614162087
1733902662768082200,1.177082275390625,-4.818352468374371,0.623717589521408,0.35933600072860716
1733902662778108200,1.187108154296875,-4.187174041453003,0.8759218337863683,0.05434796852022409
1733902662788135200,1.19713525390625,-3.3857027607560157,1.1423568479776383,-0.29781711766570806
1733902662798162200,1.207162109375,-2.204441889366507,1.3998822872653602,-0.8086477481976151
1733902662808189200,1.217189208984375,-1.2366215240836143,2.1927909068003295,-1.4920911998853086
1733902662818215200,1.227215087890625,-0.3221194920122623,3.1084084988981484,-2.13559923928678
1733902662828242200,1.2372421875,0.5465332275539636,4.102531764695048,-2.691845467081666
1733902662838269200,1.247269287109375,1.2375322091877459,4.81924912495315,-3.323679435302317
1733902662848296200,1.257296142578125,1.8289222310781479,4.78846732545942,-3.790736975081265
1733902662858322200,1.267322265625,2.6102152316212655,4.180565436968207,-3.6977205454707143
1733902662868349200,1.27734912109375,3.527307864707708,3.634012920191884,-3.4510061307936906
1733902662878376000,1.2873759765625,4.453956846168637,3.3125776110514997,-3.2384386081293224
1733902662888402200,1.297402099609375,5.399758856388926,3.0722680949807164,-2.9635791722029445
1733902662898429200,1.30742919921875,6.293540171992778,3.1056647531479595,-2.640656547114253
1733902662908456200,1.317456298828125,6.839594676119089,3.3612618547216058,-2.0928107756569982
1733902662918483000,1.32748291015625,7.297458855617046,3.88434143371284,-1.841797787003219
1733902662928509200,1.33750927734375,7.681276971173286,4.6789720547348255,-1.6318845782399176
1733902662938536200,1.3475361328125,6.088846451443433,6.06910188653171,1.6266776572465895
1733902662948563200,1.357563232421875,2.082583103892207,7.930334734106063,2.9172002828657626
1733902662958590000,1.36758984375,-1.8647125063836574,5.80643353139758,2.0142957496076823
1733902662968616000,1.377615966796875,-1.4675626155674457,1.1962848375201225,4.329327134676277
1733902662978643200,1.387643310546875,-0.3515168514102697,2.483089319398999,2.612004160864651
1733902662988670200,1.397670166015625,-2.8974697464793917,1.0738292551964521,-1.4792209046572447
1733902662998697000,1.407697021484375,0.3090565968215465,-1.5277999343872068,-0.24248452202230691
1733902663008723000,1.417722900390625,2.2089380317419764,0.29314211159199477,-0.024726737238466738
1733902663018750200,1.427750244140625,1.5883692616403102,1.6811100891798734,1.455579332306981
1733902663028777200,1.437777099609375,-0.2581774734556675,0.31489012528061866,0.15468758062571286
1733902663038803200,1.44780322265625,-2.209818906229734,-2.142814285232127,-4.584281846693158
1733902663048830000,1.457829833984375,-0.24753566793203352,-3.801411806091666,-6.757814803054928
1733902663058857200,1.467857177734375,1.7161586062073706,-4.2917806633532045,-8.48357885747552
1733902663068884200,1.47788427734375,2.028447609078884,-2.6396821491241456,-6.150730952948331
1733902663078910200,1.48791015625,2.365456042665243,-2.2718822714328764,-2.2097791587412354
1733902663088937000,1.49793701171875,4.228402123898268,-2.4065204589813947,-0.01873728756532073
1733902663098964200,1.507964111328125,5.70490383272469,-1.8049381289005277,1.2290275618232787
1733902663108991200,1.5179912109375,5.109968685573339,-1.016827265036106,1.0838485449075699
1733902663119017200,1.528017333984375,3.2672599212050435,0.5165308880001306,0.18252499723061918
1733902663129044000,1.5380439453125,1.5459318034052847,2.158221697722375,-0.84937504151389
1733902663139071200,1.5480712890625,1.8229548471063375,2.5405039820134636,0.27073987177833914
1733902663149098200,1.55809814453125,1.9371914671391248,3.056646455217898,1.5222304636918007
1733902663159124200,1.568124267578125,0.4391080411016941,3.7021883385345338,1.0208369390688836
1733902663169151000,1.57815087890625,-1.2227169173717498,3.3937782229229807,0.3460980412319302
1733902663179178200,1.58817822265625,-3.593803074878454,2.6295339723363518,0.0021326281145215035
1733902663189205200,1.598205322265625,-6.41183571202755,1.5710574768334626,0.3556603809557855
1733902663199231200,1.608231201171875,-5.692845730662346,0.6929965851917862,0.11253076596297323
1733902663209258000,1.618258056640625,-2.324142035502195,1.2176850606843828,-0.6940056891690939
1733902663219285000,1.628284912109375,-0.43246494982540606,2.127220410259068,-0.9463011919140815
1733902663229312300,1.638312255859375,-0.085066639649868,2.1688795775979757,-1.1105268546052276
1733902663239338200,1.648338134765625,-0.8722866921544075,1.855768444688618,-0.8367642009396106
1733902663249365200,1.658365234375,-1.6104466534137725,1.8650335550315678,-0.6344145592983812
1733902663259392300,1.668392333984375,-1.68009068300426,2.048726573128253,-0.40195034990049894
1733902663269419500,1.67841943359375,-1.4715934785187244,1.965393771533668,-0.4037483392331749
1733902663279445500,1.688445556640625,-1.1247639081418515,1.634661057215929,-0.8586420515529811
1733902663289472300,1.69847216796875,-1.1641478240251542,1.5705182553902268,-1.1194782958891243
1733902663299499300,1.708499267578125,-1.214905951359868,1.3507057300336658,-0.9750408180557191
1733902663309526500,1.718526611328125,-1.403135443842411,1.7683702933512626,-0.7524860082536935
1733902663319553300,1.72855322265625,-1.4436398881882428,2.0894221561320125,-0.6204289963047951
1733902663329579300,1.738579345703125,-1.2293734526515006,1.7967467852689325,-0.8249570779636501
1733902663339606300,1.748606201171875,-0.9566004676103591,1.130017444755882,-1.3091300031945108
1733902663349633500,1.758633544921875,-0.6862333746671676,0.628342911234498,-1.7686052711509168
1733902663359660300,1.768660400390625,-0.43461774394512176,0.21985651062875985,-1.9549334600567816
1733902663369686300,1.778686279296875,-0.4799895020663738,0.17803206972554325,-1.6812519818685947
1733902663379713300,1.78871337890625,-0.4983890821099281,0.8107550957404076,-1.096701596739888
1733902663389740500,1.798740478515625,-0.5774608652591705,1.4208128470912575,-0.2904724539913237
1733902663399767300,1.808767333984375,-0.45419455107450485,1.6576219538256525,-0.017419409899786114
1733902663409793300,1.818793212890625,0.11050444776713847,1.6341829183101653,-0.04265102792046964
1733902663419820300,1.8288203125,0.7692471734404563,1.2749641142204402,-0.0009189414758235216
1733902663429847600,1.83884765625,1.5187667331039905,0.8334900746397673,0.07311703946329653
1733902663439874300,1.848874267578125,1.4422890581011771,0.7121959373109042,-0.06394092257805169
1733902663449901300,1.8589013671875,1.3052420558452607,0.9440079664103687,-0.20452442839704452
1733902663459927300,1.86892724609375,1.324068336868286,1.5776358323104678,-0.40803303081505
1733902663469954600,1.87895458984375,1.448740426197648,2.046096370755136,-0.38863099573068316
1733902663479981300,1.888981201171875,1.328380354848504,1.5624167819991708,-0.15534027238078416
1733902663490008300,1.89900830078125,1.957321816498041,-0.1799772124439478,0.083432900968194
1733902663500035300,1.909035400390625,3.1416011589258908,-1.7232751602143048,0.6821572112694382
1733902663510061300,1.919061279296875,3.856672505542636,-2.737121363613009,1.336737556566298
1733902663520088300,1.92908837890625,3.765461956310272,-2.635961959557235,1.2646920187920332
1733902663530115300,1.939115234375,3.6488135989606376,-0.04431465028375387,0.19962292009107768
1733902663540142300,1.949142333984375,4.161221854072809,2.319036529056728,-1.2462490379981697
1733902663550168300,1.959168212890625,5.541403123307227,-0.23867139347493646,-0.38653570395186543
1733902663560195300,1.9691953125,4.396464442142844,-2.48286369394958,1.269871174995601
1733902663570222300,1.979222412109375,2.3427543815135956,-1.1425707829892635,0.4664964718300849
1733902663580249300,1.989249267578125,1.5637994685292242,0.1830523821055889,0.20693032049499452
1733902663590276400,1.9992763671875,0.8491127373158931,0.5421750323444604,-0.26406412034146487
1733902663600302300,2.00930224609375,0.6865607069253921,0.1084536527171731,-1.055091529239714
1733902663610329300,2.019329345703125,0.8108961116462945,-0.69712067938447,-1.6347678785912692
1733902663620356400,2.0293564453125,0.2837245871663093,-1.143354919104278,-2.0146334571294484
1733902663630383600,2.039383544921875,-0.839013952627778,-0.5531672587409615,-1.875433953014761
1733902663640410400,2.049410400390625,-1.282404201093316,-0.15270400559306144,-1.4232818675532937
1733902663650436400,2.059436279296875,-1.427130651935935,0.09944061743915081,-0.981024714770913
1733902663660463400,2.06946337890625,-1.3992086257874965,-0.261928934943676,-0.6222912099801003
1733902663670490400,2.079490478515625,-1.452352771475911,-0.5425514644414187,-0.25351722655966874
1733902663680517400,2.089517333984375,-1.7034551919788121,-0.06366729326844214,-0.011902619239687919
1733902663690544400,2.09954443359375,-2.1795500246942043,0.5824775243774056,0.664646981281042
1733902663700570400,2.1095703125,-2.247731580516696,0.9468675936251878,1.2165256615161895
1733902663710597400,2.119597412109375,-2.076272021049261,-0.248963362647593,1.607911728108674
1733902663720624400,2.129624267578125,-1.7590484843850134,-1.6733324409157038,1.7659265534609556
1733902663730651400,2.1396513671875,-0.9792243873506784,-1.9682184735655783,1.6083818298384547
1733902663740678400,2.149678466796875,-0.5079512757033109,-2.0720301456958055,1.2009376317620277
1733902663750704400,2.159704345703125,-0.2815934203565121,-1.37450965333879,0.5173156086370349
1733902663760731400,2.1697314453125,0.5646504835247993,0.8216466382414102,-0.12908186859562992
1733902663770758400,2.17975830078125,1.540450157123804,-1.5459604449778794,-2.1094220109790562
1733902663780785400,2.189785400390625,0.9724819273531436,-2.8839252052515745,-3.380516882550716
1733902663790812400,2.1998125,0.6383914270401001,-2.387922433756292,-2.848489150211215
1733902663800838400,2.20983837890625,0.41733284714519975,-1.9350144153609872,-1.7073770415976643
1733902663810865400,2.219865478515625,0.31004443881511684,-1.8083917764857411,-0.8567217510148882
1733902663820892400,2.229892333984375,0.8344827389389275,-2.206298330888152,-0.014483575643599032
1733902663830919200,2.239919189453125,1.7666472689509392,-1.671420469814539,0.32769524631798264
1733902663840946400,2.249946533203125,2.300434412178397,-1.454874398908019,0.4844020578116178
1733902663850972400,2.259972412109375,2.407504209321737,-1.0569394951939581,1.1067974588185547
1733902663860999400,2.26999951171875,2.091211231505871,-0.6606374533787369,1.577938468518853
1733902663871026200,2.280026123046875,1.4898720625311135,-0.8508326929762959,1.8701622962221502
1733902663881053400,2.290053466796875,1.1055658711969851,-0.8083297682896255,2.058395295836031
1733902663891080400,2.30008056640625,0.42559740214347835,-0.8696540055632591,2.412506547653675
1733902663901106400,2.3101064453125,-0.8955752132833004,-0.6808177793592214,2.251286350388825
1733902663911133200,2.32013330078125,-2.15044492624104,-0.24934184057116507,1.9226342417374251
1733902663921160400,2.330160400390625,-2.3254764989763497,-0.17318419130295515,1.3595833023637531
1733902663931187500,2.3401875,-2.1191338421761987,-0.07596446478366851,0.9605626492395997
1733902663941214200,2.350214111328125,-1.6831693597972393,0.13545768723785875,0.42887423185706136
1733902663951241500,2.360241455078125,-1.2754735250473022,0.35549686095714567,-0.04608808969706297
1733902663961267500,2.370267333984375,-1.300315705358982,0.6728954619273543,-0.557815961329639
1733902663971294500,2.38029443359375,-0.9218599936187267,0.6153863990277052,-1.0816185938984155
1733902663981321200,2.3903212890625,-0.9966659360170363,0.19520576123595237,-1.3599614880263804
1733902663991348200,2.40034814453125,-1.2074246556937693,-0.19595248795002698,-1.484613703611493
1733902664001375500,2.41037548828125,-1.2193792973816393,-0.31780104429125783,-1.6003005224525928
1733902664011401500,2.4204013671875,-0.8159767759114503,-0.42861236605048175,-1.8849255655899644
1733902664021428200,2.43042822265625,-0.33798867679536343,-0.7747299887657165,-1.8714689949065446
1733902664031455200,2.440455322265625,-0.027459084811806676,-1.045123092932999,-1.2725854023903607
1733902664041482500,2.450482421875,0.35553660844564433,-0.8126254196569324,-0.5625643249005079
1733902664051509500,2.460509521484375,0.5999041677355766,-0.45416240237057204,0.1386792796328664
1733902664061536300,2.470536376953125,0.4629162021905184,-0.7072843460023402,0.8931807193621992
1733902664071562200,2.480562255859375,-0.2860965769946575,-1.0373992206826805,1.6690113628461956
1733902664081589500,2.490589599609375,-0.624760376572609,-1.0225929889559746,2.588242469266057
1733902664091616500,2.500616455078125,-0.3572393207103014,-1.4776558472976087,2.934402762079239
1733902664101643300,2.510643310546875,0.17003157249093054,-1.6498320306017993,2.1728439511843023
1733902664111670500,2.52067041015625,0.4059755868285894,-0.835985252456367,1.1144766151443124
1733902664121697500,2.530697509765625,-0.40465281379222867,0.9175611273810267,1.3171280162110923
1733902664131723500,2.5407236328125,-2.3493325908601284,3.1002953350692986,3.490627070303261
1733902664141750300,2.550750244140625,-4.324877461791038,3.515908811075985,5.7253428096413606
1733902664151777300,2.56077734375,-3.3314994614034887,1.9707363016054034,2.295039567397535
1733902664161804500,2.570804443359375,-4.461681302940845,0.3385875194713473,-1.2509506398178636
1733902664171831300,2.580831298828125,-4.097811750435829,1.140164014108479,-3.906967691540718
1733902664181858300,2.5908583984375,-1.8909879343688487,1.3491484175890682,-8.237161379918456
1733902664191884300,2.60088427734375,-0.7794377280652522,0.21864742709994314,-11.457740798491239
1733902664201911600,2.61091162109375,0.9294552710533142,0.4822039632454514,-11.73547637437582
1733902664211938300,2.620938232421875,3.1483067940443754,1.3700550120174884,-8.681105170613527
1733902664221965300,2.63096533203125,4.824647184604406,0.9286506766721606,-4.489327142496407
1733902664231992600,2.64099267578125,5.375312981918454,0.1942690649077296,-1.3888254712000487
1733902664242019300,2.651019287109375,5.559036979675293,-0.4295063922807574,-0.4602275476284325
1733902664252045000,2.661045166015625,4.544520329669117,-0.6726935096144676,0.18844335442893206
1733902664262072000,2.671072021484375,3.2416046709448096,-0.576495819619298,1.6191725423134862
1733902664272099000,2.68109912109375,2.850486461508274,0.3585755377501249,3.0695243492305275
1733902664282125800,2.691125732421875,2.8436668446213007,1.4823463432013988,3.958650532504916
1733902664292153000,2.701153076171875,2.139512613338232,1.2913725204467772,4.3408565366894
1733902664302180000,2.71118017578125,1.2543483194321394,0.7116632917389273,3.599556523838639
1733902664312207000,2.72120703125,0.9215916980713605,0.47770928217470643,2.402403671312332
1733902664322233000,2.731233154296875,0.5723731867313384,0.7424331085339189,1.1766278778266162
1733902664332260000,2.741260009765625,-0.26345921325087546,1.207415887865424,-0.4833871086154133
1733902664342287000,2.751287109375,-1.0734902325004338,0.9703437462806701,-1.779544159924984
1733902664352314000,2.761314208984375,-2.0544301915973424,0.7837561757862568,-1.6490967020645737
1733902664362340900,2.7713408203125,-2.966450343725085,0.5590425805151462,-0.7338844758972525
1733902664372368100,2.7813681640625,-3.565191897422075,0.03836041805446148,0.23585830881558356
1733902664382394000,2.79139404296875,-3.374450714379549,-0.726516869738698,0.09616086511611938
1733902664392421000,2.801421142578125,-3.3210897110700603,-1.7913637770563362,-0.4763165126420557
1733902664402448000,2.81144775390625,-2.5959575736880303,-2.3681202934384347,-0.8263904717676341
1733902664412475100,2.82147509765625,-2.0721382822453975,-2.440056233358383,-1.4964583090536296
1733902664422502100,2.831502197265625,-1.8210744401872156,-1.4998995355486868,-1.410189600137621
1733902664432529000,2.84152880859375,-2.4967104329943655,-0.8889484886199236,-1.1081437588609755
1733902664442556200,2.85155615234375,-3.195465435582399,-0.7349392456471919,-0.1935918232332915
1733902664452582100,2.86158203125,-0.3443541201740503,-0.8816127389043569,0.5868178186040371
1733902664462609200,2.871609130859375,0.9177373607307672,-0.8635720553010702,1.254523237607628
1733902664472636000,2.881635986328125,3.3638094933778047,-1.0848632749080658,1.0897864835891873
1733902664482663200,2.8916630859375,5.7885021533876655,-0.9508084402054547,0.2306995378129184
1733902664492690200,2.901690185546875,7.300697691407799,0.640881490290165,-0.02625212017484009
1733902664502717000,2.911717041015625,5.56433742417097,-0.21955928124785423,-0.9876974705331026
1733902664512744000,2.921743896484375,2.713039061757922,-2.0457669926702975,-1.2186625274144112
1733902664522771200,2.931771240234375,0.23295184678435324,-2.166946563708782,-0.619821751126647
1733902664532797200,2.941797119140625,-0.034924013864994045,-3.751026603722572,-0.8591783503867685
1733902664542824000,2.951823974609375,0.43170740945637226,-2.5615210510790347,-0.3828879950992763
1733902664552851000,2.961850830078125,0.657229983022809,0.2691086173146963,1.9204424307815728
1733902664562878200,2.971878173828125,1.3186983342677354,1.9184896892786025,2.562701200774312
1733902664572905000,2.981905029296875,0.49864802530705926,1.9432120426028965,1.0994804868686943
1733902664582932000,2.991931884765625,-0.8072977948933839,0.8785679643809795,0.5099056977067142
1733902664592959000,3.001958984375,-1.0841513272464274,-0.8534685944378375,2.0932428834639487
1733902664602986000,3.011986083984375,-1.7261960160970686,-3.4881758777588603,1.611767965145409
1733902664613012000,3.022011962890625,-4.011597109794616,-5.338287611860037,0.03815720536625013
1733902664623039000,3.0320390625,-4.551958955237269,-3.363853917041421,1.0707119999587535
1733902664633066000,3.04206591796875,-1.4775520946621894,0.14660919584929943,-1.2263637494415045
1733902664643093000,3.052093017578125,1.011648401093483,3.9197652137935157,-1.7334151536956428
1733902664653120000,3.0621201171875,2.383611877080798,5.147320803368092,-1.709393642117083
1733902664663147000,3.07214697265625,3.4745740533858536,4.1332010437250135,-0.6782710174858569
1733902664673174000,3.082174072265625,4.749982696503401,2.973088758826256,0.8901919128097593
1733902664683201000,3.092200927734375,3.049107584145665,0.9419774834960698,1.853483110230416
1733902664693227000,3.10222705078125,1.3967536338508129,-0.03617138357758522,2.4305127444654704
1733902664703254000,3.11225390625,1.4083505481421947,0.46444180432260035,2.5456392990753054
1733902664713281300,3.12228125,0.325064897814393,1.5802672037273644,0.9875856807217002
1733902664723308000,3.13230810546875,-2.1544705284953114,1.7721370985388756,-0.34756256082653997
1733902664733335000,3.1423349609375,-1.9112346035838126,1.526551980152726,0.030191432385146617
1733902664743362000,3.152362060546875,-0.9958791695535182,-0.29569559546709057,0.8190101522579789
1733902664753389000,3.16238916015625,-0.37805706781148907,-1.8450573733210562,1.119801901820302
1733902664763416000,3.172416015625,0.08114449777007103,-2.2911595110937952,2.875812918205559
1733902664773442000,3.182442138671875,1.9149346271455288,-2.280253793936968,4.334657682049274
1733902664783469000,3.192468994140625,1.829640023958683,-1.7764041083335875,2.69661282761395
1733902664793496000,3.20249609375,0.9483774136662483,-0.03165127580463886,2.1532509235724806
1733902664803523000,3.212523193359375,0.9202981511294841,0.9641332012027501,1.963972506558895
1733902664813550000,3.222550048828125,0.6714554922521114,1.4213485614031554,0.7550687182232737
1733902664823576800,3.232576904296875,-0.39731647955477234,1.468669700026512,-1.2367875283002854
1733902664833604000,3.24260400390625,-0.9248644361317158,1.1952443885564803,-1.6357620041951537
1733902664843631000,3.252631103515625,-0.4877601360678672,1.0351280608803033,-1.1213593603953718
1733902664853657900,3.262657958984375,-0.5444546677142381,0.9752227504938841,-1.5145838944613932
1733902664863685000,3.27268505859375,-0.6256009190499782,1.1435445964574813,-2.419875030595064
1733902664873711000,3.282711181640625,-0.3250397633731365,2.191874084216356,-1.8699270261615513
1733902664883738000,3.292738037109375,0.13155249649286269,2.484145550453663,0.032168285416066644
1733902664893764900,3.302764892578125,-0.08763970500826836,0.8207996660232544,-0.03391659038811922
1733902664903792000,3.312792236328125,-0.726117641288042,1.2129112704113125,0.545818357282877
1733902664913819100,3.322819091796875,-0.9748451493531465,1.8581582624346016,0.10645020394027233
1733902664923846000,3.332845947265625,-0.9768161571651697,1.8708534933567047,-1.3516630307585
1733902664933873000,3.342872802734375,-1.0009884753912686,1.6295423990279436,-0.8130024362757802
1733902664943900200,3.352900146484375,-1.1511410429358482,1.638329516595602,0.28023791409432885
1733902664953927200,3.36292724609375,-0.528553918749094,1.058344101294875,0.16243892540484667
1733902664963954000,3.372953857421875,0.003060556614398956,1.273442896002531,0.7252294602766632
1733902664973981200,3.382981201171875,0.636188948559761,1.2147557292342186,0.6537921175286173
1733902664984008200,3.39300830078125,0.7655576712727546,1.0365917036920784,0.05063391643315553
1733902664994034200,3.4030341796875,0.12029343585371971,0.19858838941156862,-0.7211787235811352
1733902665004061000,3.41306103515625,-1.3191723815202712,-0.7892308078050613,-0.9350685808904469
1733902665014088200,3.423088134765625,-1.493897664785385,-0.6424462553888559,-1.4492420921094715
1733902665024115200,3.433115234375,-1.0822381871014832,-0.1630886214852333,-2.4221676715768874
1733902665034142000,3.443141845703125,-0.2331055760413408,-0.34603637417256833,-1.3666884581938386
1733902665044169000,3.4531689453125,0.5803308677375316,0.43477556485533714,0.5738832990333438
1733902665054196200,3.4631962890625,0.6344271995842456,1.407891113936901,1.5345347956001758
1733902665064223000,3.473222900390625,0.9335773194193839,1.1300772121191025,1.8120418234258888
1733902665074250000,3.48325,1.7049100669622421,0.8781909477621317,1.7892837559118866
1733902665084277200,3.49327734375,1.6050450866311787,-0.26159517294466494,1.0419270733706651
1733902665094304000,3.503303955078125,1.1161357805281877,-1.4448241295367479,-0.4247133127853274
1733902665104331000,3.5133310546875,0.16215221741795538,-1.0418553233087062,-2.6217273902386427
1733902665114358000,3.52335791015625,-0.43570261657238,0.07633563618361949,-2.296749586185813
1733902665124385000,3.533385009765625,0.4404290605723858,-0.1366851832062006,-0.41237116961721326
1733902665134411000,3.543410888671875,0.6503986756980419,-1.6937953832298516,-0.8511470196224749
1733902665144438000,3.55343798828125,-0.29773090068697927,-2.2940660461902618,-1.960816672876477
1733902665154465000,3.563465087890625,-0.5952350068807601,-1.166713875120878,-1.2505486348882318
1733902665164492000,3.573491943359375,-0.7230038931816816,0.24456863481998442,-0.7698936546504497
1733902665174519000,3.58351904296875,-0.22226269498765466,0.22801672846972942,-2.180130454930663
1733902665184546000,3.593546142578125,0.10325520729124546,2.091739054772258,-0.5762040701311081
1733902665194572800,3.60357275390625,1.5130080234467982,2.282569669663906,0.3526693824462592
1733902665204600000,3.61360009765625,0.1528980668604374,0.8458458444744348,1.8028817808926105
1733902665214627000,3.623626953125,1.1014555132687092,2.2146154928565025,-1.7547144007034599
1733902665224654000,3.633654052734375,-0.5339309356123209,3.2887542523935434,1.8754260619692504
1733902665234681000,3.64368115234375,-0.31782208707928655,-0.9322405178576707,0.8057925048969685
1733902665244708000,3.6537080078125,2.456155135244131,0.12137772395908832,2.1221298091217875
1733902665254735400,3.6637353515625,0.5540040018260478,3.0213907251805066,3.122797381995618
1733902665264762600,3.6737626953125,-1.6675673015177248,2.9144007152751086,0.4669610936671495
1733902665274789600,3.68378955078125,-3.7552760778605934,0.3609583412334323,0.030967458258941767
1733902665284815600,3.693815673828125,-3.326799320888519,-0.5311132478430867,-1.8564517507776617
1733902665294842400,3.70384228515625,-2.059945740148425,-0.051015024705231185,-1.9740037789687512
1733902665304869600,3.71386962890625,-1.497446881699562,0.32364801675379273,-0.6734064801894127
1733902665314896600,3.723896728515625,-0.5470259795069694,0.03533493275344372,-0.5723366541132331
1733902665324923400,3.73392333984375,-0.7949696437180042,-0.32521687350571155,-0.3894506050178781
1733902665334950400,3.743950439453125,-1.9687287611752748,-0.8879239678777754,-0.15839965995140373
1733902665344977700,3.753977783203125,-2.6687387322604654,-0.3979299352779984,-0.690177143856883
1733902665355004700,3.764004638671875,-2.0910008036255836,0.1569825596950948,-0.19210458035022018
1733902665365031400,3.774031494140625,-1.46268653396368,-1.3849299250662326,0.6881601049460471
1733902665375058700,3.78405859375,-0.13601941277384758,-1.8960744438529014,0.6149282069314271
1733902665385085700,3.794085693359375,-0.053334699824452395,-2.2357075268544255,0.6004814561668783
1733902665395112400,3.804112548828125,0.09568389525413512,-2.27255227964893,0.7652996779236942
1733902665405139500,3.814139404296875,0.41824411677122114,-2.579081257688999,0.40081133593320845
1733902665415166700,3.824166748046875,0.6864227597594261,-2.5620640719145533,-0.23386775605287402
1733902665425193500,3.834193359375,0.7008657111316919,-2.59058581752181,-0.49391836643666026
1733902665435219500,3.844219482421875,0.4918792618244886,-2.6045328020706773,-0.9075796854622662
1733902665445246500,3.85424658203125,-0.07068155594468116,-2.9131159361615775,-1.1900163517098874
1733902665455273700,3.864273681640625,-0.622746114140749,-3.645708618682623,-1.4719640653967856
1733902665465300500,3.874300537109375,-0.8969301350235939,-4.095115935480594,-1.039369936233759
1733902665475327500,3.884327392578125,-1.540168417572975,-2.267550671969354,-0.4590928810426965
1733902665485354800,3.894354736328125,-1.4035709126502274,-1.3572517906762658,-0.6432490231391043
1733902665495381500,3.904381591796875,-0.7852595660865307,-1.7752461704701183,-0.9038805386833846
1733902665505408500,3.914408447265625,0.11051146202981471,-3.461943119871616,-1.3927495127759872
1733902665515435500,3.924435546875,0.2523123808145523,-3.2077140917807814,-0.3636041795670986
1733902665525462500,3.934462646484375,0.9656582188129424,-3.2077129227370023,-0.8741447411112487
1733902665535489500,3.944489501953125,1.0735036765038966,-3.436752564513683,-0.5311074756894261
1733902665545516500,3.9545166015625,1.2655939360678194,-4.036588343188166,-0.5495221071716397
1733902665555543600,3.96454345703125,1.4510738375812768,-2.3827312948539854,-0.2265193295188248
1733902665565569500,3.974569580078125,1.0691291146814823,-1.3591602546460926,0.5347144872054458
1733902665575596500,3.984596435546875,0.8736118032783269,-2.2770377544999123,1.189161269250512
1733902665585623600,3.99462353515625,0.7618985642433166,-1.5238149564042687,1.5749473238788545
1733902665595650600,4.004650634765625,-1.4632301393210887,1.4664739435479044,1.1859386539421974
1733902665605677600,4.014677490234375,-2.8168250149250027,3.2752655330061913,0.8222092405602336
1733902665615704600,4.02470458984375,-4.783992518132925,3.737627023923397,0.5683907660316676
1733902665625731600,4.034731689453125,-3.47829219712615,4.22334308694303,0.6951163538247347
1733902665635758600,4.044758544921875,-4.4815299127489325,4.367090463620424,-1.556368149484694
1733902665645785600,4.05478564453125,-4.181182107561827,3.425516007967293,-4.2612700820162885
1733902665655812600,4.0648125,2.5261305887460708,3.2295763794988392,-2.2596099420979616
1733902665665839400,4.07483935546875,7.554358564221858,2.8900474875241517,0.7792123218115419
1733902665675866600,4.08486669921875,7.484106047344207,1.4354804009996354,3.7444998323023317
1733902665685893600,4.0948935546875,2.4098697694092985,0.5916447273038328,3.934178354549408
1733902665695919600,4.104919677734375,-0.5226467405319214,0.554400892189145,2.1823972308188675
1733902665705946400,4.1149462890625,-1.1899568035423755,0.4100288077421486,0.7396434047501533
1733902665715973600,4.1249736328125,-0.7814695261538028,0.02166691127642989,-0.11619652192890643
1733902665726000600,4.135000732421875,-0.20798691687583923,-0.2673221722893417,-0.42367271769121284
1733902665736027400,4.14502734375,0.10738777705132961,-0.36244521879032254,-0.5589317405518144
1733902665746054700,4.1550546875,0.10846212828457355,-0.3733995973944664,-0.6866961698733269
1733902665756081700,4.16508154296875,-0.09274550371468067,-0.49357948987111444,-0.8098861308861524
1733902665766108400,4.1751083984375,-0.19904139387607572,-0.8401201603040098,-0.7628872830197214
1733902665776135400,4.185135498046875,-0.12402151646614074,-0.8071374897651374,-0.41856954933330415
1733902665786162700,4.19516259765625,-0.04178980798125267,-0.4933940503016114,-0.16169884762726724
1733902665796188700,4.205188720703125,0.08070727539658545,-0.12308058235421776,-0.1135419157668948
1733902665806215400,4.21521533203125,0.13308277480006217,0.27830153920426964,-0.19653284512124955
1733902665816242400,4.225242431640625,0.0792588301539421,0.5947872631132602,-0.32406887251436706
1733902665826269700,4.235269775390625,-0.09060323098897934,0.6548173689231276,-0.4062866255391389
1733902665836296400,4.24529638671875,-0.30903906116485597,0.8446174717232584,-0.5370891073822975
1733902665846323500,4.255323486328125,-0.4882236619263887,1.0963614050000905,-0.46484548975266515
1733902665856350700,4.265350830078125,-0.5190642058700323,1.3221554889842868,-0.16697423074692486
1733902665866377500,4.27537744140625,-0.4059592202156782,1.4337971240878105,0.03376571067534387
1733902665876404500,4.285404541015625,-0.14640636675357818,1.3744294277094304,0.21424860761910675
1733902665886431500,4.295431396484375,0.013109656941890716,1.161579434841871,0.37448359323889013
1733902665896458800,4.305458740234375,0.09857844765186309,0.6314515447743236,0.2356862401843071
1733902665906484500,4.315484375,0.08852584019303321,0.14071955328881738,0.06395144397206604
1733902665916511500,4.325511474609375,0.05318330865502357,-0.06665697660371661,0.002949753183685243
1733902665926538500,4.33553857421875,-0.04458090000450611,-0.0383984119772911,0.029957514031417665
1733902665936565800,4.345565673828125,-0.10288754302263259,0.07946502025052904,0.06667896923981606
1733902665946592500,4.355592529296875,-0.08739186772704124,0.1456166776806116,0.08692593071572483
1733902665956619500,4.36561962890625,-0.10857026483416557,0.15538608428388834,0.08442074296176433
1733902665966646500,4.375646484375,-0.10893091484010219,0.10951119894608854,0.070240314983204
1733902665976673500,4.385673583984375,-0.08992635464072227,0.039378362925350664,0.06737560973446816
1733902665986700500,4.395700439453125,-0.28112288023531434,-0.06948591641932725,-0.15437745523061602
1733902665996726500,4.4057265625,-0.5490191991508007,-0.26756752535253764,-0.6363488883618265
1733902666006753500,4.41575341796875,0.19410802912712097,-0.27324878585934637,0.318248861123994
1733902666016780500,4.425780517578125,0.19990999340415,-0.2584434309154749,0.38644908511433745
1733902666026807600,4.4358076171875,0.18025310677587986,-0.25128449907153844,0.5386789338570088
1733902666036834600,4.44583447265625,0.13302315356731415,-0.3474637766271829,0.5577385852444917
1733902666046861600,4.455861572265625,-0.10090718286037445,-0.4618073641657829,0.2155256052849814
1733902666056888600,4.465888671875,0.07816577422022819,-0.5680832344524562,-0.07649725648611784
1733902666066915600,4.47591552734375,0.048016135150194164,-0.7882172468483447,-0.16103863015286624
1733902666076942300,4.4859423828125,-0.2592868960022926,-0.8767568233057856,-0.11874317420441656
1733902666086968600,4.495968505859375,-0.4126771302938461,-0.8375202069386839,0.44513910142686214
1733902666096995600,4.50599560546875,-0.4205237521409988,-0.5728149391494691,0.11086085998937487
1733902666107022600,4.516022705078125,-0.32330256431698795,-0.5085306830264628,-0.2772158263267949
1733902666117049300,4.52604931640625,-0.255962720015645,-0.3742212890408933,0.25184085431266573
1733902666127076600,4.53607666015625,-0.21022914284467695,-0.25930340874567626,-0.02556724318321794
1733902666137103600,4.546103515625,0.023618191474676132,0.6517692333988845,-0.6777689862478524
1733902666147130400,4.55613037109375,-0.06018997254669666,2.782818700426817,-2.820162634915113
1733902666157157600,4.56615771484375,-1.0181611439883709,2.391501169025898,-2.1160142488509415
1733902666167184600,4.5761845703125,0.0190881468296051,0.7947384653106332,-0.16205266603361815
1733902666177210600,4.586210693359375,0.23108254578113555,-0.32738881071731446,1.0425060423023997
1733902666187237400,4.5962373046875,0.824946264308691,-0.00907616364210844,0.5439635231964289
1733902666197264400,4.606264404296875,0.5608522602856159,-0.15173194569051265,0.17485793320145457
1733902666207291600,4.616291748046875,0.7019675348937511,-0.25124898936673995,-0.19130310950791463
1733902666217318700,4.626318603515625,0.586397035908699,-0.49478053622394796,-0.46814416597187514
1733902666227345400,4.636345458984375,0.8737713777542113,-0.10899565063938498,0.21297199354572222
1733902666237372700,4.64637255859375,-0.7988707428097724,-2.737339682538807,2.036921276783198
1733902666247399700,4.656399658203125,-1.4020949948787689,-4.16957584092021,2.9939862931653853
1733902666257425700,4.66642578125,-0.9888917948842048,-2.3207839572459457,0.3503381264870986
1733902666267452400,4.676452392578125,1.779698473703861,0.7815108810774981,-3.3033754829421635
1733902666277479700,4.686479736328125,-0.16669278345704078,4.6327071471661325,-5.148977338403463
1733902666287506700,4.696506591796875,-6.9498302438169715,12.002255671960114,-3.449241459208727
1733902666297533400,4.706533447265625,1.0982277833938598,4.387565388633311,5.024963420721888
1733902666307560400,4.716560546875,1.3072317683577537,1.880531276153773,1.821307079899311
1733902666317587700,4.726587646484375,-0.05733692120313644,1.3627538952238858,-1.2204270528689025
1733902666327614500,4.736614501953125,1.2614233723849058,-1.1251974772535265,0.3224017430197447
1733902666337640400,4.746640380859375,0.5451496642410755,-0.5097592019081115,1.2446921639449893
1733902666347667500,4.75666748046875,1.287928517472744,-0.23565482213273642,1.320379419222474
1733902666357694700,4.76669482421875,1.2308990547835825,0.2046370219260454,0.30796829012818633
1733902666367721500,4.776721435546875,0.6762649383604526,-0.0761263773471117,-0.4177998070698231
1733902666377748500,4.78674853515625,0.11798106725811958,-0.47450610221922396,-0.7714605386409908
1733902666387775700,4.796775634765625,-0.4469242678105831,-0.5390240209676325,-0.39003143711313604
1733902666397802500,4.806802490234375,-1.0445125598192215,-0.8044893133439123,-0.2019632178732194
1733902666407829500,4.81682958984375,-1.1463012016892433,-1.0045498211346566,-0.4022183531869203
1733902666417855500,4.82685546875,-1.1046639539211989,-1.121527848830074,-0.44908155544232575
1733902666427882500,4.836882568359375,-0.7170885316580533,-1.2279057181864976,-0.42417500465754415
1733902666437909500,4.846909423828125,-0.19493921925425528,-1.3738538197785615,-0.46813335231691594
1733902666447936500,4.8569365234375,0.14598551099300383,-1.4274340187966823,-0.41001963805500413
1733902666457963500,4.866963623046875,0.42524201283454893,-1.3730026097767054,-0.3080147230857983
1733902666467990500,4.876990478515625,0.5376221913456917,-1.3594891943395138,-0.110894871856831
1733902666478017500,4.887017578125,0.7185965981334448,-1.5914214888177811,0.2400089622216299
1733902666488043500,4.89704345703125,0.8263421025812625,-1.8169181972905992,0.37293417183980343
1733902666498070500,4.907070556640625,0.8993091391146183,-1.6325107473142444,0.187484373203665
1733902666508097500,4.91709765625,0.93129066978693,-1.4597269535057247,0.11488549412926659
1733902666518124500,4.92712451171875,0.7146142504990101,-1.5581997488260269,0.07477782141552307
1733902666528151600,4.937151611328125,0.36036943542957306,-1.7294322215393185,-0.11926381881134585
1733902666538178600,4.947178466796875,0.16442951470017433,-1.4893654281832276,-0.055788878910383206
1733902666548205600,4.95720556640625,0.1181102465957403,-1.066802863691002,0.13691355773513206
1733902666558232600,4.967232666015625,0.1649357106566429,-0.8031438900843262,0.12196951583977787
1733902666568258600,4.977258544921875,0.09285480930805205,-0.5639421891249716,0.14204452741541898
1733902666578285600,4.98728564453125,-0.3064426149308681,-0.31397812500223515,0.48469234599508343
1733902666588312600,4.9973125,-0.8797340855509043,0.2158881915196776,0.3475271972522139
1733902666598339600,5.007339599609375,-1.0615864442169665,0.5269043979763984,0.3292507321316749
1733902666608366600,5.01736669921875,-0.870023423397541,0.9660140465132891,0.13163078589346258
1733902666618393600,5.0273935546875,-0.49184828216433524,1.3324839907750488,-0.14907508363933303
1733902666628420600,5.037420654296875,-0.15347674353122712,1.5900186362825333,-0.2973426868206821
1733902666638446600,5.047446533203125,0.013038345271348952,1.7434920188128946,-0.3700419209970161
1733902666648473600,5.0574736328125,0.1582294910162687,1.7529858233451843,-0.3440651106322184
1733902666658500400,5.067500244140625,0.2494271807670593,1.6891412738136946,-0.2395866999552585
1733902666668527600,5.077527587890625,0.2002408327937126,1.6518864789135752,-0.09930418637683615
1733902666678554600,5.0875546875,0.12545125700831414,1.2174834006324409,0.11947401836276984
1733902666688581400,5.097581298828125,-0.14061258578300476,0.3540795415051281,0.19824193232776596
1733902666698608600,5.107608642578125,-0.4122901768028736,-0.10601502739340066,-0.1712556526594795
1733902666708634600,5.117634521484375,-0.44533904444575306,-0.1898376583315432,-0.4001832671627402
1733902666718661600,5.12766162109375,-0.3274444864273071,-0.14640622062310577,-0.4141131179137155
1733902666728688400,5.1376884765625,-0.2551473119795322,-0.1282034783259034,-0.41582814167067406
1733902666738715600,5.147715576171875,-0.12899579774737358,-0.0899272314235568,-0.29728447209373116
1733902666748742700,5.15774267578125,-0.11527473090887069,-0.07866817078441381,-0.2130200339385308
1733902666758769400,5.167769287109375,-0.11277122365534305,-0.037349195185303684,-0.09690490668276325
1733902666768796400,5.17779638671875,-0.15137129568457602,0.010217150370776652,0.005043324504519114
1733902666778822700,5.18782275390625,-0.16823709028959274,0.05765533950254321,0.05505264162428211
1733902666788849700,5.197849609375,-0.1854746408164501,0.05581015002727508,0.11069913922217674
1733902666798876400,5.20787646484375,-0.13474281696677207,0.05384337999895215,0.11178297066981903
1733902666808903400,5.2179033203125,-0.03750292444229126,0.06527019842043519,0.13356978199887087
1733902666818930700,5.2279306640625,0.025169512569904327,0.07527560573667287,0.11858250374998897
1733902666828957400,5.23795751953125,0.05454056848287582,0.0637276451535523,0.09171426097080111
1733902666838984400,5.247984375,0.0523760839253664,0.025942396638542413,0.04745115364461671
1733902666849010400,5.258010498046875,0.019146014496684072,-0.011413228287547827,-0.011261238896497525
1733902666859037700,5.26803759765625,-0.02073299142718315,-0.04652706563621759,-0.05743479208704084
1733902666869064400,5.278064453125,-0.028698271217942235,-0.06255977041795849,-0.06527490199501626
1733902666879091500,5.288091552734375,-0.03711597095131874,-0.038010289442539216,-0.056773172673420046
1733902666889118500,5.298118408203125,-0.05224807363152504,-0.054096331846714016,-0.0629935769916512
1733902666899145700,5.308145751953125,-0.05440145227313042,-0.02789528427198529,-0.05280183962334413
1733902666909172500,5.31817236328125,-0.0117465518951416,-0.020093524479866027,-0.03445327053110814
1733902666919198500,5.328198486328125,0.027506431084871292,-0.012894991277903318,-0.02312965218919562
1733902666929225500,5.3382255859375,0.051469490474462504,-0.0031792145580053326,-0.028139205713209228
1733902666939252700,5.348252685546875,0.0039034371793270108,-0.0032503800980746744,-0.034942805330432015
1733902666949279500,5.358279541015625,-0.07036357603669166,0.00766205906048417,-0.052107459584437306
1733902666959306500,5.368306396484375,-0.09623568391799926,0.010831629007309674,-0.06802197678002994
1733902666969333800,5.378333740234375,-0.14743044910430908,-0.01027472577691078,-0.0764418273712974
1733902666979360500,5.388360595703125,-0.14736732074022293,-0.03416062827706337,-0.06023036392258946
1733902666989386500,5.398386474609375,-0.09100187491774558,0.00015898995399475096,-0.06615050208603497
1733902666999413500,5.40841357421875,-0.059684361112117765,0.025954379337280988,-0.0800118222120218
1733902667009440800,5.418440673828125,-0.038843817657232285,0.050855742490291594,-0.09722522467831149
1733902667019467500,5.428467529296875,-0.025022797575592993,0.06476414859443902,-0.13798640199787915
1733902667029494500,5.43849462890625,-0.0635211627960205,0.07403758837431669,-0.14276090465700253
1733902667039521500,5.448521484375,-0.0856423937112093,0.07891440063044429,-0.15627979998691008
1733902667049547500,5.458547607421875,-0.11178630427122116,0.06529080281704663,-0.139450958125107
1733902667059574500,5.468574462890625,-0.11716273661255835,0.049010260754078626,-0.12913381797857582
1733902667069601500,5.4786015625,-0.11664192760884762,0.051616936121135944,-0.12457679399503394
1733902667079628500,5.488628662109375,-0.10429682529866695,0.04693725387230515,-0.09410191415916197
1733902667089655600,5.498655517578125,-0.08397007658481598,0.07660685434043407,-0.0860300687213894
1733902667099682600,5.5086826171875,-0.07968494661152363,0.08951309766471385,-0.08563725174521096
1733902667109709600,5.51870947265625,-0.06427811864316463,0.07896218529492616,-0.07162602002082857
1733902667119735600,5.528735595703125,-0.016627309674024583,0.060231327470391983,-0.06677041038293391
1733902667129762600,5.538762451171875,0.06693535515367985,0.018475275628268718,-0.05647841837739106
1733902667139789600,5.54878955078125,0.08575169930458068,-0.0254832546941936,-0.05558284407742321
1733902667149816600,5.558816650390625,0.08066051364541053,-0.04372442930564284,-0.07681119040665216
1733902667159843300,5.56884326171875,0.06841127292513847,-0.0641881022721529,-0.09451146307443269
1733902667169870600,5.57887060546875,0.03434416815042496,-0.06190452137961983,-0.09430736447023227
1733902667179896600,5.588896484375,-0.03261749048829078,-0.055256315536797045,-0.07960986294816248
1733902667189923600,5.598923583984375,-0.04633154306411743,-0.04862213821932673,-0.08236099742036312
1733902667199950300,5.608950439453125,-0.04200315847098827,-0.04478358296975493,-0.08795761185102165
1733902667209977600,5.6189775390625,-0.05225099624097347,-0.038514731833338735,-0.10120892401961609
1733902667220004600,5.629004638671875,-0.039517186874151226,-0.015152999337762593,-0.13617275843834503
1733902667230031600,5.639031494140625,-0.048620530784130096,-0.0023258125990629195,-0.1686145635661669
1733902667240058600,5.64905859375,-0.09585340660214424,0.00003638648763298988,-0.2018866637719795
1733902667250084600,5.659084716796875,-0.123129536062479,0.03816109609007835,-0.21551694705449043
1733902667260111600,5.669111572265625,-0.14510872815847395,0.04768967967480421,-0.20419132398515938
1733902667270138600,5.679138671875,-0.1597287896633148,0.0570794393107295,-0.17538389330431817
1733902667280165600,5.68916552734375,-0.1408674373269081,0.08732230962216854,-0.15503073150757699
1733902667290192600,5.699192626953125,-0.11972995675206184,0.11822364384233951,-0.12056814287556335
1733902667300219600,5.7092197265625,-0.1122153433382511,0.12739946846663952,-0.10492137780464254
1733902667310245600,5.71924560546875,-0.11890870349705218,0.11597907978594302,-0.0989150409287773
1733902667320272600,5.729272705078125,-0.06963643080592155,0.13411138719543814,-0.0671824800488539
1733902667330299600,5.739299560546875,-0.064083472853899,0.131446551900357,-0.056761989125702524
1733902667340326700,5.74932666015625,-0.1051525653451681,0.11600436035767198,-0.029340336547722105
1733902667350353700,5.759353759765625,-0.08853168541193007,0.0848458365060389,-0.03707170255132951
1733902667360380700,5.769380615234375,-0.06315408304929733,0.05607201583385467,-0.010579745738627388
1733902667370407700,5.77940771484375,-0.035461774003505704,0.021197978590428827,0.031516707905847575
1733902667380433700,5.78943359375,0.006748305216431617,0.016813333765417337,0.04418084043678827
1733902667390460700,5.799460693359375,0.05131985287070274,0.02351794597059488,0.052065017815353345
1733902667400487700,5.80948779296875,0.0780652364552021,0.01237330549135804,0.05683436480874661
1733902667410514700,5.8195146484375,0.10570026235580443,0.010255436554551123,0.06377570381266996
1733902667420541400,5.82954150390625,0.1282896953046322,-0.00735401602461934,0.04741622846170794
1733902667430568700,5.839568603515625,0.09677636666595935,-0.04147752716168761,-0.0008445427990518509
1733902667440594700,5.8495947265625,0.025977321821451186,-0.05920359185785055,-0.06944409113817382
1733902667450621700,5.85962158203125,-0.04281622841954231,-0.08172405122369528,-0.11313117954153568
1733902667460648400,5.8696484375,-0.10664426520764828,-0.09075447602793574,-0.14193145896238274
1733902667470675700,5.87967578125,-0.13427052327990532,-0.08399769524410367,-0.14918730270899833
1733902667480702700,5.88970263671875,-0.14203648110628128,-0.06041968964934349,-0.14967041005082427
1733902667490729500,5.8997294921875,-0.1351601655960083,-0.03615092531144619,-0.14298757128603756
1733902667500755500,5.90975537109375,-0.12319850964546203,-0.0036611528560519216,-0.1268059321534354
1733902667510782700,5.91978271484375,-0.10601824226379394,0.024284400298446415,-0.1350816752660088
1733902667520809700,5.929809814453125,-0.08688567177057266,0.05307151884362101,-0.12830452754758298
1733902667530836500,5.93983642578125,-0.07820669075250625,0.030754034703969955,-0.11803239558655768
1733902667540863500,5.949863525390625,-0.13832359806299208,0.004102320752292871,-0.12664285054621285
1733902667550890800,5.959890869140625,-0.18018354867100714,-0.02655482944846153,-0.14110135568063706
1733902667560917500,5.96991748046875,-0.18363924208283422,-0.03221826203763485,-0.145730842112191
1733902667570943500,5.979943603515625,-0.1757669012725353,0.002890899135917425,-0.12514913225658236
1733902667580970500,5.989970458984375,-0.1620738914847374,0.047626405180245635,-0.10006523387720807
1733902667590997800,5.999997802734375,-0.1307248134970665,0.08078881620019673,-0.07557141034547239
1733902667601024500,6.0100244140625,-0.06745031893849372,0.08205605965703726,-0.07017578011332079
1733902667611051500,6.020051513671875,-0.021524434065818786,0.08130275707170367,-0.07452665053289383
1733902667621078800,6.030078857421875,0.013920388802886008,0.08881649370267987,-0.08666282280012964
1733902667631104800,6.040104736328125,0.03104571112692356,0.09386544765532016,-0.09110645867022685
1733902667641131500,6.050131591796875,0.003266308319568634,0.10589227779656649,-0.07853366681770421
1733902667651158500,6.060158447265625,-0.03213935158252716,0.10340499102547764,-0.07461441101473756
1733902667661185800,6.070185791015625,-0.05467267042994499,0.11394859687164426,-0.047809022605000064
1733902667671212800,6.080212890625,-0.036088381469249725,0.09821239081844686,-0.01567245663460344
1733902667681239600,6.090239501953125,-0.015001754298806189,0.0812334912277758,-0.01053138568541035
1733902667691265500,6.100265625,-0.007960603615641593,0.031507921811193225,-0.017027232244424522
1733902667701292500,6.11029248046875,-0.012992168042063712,0.0003368307389318943,0.002789621585374698
1733902667711319800,6.12031982421875,-0.002817395508289337,-0.027810236337035894,0.006734358889469876
1733902667721346600,6.1303466796875,-0.006799743142724037,-0.05736453986242413,-0.001288980364613235
1733902667731373600,6.14037353515625,-0.03185761203169823,-0.0605804331690073,-0.0016427348388824612
1733902667741400800,6.15040087890625,-0.059902972298860546,-0.07593509255871177,-0.0038642011474817987
1733902667751426800,6.1604267578125,-0.06361527082026004,-0.07508534386157989,0.0012790891582611947
1733902667761453600,6.17045361328125,-0.07843933046460151,-0.06247662217915058,-0.011930667157238348
1733902667771480600,6.18048046875,-0.07490238851010798,-0.06966258816048503,-0.02474954272531904
1733902667781507800,6.1905078125,-0.06432488039433956,-0.06716901777908206,-0.03959422503258101
1733902667791534600,6.20053466796875,-0.07158873391747474,-0.04456292595639825,-0.07584011688479222
1733902667801561600,6.2105615234375,-0.08127133902013302,-0.05248261303976178,-0.10992950655655004
1733902667811587600,6.220587646484375,-0.10010171169638633,-0.049358343539386985,-0.11931830721125006
1733902667821614800,6.23061474609375,-0.11653729819059372,-0.052677551089972255,-0.1256418933427427
1733902667831641600,6.2406416015625,-0.1111222874045372,-0.07307254273444413,-0.12284891988965682
1733902667841668600,6.250668701171875,-0.11268588345944881,-0.10338701697736978,-0.1244440435939934
1733902667851695600,6.260695556640625,-0.10114566779136658,-0.11042261470258236,-0.11430409577842801
1733902667861722600,6.27072265625,-0.08471592651605606,-0.08708002529889344,-0.11367289433595723
1733902667871749600,6.28074951171875,-0.08854746750295162,-0.06277122121155261,-0.09816285258829593
1733902667881775600,6.290775634765625,-0.08813654861450194,-0.023198504757881162,-0.07272454214752651
1733902667891802600,6.300802734375,-0.07615501891970634,0.012650953388959168,-0.05628213318688795
1733902667901829600,6.31082958984375,-0.05415244594812393,0.024568331806361674,-0.026600221226457506
1733902667911856600,6.320856689453125,-0.02057575503885746,0.0481115583486855,-0.02622818217682652
1733902667921883600,6.330883544921875,-0.013875380617380141,0.053337330172955985,-0.0386805899195373
1733902667931910400,6.340910400390625,-0.011357260316610336,0.05298822447434067,-0.05605357599486597
1733902667941936600,6.3509365234375,-0.005078910699486732,0.04880947748497128,-0.08893802858996204
1733902667951963600,6.360963623046875,-0.0186567696750164,0.04916588970720768,-0.10358960861107334
1733902667961990700,6.37099072265625,-0.031183073770999905,0.033494857844710346,-0.10809950551725923
1733902667972017400,6.381017333984375,-0.03205225782096386,0.021216391029953954,-0.10914961735839024
1733902667982044700,6.391044677734375,-0.06029927814006805,0.01625248501226306,-0.1082150399220176
1733902667992071700,6.40107177734375,-0.07970657392144202,0.01930368927642703,-0.09014764184174127
1733902668002097700,6.41109765625,-0.08159808675646782,0.03217778389677405,-0.07365754868132061
1733902668012124400,6.42112451171875,-0.07930091572999953,0.024969459953159093,-0.05286880847890861
1733902668022151700,6.431151611328125,-0.05756020856499672,0.03900149243697524,-0.029477128369640556
1733902668032178700,6.4411787109375,-0.05423310996890068,0.056490095115453,-0.020338996274070813
1733902668042205700,6.451205810546875,-0.039815293037891386,0.04365136406943202,-0.018203217221237716
1733902668052232700,6.461232666015625,-0.0386731372654438,0.051528819446265695,-0.03343088009725324
1733902668062258700,6.4712587890625,-0.06484685844182968,0.05528890263214707,-0.041467270629154514
1733902668072285700,6.48128564453125,-0.07689385458827018,0.04735197215303778,-0.05162513769390061
1733902668082312700,6.491312744140625,-0.09743746092319489,0.04913169517666101,-0.045006103146634995
1733902668092339500,6.50133935546875,-0.09169745596647262,0.05795286114439368,-0.0341299317447003
1733902668102366700,6.51136669921875,-0.08226970240771769,0.05256079284250736,-0.03225714187645353
1733902668112393700,6.521393798828125,-0.05910217730998993,0.041180736172199243,-0.016523219111887737
1733902668122419700,6.531419677734375,-0.041057986575365066,0.02878200397863984,-0.02320331336373929
1733902668132446500,6.541446533203125,-0.032924949002265926,0.039463410860300065,-0.02886626646229997
1733902668142473700,6.5514736328125,-0.022712182545661926,0.04098389842584729,-0.03840421153041534
1733902668152500700,6.561500732421875,-0.04322773182988167,0.042255233535915614,-0.053891123564238655
1733902668162527500,6.571527587890625,-0.0826665927708149,0.0339860023625195,-0.057787939206534064
1733902668172554800,6.5815546875,-0.11246084253191947,0.03758388072401285,-0.06290917751067318
1733902668182580700,6.591580810546875,-0.08674071034193039,0.02693374576345086,-0.03447261226910632
1733902668192607700,6.601607666015625,-0.07093991461992263,0.0043736850395798684,-0.021357694630208424
1733902668202634500,6.611634521484375,-0.06736088708937167,-0.029279578237235544,-0.023079339924198573
1733902668212661800,6.621661865234375,-0.05038111071586609,-0.05234320456907153,-0.0239346004800871
1733902668222688800,6.631688720703125,-0.01821720921397209,-0.07252484572380781,-0.03765268077705987
1733902668232715500,6.641715576171875,0.01660392879843712,-0.07091288048252463,-0.047908400459401305
1733902668242741500,6.651741455078125,0.006951134312152862,-0.07981061881780624,-0.0522007182253059
1733902668252768000,6.66176806640625,-0.01064297456741333,-0.11256532581970095,-0.06070095427613705
1733902668262795300,6.671795166015625,-0.008742109382152558,-0.15683891344070433,-0.06912984212380834
1733902668272822000,6.681822021484375,0.013270984983444213,-0.15588015141114592,-0.06964365056457464
1733902668282849000,6.69184912109375,0.0005886135429143905,-0.1510026085026562,-0.07502069939384237
1733902668292876300,6.701876220703125,-0.0429079983562231,-0.13327376732751725,-0.09498636884349397
1733902668302902300,6.71190234375,-0.07675240029096603,-0.12039338909685611,-0.11584858527407049
1733902668312929300,6.72192919921875,-0.09304185631275176,-0.1087574579693377,-0.12537277581146916
1733902668322956000,6.7319560546875,-0.11494973673820495,-0.11139262877851724,-0.10976073499405756
1733902668332983000,6.741983154296875,-0.12711948248147964,-0.10943199623003601,-0.08616100162467918
1733902668343010300,6.75201025390625,-0.12406827821731567,-0.10018573671802877,-0.07895416638525203
1733902668353037000,6.762037109375,-0.10833879416584968,-0.07020443995222449,-0.06165781660955399
1733902668363063000,6.77206298828125,-0.09038461980223655,-0.026935353198647496,-0.028296113307971972
1733902668373090000,6.782090087890625,-0.05897475153803825,-0.00035217443853616714,-0.02813500902870437
1733902668383117300,6.792117431640625,-0.0408779538333416,-0.0004229015871882438,-0.02447133085542591
1733902668393144000,6.80214404296875,-0.03673018650412559,0.01990209356099367,-0.01657847469677217
1733902668403171000,6.812171142578125,-0.030839374899864196,0.041423751147836446,-0.031727272783452644
1733902668413197000,6.822197021484375,-0.04503974968791008,0.042376960219442844,-0.050179825123259796
1733902668423224300,6.832224365234375,-0.0727320587337017,0.04781418283730745,-0.047154759947350244
1733902668433251000,6.8422509765625,-0.11747253321409225,0.04466799376606941,-0.05803618747971486
1733902668443278000,6.852278076171875,-0.1294213296830654,0.05188786201700568,-0.060715982881910165
1733902668453305300,6.862305419921875,-0.12356442034840583,0.0220139711484313,-0.055642355712316925
1733902668463332000,6.87233203125,-0.11030629484653472,-0.02723389775380492,-0.07652152327769436
1733902668473358000,6.882358154296875,-0.11939911736249922,-0.07833148617595434,-0.060682592068961816
1733902668483385000,6.892385009765625,-0.09812661223113536,-0.0801883660890162,-0.048177728053228924
1733902668493412000,6.902412109375,-0.085751114782691,-0.014370178396999835,-0.019830622060247695
1733902668503439000,6.912439208984375,-0.07071545821428299,0.07978256176710129,0.015154877342662075
1733902668513466000,6.922466064453125,-0.01050093574821949,0.16555778807774185,0.04229775750339031
1733902668523493000,6.9324931640625,0.04255436261296272,0.2282942302368581,0.0514526261046296
1733902668533519000,6.94251904296875,0.07546762117743491,0.22933877085372803,0.05074187488623429
1733902668543546000,6.952546142578125,0.05227496163845062,0.19463906726390123,0.019066135927196592
1733902668553573000,6.962572998046875,0.027404724276065825,0.19767127456665037,-0.02471870234577218
1733902668563600100,6.97260009765625,-0.019178747722506523,0.1680249088436365,-0.07646918116910383
1733902668573627100,6.982627197265625,-0.06624971097707748,0.12317322907373308,-0.11077523666569031
1733902668583654100,6.992654052734375,-0.09242986189424991,0.07804740853756666,-0.1281301664945204
1733902668593680100,7.00268017578125,-0.1172919159501791,0.0036133681915700433,-0.12613755877204239
1733902668603707100,7.01270703125,-0.1367898126244545,-0.048537236414849756,-0.12722047690423205
1733902668613734100,7.022734130859375,-0.14515607443153858,-0.05145005512163043,-0.11281572038419543
1733902668623761200,7.03276123046875,-0.13544891940951345,-0.04883855744898319,-0.08806273445961997
1733902668633788200,7.0427880859375,-0.11638882963061332,-0.009665800098329782,-0.05248733031407464
1733902668643815200,7.052815185546875,-0.08238251513242721,0.022877602240443228,-0.018833473382215013
1733902668653841000,7.0628408203125,-0.035680385190248486,0.04134425617083907,0.007934427994769067
1733902668663868200,7.0728681640625,0.0014133739292621612,0.02812164037376642,0.020013664176687596
1733902668673895200,7.082895263671875,0.017466683107614515,-0.02820332730785012,0.008941066020354629
1733902668683922200,7.092922119140625,0.0014841010779142378,-0.09572510404735803,-0.027905668668681754
1733902668693949200,7.10294921875,-0.04016717521548271,-0.1645731609545648,-0.08253830848233774
1733902668703976200,7.11297607421875,-0.11119301455318926,-0.19974311240464449,-0.10393217497104779
1733902668714002200,7.123002197265625,-0.14991466713547705,-0.22334143013507127,-0.10853927604085765
1733902668724029200,7.133029296875,-0.1832271541506052,-0.20841770950853825,-0.08313864899566396
1733902668734056200,7.14305615234375,-0.1555512117177248,-0.20092296983897684,-0.06560979650518857
1733902668744083200,7.153083251953125,-0.04768880289196968,-0.20904694732278584,-0.04366523733115755
1733902668754110200,7.163110107421875,0.048915129816532135,-0.1972885588593781,-0.06580817775465547
1733902668764137000,7.173136962890625,0.0755424399793148,-0.19998232798799873,-0.11673999028899706
1733902668774163000,7.183162841796875,0.08031447668671607,-0.1236189270146191,-0.14081273886444978
1733902668784190200,7.193190185546875,0.08179390158951282,-0.052127369861304756,-0.15478285769373176
1733902668794217200,7.20321728515625,0.055178281864523886,0.028149551293998955,-0.15306022601905278
1733902668804244000,7.213243896484375,0.04672667986154556,0.09162424459978938,-0.15930857322355732
1733902668814271200,7.223271240234375,0.02694178293943405,0.16806129533126948,-0.17261724160257727
1733902668824298200,7.23329833984375,0.04563245488405227,0.2275144780360162,-0.2371491523437202
1733902668834324200,7.24332421875,0.08094809841513634,0.2588024734862149,-0.27291769074145705
1733902668844351000,7.25335107421875,0.08694529300332068,0.3173027393803,-0.28301554384781047
1733902668854378200,7.263378173828125,0.07941782010793685,0.3459869820728898,-0.233532624080684
1733902668864405200,7.2734052734375,0.07210077509284019,0.3639708209224045,-0.16792203299105166
1733902668874432000,7.283431884765625,0.08324643848538399,0.37114670390114185,-0.08950329778990708
1733902668884458000,7.2934580078125,0.08465162910819053,0.36044293905720115,-0.01866472008603159
1733902668894485200,7.3034853515625,0.05623568196296692,0.32218247424587604,0.0345340007672552
1733902668904512300,7.31351220703125,0.01613280415534973,0.24784181127175686,0.019930009047803468
1733902668914539000,7.3235390625,-0.0621358459174633,0.16326237061694263,-0.010093683821312151
1733902668924566000,7.33356591796875,-0.19721885462403296,0.11206482895165681,-0.031129781814338637
1733902668934593300,7.34359326171875,-0.33190848009884355,0.024150983177125454,-0.023458635265100745
1733902668944619300,7.353619384765625,-0.40148821228146553,-0.06534647852703929,-0.006348517360060941
1733902668954646000,7.36364599609375,-0.3704547761142254,-0.16214301119819283,-0.050110011290060354
1733902668964673000,7.373673095703125,-0.30730010854303835,-0.23016703837141395,-0.09845955224623903
1733902668974700300,7.3837001953125,-0.2549228555738926,-0.234289525128901,-0.13433847394958137
1733902668984727000,7.39372705078125,-0.19131635258197782,-0.1765675501309335,-0.1899757333616726
1733902668994754000,7.403754150390625,-0.11109423035383224,-0.07499401231631636,-0.19343031252864748
1733902669004780000,7.413780029296875,-0.03839139771461487,0.026821371430158614,-0.19371281926445663
1733902669014807300,7.423807373046875,0.03899345526099205,0.16075170297026634,-0.20011976369731127
1733902669024834000,7.433833984375,0.0627285511136055,0.2822026382960379,-0.21020504958303643
1733902669034861000,7.443861083984375,0.05024316354990005,0.37299350081160665,-0.21589188131410628
1733902669044888000,7.45388818359375,0.024938041901588437,0.4378846367865801,-0.17854272266142068
1733902669054915000,7.4639150390625,-0.013890578186511992,0.4962152452021837,-0.10632597477240488
1733902669064941000,7.473941162109375,0.029947394496202467,0.497860528191179,-0.055145183312520385
1733902669074968000,7.483968017578125,0.04687690198719501,0.46274026110172267,0.0028880861243233084
1733902669084995000,7.4939951171875,0.03205810303986072,0.3827525321513414,0.04057341792881489
1733902669095022000,7.50402197265625,0.009078209468722342,0.273463889914751,0.023945176673028618
1733902669105049000,7.514049072265625,-0.01895838297009468,0.15961787663474677,-0.017197455978486684
1733902669115076000,7.524076171875,-0.041483518511056895,0.04737038459256291,-0.06693957467107102
1733902669125102000,7.53410205078125,-0.05784194811582565,-0.03486570780649781,-0.09163931430475786
1733902669135129000,7.544129150390625,-0.04007657432258129,-0.07846738751530646,-0.13507354675848035
1733902669145156000,7.554156005859375,-0.04987433023750782,-0.12655512659698723,-0.1727908811364323
1733902669155183000,7.56418310546875,-0.11131634867191315,-0.12413009140715002,-0.13155088905766604
1733902669165210000,7.574210205078125,-0.16666238831877708,-0.11033756676763296,-0.07405527016147971
1733902669175236400,7.584236328125,-0.16853578097522257,-0.10108151651397347,-0.0017617489755153656
1733902669185263000,7.59426318359375,-0.14407295536994932,-0.058766369484364984,0.0802603170803748
1733902669195290000,7.6042900390625,-0.0688543405175209,-0.012134089908003807,0.1369791794504039
1733902669205317000,7.614317138671875,0.04263853376507759,0.03266410610899329,0.12237258021533488
1733902669215344000,7.62434423828125,0.1033405474871397,0.09195786046832799,0.06748403854500502
1733902669225371100,7.63437109375,0.1369990714609623,0.12314604880586266,-0.02335179562345147
1733902669235397000,7.644397216796875,0.05608721340298652,0.14712868967875836,-0.09669961163531988
1733902669245424000,7.654424072265625,0.02391279050707817,0.16944295894801617,-0.1917724257864058
1733902669255451600,7.66445166015625,-0.00392915614247322,0.16740838438048958,-0.26189550759810953
1733902669265478700,7.674478759765625,-0.06348375339508057,0.18230419408679008,-0.2730812838053331
1733902669275505700,7.684505615234375,-0.040914194190502164,0.15585282501280306,-0.34933249310851094
1733902669285532700,7.69453271484375,-0.07213876901566982,0.08608283095508813,-0.38043377034757286
1733902669295558700,7.70455859375,-0.1728963142722845,0.0395892291970551,-0.3097787005510181
1733902669305585700,7.714585693359375,-0.23133038306236267,0.03201630972474813,-0.1879737641558051
1733902669315612700,7.72461279296875,-0.24387363829314707,0.06017857436984777,-0.016794263738766312
1733902669325639700,7.7346396484375,-0.20190321304798126,0.16144932984560728,0.05883216472957283
1733902669335666700,7.744666748046875,-0.14281857139468193,0.2757891179919243,0.02492664372473955
1733902669345692700,7.754692626953125,-0.12584990093708037,0.35469387401118874,0.006261544612795114
1733902669355719700,7.7647197265625,-0.006916062998771667,0.3928767435416579,0.11373013181537389
1733902669365746700,7.77474658203125,0.07515314840078353,0.41085926721692084,0.19075696513354778
1733902669375773700,7.784773681640625,0.038133039039373394,0.37700916619375346,0.1786142535276711
1733902669385800700,7.79480078125,-0.02701192556619644,0.2751277314737439,0.1113978164102882
1733902669395827500,7.804827392578125,-0.08625088099837303,0.11889423658028245,-0.0301501505266875
1733902669405853400,7.814853515625,-0.061302902224659915,-0.0548455427788198,-0.11239289186224341
1733902669415880700,7.824880615234375,-0.03136602912247181,-0.20822664391584694,-0.1147766451936215
1733902669425907700,7.83490771484375,-0.049148938572406764,-0.36187494462169706,-0.21330482396297157
1733902669435934500,7.8449345703125,0.006347323200106621,-0.48183505686782296,-0.3777018976982683
1733902669445961700,7.854961669921875,0.015777414846420288,-0.5959107141852379,-0.42270255748480556
1733902669455988700,7.86498876953125,-0.13087445110082627,-0.596323532769829,-0.30101576757654547
1733902669466014700,7.8750146484375,-0.3967360493183136,-0.4741705135893076,-0.045445261748880146
1733902669476041500,7.88504150390625,-0.6441887151420116,-0.2566970987048,0.16968597392365337
1733902669486068700,7.89506884765625,-0.6928349648892879,-0.08686499430872499,0.30436938885338605
1733902669496095700,7.905095703125,-0.5368377629697323,0.011378156974166631,0.30133411281071604
1733902669506122500,7.91512255859375,-0.3161567842155695,0.024804697845503685,0.1855711599934846
1733902669516148500,7.9251484375,-0.12539923456013202,0.0021400077033787964,0.0299388458635658
1733902669526175700,7.93517578125,-0.1254781450152397,-0.05314546086266637,-0.10693711067438125
1733902669536202800,7.94520263671875,-0.22877368431687353,-0.06301818170994519,-0.20272855795621872
1733902669546229500,7.9552294921875,-0.2838783164232969,-0.013438815831020474,-0.30517975538820025
1733902669556256500,7.965256591796875,-0.19633973370194435,0.04299794166199863,-0.3771276049416512
1733902669566283800,7.97528369140625,-0.022779987084865568,0.09639788874238729,-0.40927755098342894
1733902669576309800,7.985309814453125,0.12103694769740105,0.10128858339339494,-0.41198549476787444
1733902669586336500,7.99533642578125,0.20730770244002342,0.05340747279971838,-0.38872283873260016
1733902669596363500,8.005363525390624,0.26051088483929635,0.022604045996069907,-0.30372451507858933
1733902669606390800,8.015390869140624,0.23247487692236898,0.002101940715312958,-0.12847725376598537
1733902669616417500,8.02541748046875,0.16499416284561155,-0.012065920042619109,0.04429156166911125
1733902669626444500,8.035444580078124,0.09676701431572436,-0.027622239484265444,0.11838314525298774
1733902669636470500,8.045470458984376,-0.0004991816937923431,-0.06575111380517483,0.2426142128165811
1733902669646497800,8.055497802734376,-0.11680851634740828,-0.07170607668682932,0.3867910669524222
1733902669656524500,8.065524658203126,-0.16508301017284394,-0.12347352719455956,0.5133513081159442
1733902669666551600,8.075551513671876,-0.15625906772613524,-0.22955007551684975,0.5778165468290448
1733902669676578600,8.08557861328125,-0.15417290910184384,-0.31520328288301824,0.5836984444744885
1733902669686604800,8.095604736328125,-0.05348375290632248,-0.38406303022801874,0.4499471958283335
1733902669696631600,8.105631591796875,0.15934651234745978,-0.36460999560877677,0.296994695366919
1733902669706658600,8.115658447265625,0.20807576420307158,-0.2952865032095462,0.24826770853362976
1733902669716685600,8.125685546875,0.12188099730610846,-0.20006569542251526,0.2566781748086214
1733902669726712600,8.135712646484375,-0.05631576146185398,-0.09697751526124775,0.3202734988193959
1733902669736739600,8.145739501953125,-0.2859621369600296,-0.0034837504625320433,0.3544005170878023
1733902669746765600,8.155765625,-0.44149873563051223,0.04834916649684309,0.33020569476895034
1733902669756792600,8.16579248046875,-0.4768324993401766,0.06840184750966727,0.2644980547793209
1733902669766819800,8.17581982421875,-0.4260369626045227,0.05926781620047986,0.14511004333272576
1733902669776846600,8.1858466796875,-0.38192660272121426,0.023903657352551816,0.06656703329794109
1733902669786873600,8.19587353515625,-0.36094460496902464,0.02026230517551303,-0.030873131038993595
1733902669796900600,8.205900634765625,-0.34549686046838757,0.009745806531980632,-0.15547800035104153
1733902669806926800,8.2159267578125,-0.316426248806715,-0.02501118020303547,-0.2205675815075636
1733902669816953600,8.22595361328125,-0.2878483890980482,-0.07509221199378371,-0.2777954893782735
1733902669826980600,8.235980712890624,-0.16412907044887542,-0.10579093631394207,-0.2841922046780586
1733902669837007600,8.246007568359374,0.03272387347221374,-0.13359919988960026,-0.2764042542155832
1733902669847034600,8.25603466796875,0.2080874546408653,-0.14013064748495815,-0.28007782816179094
1733902669857060600,8.266060546875,0.3289706730812788,-0.08688413740061222,-0.3081781334865838
1733902669867087600,8.276087646484376,0.41451194450557227,0.0001822246991097927,-0.3382194168113172
1733902669877114600,8.286114501953126,0.42066053026318545,0.11391542525440454,-0.3121347621578723
1733902669887141600,8.2961416015625,0.390869787633419,0.24744937788806853,-0.2651850141301751
1733902669897168600,8.306168701171876,0.3313607830882072,0.36938846205696463,-0.22464805575422941
1733902669907195600,8.316195556640626,0.22261399264335632,0.4481238528586924,-0.17227299474216998
1733902669917221600,8.3262216796875,0.147878192871809,0.47375937550514935,-0.1438479875076562
1733902669927248600,8.33624853515625,0.08143149801790714,0.47651525008454915,-0.15660616413075476
1733902669937275600,8.346275634765625,0.0038578444719314575,0.49120494275949894,-0.13411423673965037
1733902669947302700,8.356302734375,-0.12979776178002356,0.4958185740347951,-0.1372562610924244
1733902669957329400,8.366329345703125,-0.2731424028754234,0.4495030322574079,-0.16741013794615864
1733902669967356700,8.376356689453125,-0.36269933968186374,0.3339415202964097,-0.2156882119681686
1733902669977382700,8.386382568359375,-0.39221886415481566,0.19285232997760177,-0.26278434619661417
1733902669987409700,8.39640966796875,-0.37057694118916984,0.05752089946791529,-0.32000878346860406
1733902669997436400,8.4064365234375,-0.3319090646207332,-0.023622721519321203,-0.35314251638334243
1733902670007463700,8.416463623046875,-0.28791268650591373,-0.07783946487531065,-0.367638403519243
1733902670017490700,8.42649072265625,-0.2109557035535574,-0.0949715092010796,-0.3719551342071965
1733902670027516700,8.4365166015625,-0.13369067756533623,-0.12346643986664711,-0.3433571084933355
1733902670037543400,8.44654345703125,-0.09400047221183776,-0.17535883192829788,-0.28313195503540334
1733902670047570700,8.45657080078125,-0.008566168293356895,-0.20798216763548552,-0.21490221268963067
1733902670057597700,8.46659765625,0.10768179156184196,-0.19447700856998562,-0.14976024375874547
1733902670067624400,8.47662451171875,0.29592005187273024,-0.18566884821429847,-0.11258220388926565
1733902670077651700,8.486651611328124,0.3753957396477461,-0.1879305095359683,-0.07701642152201384
1733902670087677700,8.496677734375,0.313384396892786,-0.1967181385602802,-0.07791041121967136
1733902670097704700,8.50670458984375,0.21884382645487785,-0.19393566823489963,-0.105346261286363
1733902670107731500,8.5167314453125,0.12059037297368048,-0.15252784530855715,-0.09649031626619398
1733902670117758500,8.526758544921876,0.05083411518037319,-0.09824716987088322,-0.018515826834365725
1733902670127785700,8.53678564453125,0.05540215374827385,-0.07454166543893516,0.08193721905034035
1733902670137811700,8.546811767578125,0.06004091946482658,-0.08030717016309499,0.14368132570385933
1733902670147838700,8.556838623046875,0.0647282004982233,-0.12250826235897838,0.17898736115638167
1733902670157865500,8.566865478515625,0.07272153733968734,-0.16298260382749138,0.21721286425217984
1733902670167892700,8.576892822265625,0.10892682318687438,-0.20368870822526514,0.2388396992465481
1733902670177919700,8.586919677734375,0.19033961650431155,-0.20302206101007758,0.2365902398193255
1733902670187946500,8.596946533203125,0.23244097465276717,-0.1585742858659476,0.12893369229659438
1733902670197972500,8.606972412109375,0.19110826278924942,-0.10279263128079473,-0.01362323248721659
1733902670207999700,8.616999755859375,0.05232406147718429,-0.08655548996813595,-0.08055909909754991
1733902670218026800,8.62702685546875,-0.10443769507408142,-0.12054624157100916,-0.0664395709933713
1733902670228053500,8.637053466796875,-0.18983751220107078,-0.16193272944837808,-0.06250657892599701
1733902670238080800,8.647080810546875,-0.28231705845594407,-0.2031025789003819,-0.056835364889167246
1733902670248107800,8.657107666015625,-0.34965748727917667,-0.170933855092898,-0.03621558804549277
1733902670258133200,8.66713330078125,-0.38010523251295086,-0.11430661652907728,-0.04087185288611799
1733902670268160000,8.677159912109374,-0.3400701592445373,-0.05878690081574022,-0.05718823344744742
1733902670278187000,8.68718701171875,-0.2442740357875824,-0.060267933153733605,-0.13049370815493166
1733902670288214300,8.69721435546875,-0.30430794098973274,-0.08979454495459795,-0.1271591569047421
1733902670298241000,8.707240966796874,-0.38060441420674324,-0.1482655847541988,-0.048714931069314474
1733902670308267000,8.71726708984375,-0.39006373194754124,-0.13312990187741816,0.06189389038775116
1733902670318294000,8.7272939453125,-0.32132571128606796,-0.030417715421691534,0.07951970957983284
1733902670328321300,8.7373212890625,-0.12867547975182533,0.04844239773824811,-0.02102247589305043
1733902670338348000,8.74734814453125,0.08247954576611519,0.025978344734758137,-0.1960167122926563
1733902670348375000,8.757375,0.20514789405763148,-0.0408523079354316,-0.3405868765950203
1733902670358402000,8.767402099609376,0.13747662584483622,-0.08778283980600535,-0.4101791759982705
1733902670368428300,8.77742822265625,-0.07710311342477798,-0.09260222278647125,-0.38470874425303186
1733902670378455000,8.787455078125,-0.30692075383663175,-0.08533975750282406,-0.2502775870513171
1733902670388482000,8.79748193359375,-0.3922340617239475,-0.08561360600814223,-0.08776946886777877
1733902670398509000,8.807509033203125,-0.09406652318537234,-0.04636025770194828,0.0069340370468795294
1733902670408536300,8.817536376953125,0.23147066831588745,-0.005037190449610352,-0.03674830668270588
1733902670418563000,8.82756298828125,0.2662204946577549,0.013382190272957086,-0.14026439339984206
1733902670428589000,8.837589111328125,0.10979425367116928,0.005608268335834145,-0.21275340062528847
1733902670438616000,8.847615966796875,-0.19139701660275457,-0.030893589305132627,-0.2065285712936893
1733902670448643300,8.857643310546875,-0.4284574677497148,-0.07002214218787849,-0.1482550268275663
1733902670458670000,8.867670166015625,-0.2939735939800739,-0.08412935879975557,-0.08314078615382313
1733902670468697000,8.877697021484375,0.028141221857070922,-0.05501154699549079,-0.0401488723738119
1733902670478723000,8.88772314453125,0.22693360940814017,-0.03608319383747875,-0.014263028228096664
1733902670488750300,8.897750244140624,0.19883681121468544,0.022850933429226276,-0.05160670698806643
1733902670498777000,8.907777099609374,-0.01191430967748165,0.09933401525951921,-0.12129768099281936
1733902670508804000,8.91780419921875,-0.3727706518411636,0.12187054897733032,-0.11482161684650927
1733902670518831000,8.9278310546875,-0.5620540372908115,0.12283764044381677,-0.031495500721037385
1733902670528858000,8.937858154296874,-0.5051999311685562,0.10276282066442072,0.04470748552624136
1733902670538884000,8.947884033203126,-0.3718348322957754,0.0836900905996561,0.1193306917687878
1733902670548911000,8.9579111328125,-0.24972119527757167,0.06982391620203852,0.11738255337569863
1733902670558938000,8.967938232421876,-0.06243512112498283,0.03160992088094353,0.007596154217422008
1733902670568965000,8.977965087890626,-0.06744564276337624,0.015015344432741403,-0.12169979552030563
1733902670578992000,8.9879921875,-0.19722353079915045,0.016127981849759818,-0.18635083912909028
1733902670589018000,8.99801806640625,-0.24571838937699794,0.09012684564888476,-0.1635583578888327
1733902670599045000,9.008045166015625,-0.2653542332172394,0.1827140900619328,-0.11838044183924794
1733902670609072000,9.018072021484375,-0.13128595451116562,0.2274919739432633,-0.034588352169841526
1733902670619099100,9.02809912109375,-0.009498480707406998,0.20749679527133702,-0.012081409872695802
1733902670629126100,9.038126220703125,0.025662849044799804,0.2390671147942543,0.04098404455631971
1733902670639153200,9.048153076171875,0.12905191184878348,0.23704642262160777,0.054277168306335805
1733902670649179100,9.05817919921875,0.2311409979701042,0.20775310811996459,0.05738434054143726
1733902670659206100,9.0682060546875,0.1958931589782238,0.19687939353659747,0.05814261156283319
1733902670669233200,9.078233154296875,0.04765840775370597,0.225830762732774,0.0702369539823383
1733902670679260000,9.088260009765625,-0.05312018029093742,0.2641002876333892,0.07023074343726038
1733902670689287200,9.098287109375,0.042459670066833495,0.27387641623839737,0.06526720274575054
1733902670699313200,9.108313232421875,0.09909808761179446,0.279041251655668,0.008564487792924047
1733902670709340200,9.118340087890624,0.09539514144062995,0.2513829910099506,-0.06206314600743353
1733902670719367000,9.128366943359374,0.02708206819295883,0.23746333285942672,-0.08912365995571017
1733902670729394200,9.138394287109374,-0.11253741489946842,0.16762041969597338,-0.01322451549321413
1733902670739421200,9.148421142578124,-0.16684300558269022,0.11396613252833485,0.1283964436147362
1733902670749448000,9.158447998046874,-0.06325637437999249,0.08786109267398715,0.1953619016457349
1733902670759474000,9.168473876953126,0.06624269671440124,0.027600831370055673,0.1970272775746882
1733902670769501200,9.178501220703126,0.17082009252011776,0.05332783169224858,0.1977086839675903
1733902670779528200,9.188528076171876,0.09682488198280334,0.07963628516420722,0.10575842228382826
1733902670789555200,9.19855517578125,-0.12639525986015795,0.08695259952694177,0.0458682364013046
1733902670799582200,9.208582275390626,-0.27147183931469915,0.09848974645510315,0.03655358782820403
1733902670809609200,9.218609130859376,-0.344599034845829,0.11790624845623969,0.050786549711599946
1733902670819635200,9.22863525390625,-0.438774279102683,0.1554614876076579,0.11147943027913569
1733902670829662200,9.238662109375,-0.325111659565568,0.18876959070861338,0.16842428342476487
1733902670839689000,9.24868896484375,-0.1293646310597658,0.13641235761418938,0.2469859981600195
1733902670849716200,9.25871630859375,-0.022326982620358465,-0.05767389807254076,0.3877701411176473
1733902670859743200,9.2687431640625,0.08475567400455475,-0.2949341095753014,0.40195911772884424
1733902670869769200,9.278769287109375,0.04568623089790344,-0.5112140768915414,0.25194340137168764
1733902670879796000,9.2887958984375,-0.3518739942848682,-0.6440104359656572,0.11594115892834961
1733902670889823200,9.2988232421875,-0.7894248690724373,-0.6553953149415552,0.09850772050321102
1733902670899850200,9.308850341796875,-0.9040589639902115,-0.6615630437910557,0.1467541572779417
1733902670909877000,9.318876953125,-0.548735121512413,-0.6421732836663723,0.11924334227889775
1733902670919904300,9.328904296875,0.038676644396781916,-0.5743843804232776,0.10317490859664975
1733902670929930200,9.33893017578125,0.5503653530627489,-0.5472402067795396,0.07285378541722894
1733902670939957200,9.348957275390624,0.7053145072340965,-0.5179610669337212,-0.032558819103613496
1733902670949984000,9.35898388671875,0.3955231663972139,-0.46966509192883965,-0.14231968196183442
1733902670960011300,9.36901123046875,-0.12227847219109535,-0.3723161860719323,-0.1656248619645834
1733902670970038300,9.379038330078124,-0.5229723192244767,-0.22150442396625875,-0.056660337115824216
1733902670980065000,9.38906494140625,-0.6002841069638729,-0.04115618625283241,0.02241970240511
1733902670990091000,9.399091064453126,-0.4162129032045603,0.1404467276968062,0.09489150276742875
1733902671000118000,9.409117919921876,0.08189677744209765,0.2179673358812928,0.12159874629862606
1733902671010145300,9.419145263671876,0.5937924068570136,0.1722062861815095,0.07753339460082352
1733902671020172000,9.429172119140626,0.779891317051649,-0.013100596852600574,-0.07062960656173527
1733902671030199000,9.439198974609376,0.5336369211018085,-0.2273018581986427,-0.09536021625772118
1733902671040225000,9.44922509765625,0.16014906090199946,-0.2983931639879942,-0.11679185747355222
1733902671050252300,9.459252197265625,-0.14809446597099304,-0.19963760620355606,-0.15452822534553706
1733902671060279000,9.469279052734375,-0.42071313723325726,0.021021891371160745,-0.15525931609906254
1733902671070306000,9.47930615234375,-0.48829029742181296,0.24447160418629646,-0.14691336642764508
1733902671080333300,9.489333251953125,-0.18189853589534757,0.31471929875835775,-0.15300554582290352
1733902671090360000,9.499360107421875,0.260854583710432,0.31629385459870096,-0.2030229377929121
1733902671100386000,9.509385986328125,0.5040595289617776,0.21779753227233886,-0.2384454392319545
1733902671110413000,9.5194130859375,0.36691374250650405,-0.00003463292196393013,-0.18956041229274123
1733902671120440300,9.5294404296875,0.07636369323432445,-0.21527999649345875,-0.17967033845186234
1733902671130467000,9.539467041015625,-0.3196984023451805,-0.22145985417217015,-0.19975929635446518
1733902671140494000,9.549494140625,-0.7039280213117599,-0.015864216347038745,-0.22105006779488176
1733902671150520000,9.55952001953125,-0.8014122439861298,0.29354397039115426,-0.23262393000423906
1733902671160547000,9.569547119140625,-0.317580679538846,0.5600269153773785,-0.38746702998522664
1733902671170574000,9.579573974609374,0.3789046245515346,0.6937427273839711,-0.574925501562655
1733902671180601000,9.58960107421875,0.7498737799286842,0.6417404452070593,-0.7701598313059658
1733902671190628000,9.599628173828124,0.5896107372581958,0.5248674853213131,-0.8627547475688159
1733902671200655000,9.609655029296874,0.10109422986507414,0.367436012814939,-0.8193261594045906
1733902671210681000,9.61968115234375,-0.38560441445112226,0.22351415635347366,-0.7581622272592038
1733902671220708000,9.6297080078125,-0.7401368142902851,0.20473975164815783,-0.5705065891418606
1733902671230735000,9.639735107421876,-0.8870119675993919,0.31064854218810795,-0.3003902926219627
1733902671240762000,9.64976220703125,-0.732954793831706,0.4341415047354996,-0.09118406308423727
1733902671250789600,9.65978955078125,-0.19351707749664782,0.47119405506178735,0.0721062184529379
1733902671260815600,9.669815673828126,0.490531938868761,0.3876556478925049,0.04161266131605953
1733902671270842600,9.679842529296875,0.8634241712629794,0.285468069832772,-0.059913164899311956
1733902671280869400,9.689869384765625,0.8517144442468881,0.1496064779691398,-0.2100269713360816
1733902671290896600,9.699896728515625,0.4386053522765636,0.05695683584436774,-0.31802648707758635
1733902671300923600,9.709923583984375,-0.13930676388144492,0.017207155388593673,-0.3936652635708451
1733902671310950400,9.719950439453125,-0.5141875397443771,0.030903233916312455,-0.3528639917029068
1733902671320976400,9.729976318359375,-0.5251742131829261,0.10806158465966581,-0.1812742665171623
1733902671331003400,9.74000341796875,-0.3095511023402214,0.15533230827003716,-0.006979483623802661
1733902671341030700,9.75003076171875,-0.019919336956739423,0.15912074076756835,0.10223145373407751
1733902671351057400,9.760057373046875,0.2234726552993059,0.17001242939904332,0.10351210466176271
1733902671361084400,9.77008447265625,0.3111246352672577,0.14370134557858108,0.0003017594255506992
1733902671371111700,9.780111572265625,0.2053518921971321,0.1216746610790491,-0.043591541907284405
1733902671381137700,9.7901376953125,-0.09082651835083962,0.10248305387496948,-0.010109781006164848
1733902671391164400,9.800164306640625,-0.35860417932271954,0.10442425107061862,0.05194604021133855
1733902671401191400,9.81019140625,-0.3927911110848188,0.13229469316229223,0.14409180620089174
1733902671411218700,9.82021875,-0.1332072779625654,0.11929492633566259,0.22126858765007926
1733902671421245700,9.83024560546875,0.19430092135071753,0.07558686364293098,0.23892558743171394
1733902671431271700,9.840271728515624,0.4553752852916717,0.05137859732061624,0.14749032606538384
1733902671441298400,9.85029833984375,0.5170949516236781,-0.007950959004461765,0.03830717176357284
1733902671451325700,9.86032568359375,0.29208441923260686,-0.03023088761270046,-0.10323074870342389
1733902671461352700,9.870352783203124,0.01106558389365673,0.0029342998862266537,-0.1851694473247975
1733902671471379500,9.88037939453125,-0.24725159029364585,0.08294277936369181,-0.17817617263766006
1733902671481406500,9.890406494140626,-0.4297948538333177,0.13427213071510194,-0.14712562093883752
1733902671491432400,9.900432373046876,-0.4507061244368553,0.1245700902596116,-0.06082344814464449
1733902671501459700,9.910459716796876,-0.3457002740859985,0.042078854055702684,0.0010008841382339597
1733902671511486500,9.920486572265625,-0.1407891113936901,-0.054567018098384136,-0.011834339776448904
1733902671521513500,9.930513427734375,0.2778320219963789,-0.1364367614030838,-0.05357484698956832
1733902671531540700,9.940540771484375,0.5741472106665373,-0.11295914744287729,-0.1463033082379028
1733902671541567500,9.9505673828125,0.45158290727138517,0.027590017715096473,-0.3021989494791254
1733902671551593500,9.960593505859375,0.15312135422229767,0.17359072627723215,-0.4234913697749376
1733902671561620500,9.970620361328125,-0.13046996195316313,0.22957520995810626,-0.4866427494104951
1733902671571647700,9.980647705078125,-0.20050912834107876,0.1312763098999858,-0.45961562627516683
1733902671581674500,9.990674560546875,-0.07619476640820502,-0.05978197626769542,-0.37123087505325675
1733902671591701500,10.000701416015625,0.324261180216074,-0.2672799405828118,-0.2877039391260594
1733902671601727500,10.0107275390625,0.7016109765410423,-0.45422509234324093,-0.28139680180586873
1733902671611754800,10.020754638671875,0.6286614756643771,-0.4863377020493149,-0.4046139430865645
1733902671621781500,10.030781494140625,0.13624503822326658,-0.3669526132121682,-0.4950757563108578
1733902671631808500,10.04080859375,-0.4667342991739511,-0.15252251154631374,-0.48103491946607824
1733902671641835500,10.05083544921875,-0.8471183486282825,0.11325053160488605,-0.3711396896384656
1733902671651862500,10.060862548828124,-0.8880775510042905,0.3443075045533478,-0.20850370729155837
1733902671661888500,10.070888427734374,-0.6682499742090702,0.4094777497306466,0.03585457271337509
1733902671671915500,10.08091552734375,-0.3744388773143291,0.3249386410862207,0.2396754924835637
1733902671681942500,10.090942626953124,0.0005231470912694931,0.22229572047442198,0.2247067636715248
1733902671691969500,10.100969482421876,0.22955577460527418,0.18520839109569787,0.016581242042593657
1733902671701996500,10.11099658203125,0.1821206542134285,0.16832155370265245,-0.21562906565945594
1733902671712022500,10.1210224609375,0.01652326477766037,0.18598799716606734,-0.3409455173069611
1733902671722049500,10.131049560546876,0.0037339258313179016,0.2347777470372617,-0.35514563636668023
1733902671732076500,10.14107666015625,-0.005166004461050033,0.2695524155594408,-0.3070204148188233
1733902671742103600,10.151103515625,-0.2424608488857746,0.23969869069606065,-0.22843407709896563
1733902671752130600,10.161130615234375,-0.5666863732665777,0.17042524798363445,-0.13909480163119733
1733902671762157600,10.171157470703125,-0.8476578623324632,0.08534647950455546,-0.010394041307643055
1733902671772183600,10.18118359375,-0.918621742349863,0.0069517188340425485,0.19527597692795096
1733902671782210600,10.19121044921875,-0.7886895405352116,0.0032099019572138783,0.3982031627288088
1733902671792237600,10.201237548828125,-0.639973143273592,-0.010315788439661263,0.6008217209719121
1733902671802264600,10.2112646484375,-0.2977192102491855,-0.034891719030588866,0.8288554005764425
1733902671812291600,10.22129150390625,0.18617255995273588,-0.07213000118732452,0.9444804062277078
1733902671822318600,10.231318603515625,0.6779343328773975,-0.1331114163726568,0.8856750929724424
1733902671832344600,10.241344482421875,0.9555535889059305,-0.10729206159189343,0.6423650068461895
1733902671842371600,10.25137158203125,0.7374339850723743,-0.020946195786446332,0.29460991912223394
1733902671852398600,10.261398681640625,0.14114333165884016,0.0005171557419002056,0.0283760169936344
1733902671862425600,10.271425537109375,-0.2832861957490444,-0.010316665222495794,-0.1120775788353756
1733902671872452600,10.28145263671875,-0.39153497354388234,0.0008902268379926681,-0.16812095309663563
1733902671882478600,10.291478515625,-0.2657049463510513,-0.0012865326792001724,-0.0929516572786495
1733902671892505600,10.301505615234374,0.025118074643611907,0.015652181031554937,0.03797689862959087
1733902671902532600,10.31153271484375,0.215385794955492,0.12223112591803073,0.08160104589853436
1733902671912559600,10.3215595703125,0.15984569404125212,0.2958890722125769,0.0030137217979878186
1733902671922586400,10.33158642578125,-0.0043313072025775905,0.40775925537496804,-0.09821991653777658
1733902671932613600,10.341613525390626,-0.1647305434733629,0.3923670404538512,-0.13646532991044222
1733902671942639600,10.3516396484375,-0.19991350053548812,0.3271379046961665,-0.15269319193810224
1733902671952666600,10.36166650390625,-0.11420447132885456,0.17892346560731529,-0.1887406568750739
1733902671962693400,10.371693359375,-0.1904769791483879,0.016286971803754567,-0.22609657406210898
1733902671972720600,10.381720703125,-0.37243688984215256,-0.048273470912128684,-0.265837925080955
1733902671982747600,10.39174755859375,-0.41055180870294566,-0.005716185689717531,-0.24573482905514538
1733902671992773600,10.401773681640625,-0.4020107748508453,0.037680034574866295,-0.2228529159657657
1733902672002800400,10.41180029296875,-0.4320663058966398,0.09791238495856523,-0.11986359306909143
1733902672012827600,10.42182763671875,-0.30841829891800876,0.1558309054419398,-0.0673387483227998
1733902672022854700,10.431854736328125,-0.19398294144272804,0.1948163235269487,-0.0811618872962892
1733902672032881400,10.44188134765625,-0.22512743676900862,0.17731091584414244,-0.10883804892487824
1733902672042908400,10.451908447265625,-0.24545184739530085,0.12851838949397207,-0.15027641311995685
1733902672052934700,10.4619345703125,-0.19247838209867477,0.0832154588252306,-0.14206008117757737
1733902672062961700,10.471961669921875,0.05702829364538192,0.08869973545521498,-0.13237988722771404
1733902672072988400,10.481988525390625,0.3241261556595564,0.0764294519469142,-0.16581790031865237
1733902672083015400,10.492015380859375,0.32200551024377344,0.06986103334203363,-0.19909801943413913
1733902672093042700,10.502042724609375,0.07947393420934677,0.11857654893323778,-0.20659560864791274
1733902672103068700,10.512068603515624,-0.16236732147336005,0.1918501671977341,-0.20236644664555786
1733902672113095400,10.522095458984374,-0.31819150491356846,0.2291939555555582,-0.14160744203925132
1733902672123122400,10.532122314453124,-0.40137832216620445,0.2186201007016003,-0.01638115289323032
1733902672133149700,10.542149658203124,-0.4044634286999702,0.16610928448066115,0.11002177881672978
1733902672143176400,10.552176513671874,-0.24656886872649192,0.014607202023267745,0.18540259849354623
1733902672153203500,10.562203369140626,0.018844985723495484,-0.16241393709406254,0.19867365654222666
1733902672163229400,10.5722294921875,0.29708441947698594,-0.3378806863762438,0.09647080784812569
1733902672173256700,10.582256591796876,0.5631617062717675,-0.4502503434933722,-0.06662877342253923
1733902672183283500,10.592283447265626,0.6562462326824665,-0.4291575788430869,-0.16918664609938858
1733902672193310500,10.602310546875,0.5556885939121246,-0.3272144770637154,-0.21850158888846635
1733902672203337500,10.61233740234375,0.30666122611761093,-0.2190305811986327,-0.13992679547592995
1733902672213363700,10.62236376953125,0.01729015749692917,-0.07046995902061462,-0.031958405525051053
1733902672223390500,10.632390380859375,-0.18636895930767058,0.1736227288506925,0.014792312799207865
1733902672233417500,10.64241748046875,-0.279077638143301,0.340174350271374,0.10284816086031497
1733902672243444500,10.652444580078125,-0.13187398353219032,0.42259281350001693,0.14431016165930777
1733902672253471000,10.662470947265625,0.10206570524573326,0.39138358237445353,0.1710249674424529
1733902672263497700,10.672497802734375,0.21272037513852118,0.24139614226371048,0.21370427160933614
1733902672273523700,10.682523681640625,0.16540215912461279,0.07673179589435458,0.1856467825129628
1733902672283551000,10.692551025390625,0.02605038705766201,-0.0695145579919219,0.11328421467877924
1733902672293578000,10.702577880859375,-0.1942716952562332,-0.11655249575972557,0.09899488296564668
1733902672303604700,10.712604736328124,-0.34869594877064225,-0.14464491003900765,0.1216982246177271
1733902672313631700,10.7226318359375,-0.28240824387073515,-0.09241524884700775,0.16364830119460821
1733902672323658000,10.732657958984374,-0.019528876334428787,-0.05109539646506309,0.16681140486802906
1733902672333685000,10.74268505859375,0.1464016905784607,-0.13360606802180408,0.10019275098070501
1733902672343711700,10.752711669921876,0.0369914677888155,-0.3217966897986829,-0.0370738853752613
1733902672353738800,10.76273876953125,-0.2032218944311142,-0.49698447600901124,-0.15256909063439816
1733902672363766000,10.77276611328125,-0.40147301471233365,-0.6080177699558437,-0.22609171522390095
1733902672373792800,10.782792724609376,-0.43887423234581946,-0.5424586715914309,-0.2256052468812093
1733902672383818800,10.79281884765625,-0.36104397369027136,-0.37887174519523975,-0.20991269730664788
1733902672393845800,10.802845703125,-0.16975217102766035,-0.1682828291274607,-0.16964158679265529
1733902672403873000,10.812873046875,0.041319852381944654,0.03184343737587333,-0.036997239942476154
1733902672413899800,10.822899658203125,0.17125439228415487,0.2103143369100988,0.0823628240512684
1733902672423926800,10.8329267578125,0.20363222879767418,0.29119302335083486,0.09036494698738678
1733902672433952800,10.842952880859375,0.11233984650075435,0.2843772058561444,-0.05660500846570357
1733902672443980000,10.85297998046875,-0.027034137398004532,0.2412503040522337,-0.23370405339114367
1733902672454006800,10.8630068359375,-0.10328969408273696,0.2081637347474694,-0.2985505099741742
1733902672464033800,10.87303369140625,-0.12544132013618944,0.20732743005380033,-0.27095630927430464
1733902672474060800,10.883060791015625,-0.07558569459915161,0.21002368340045213,-0.19788895417163146
1733902672484088000,10.893088134765625,-0.025535423272848128,0.18145678347721694,-0.15376060197390615
1733902672494114000,10.903114013671875,0.017495909202098845,0.12465367688983678,-0.14042959389891474
1733902672504140800,10.913140869140625,0.08451309742033482,0.03293400909155607,-0.2017497395193204
1733902672514167800,10.923167724609375,0.08453004855513573,-0.025700404576212168,-0.2327916147213429
1733902672524195000,10.933195068359375,0.014144845208525656,-0.1259216509990394,-0.22124387333393095
1733902672534221800,10.943221923828125,-0.10034370375871658,-0.13678352901414037,-0.2287889184186235
1733902672544248800,10.953248779296874,-0.2043850929915905,-0.08988412293419241,-0.1827843422865495
1733902672554274800,10.96327490234375,-0.19354104289412496,-0.006144640234857797,-0.08336137010194361
1733902672564302000,10.973302001953124,-0.06265373231172561,0.10009893521741033,0.014651771817356347
1733902672574328800,10.983328857421874,0.12101415134370326,0.21006723028123378,0.12010558513142168
1733902672584355800,10.99335595703125,0.3016881138801574,0.27242782486528155,0.2062146830389276
1733902672594382800,11.0033828125,0.32247955749630924,0.20177534888461232,0.2394459580440074
1733902672604409000,11.0134091796875,0.23218027788996695,0.09360635832771658,0.11407868952471763
1733902672614435800,11.023435791015626,0.13870996703207492,0.035898411855101585,-0.07059121078010648
1733902672624462800,11.033462890625,0.05073533098101616,0.018069032914936542,-0.15230086815226823
1733902672634489900,11.04348974609375,-0.039838089391589164,0.0385097633972764,-0.14335450490228832
1733902672644516900,11.053516845703125,-0.11134557476639748,0.05587693165317177,-0.05423219665344804
1733902672654544000,11.0635439453125,-0.13703180468678475,0.043840895292162896,0.009677782797068357
1733902672664569900,11.07356982421875,-0.09585223755836486,0.009987141007184982,0.005505977005138993
1733902672674596900,11.083596923828125,-0.0839689075410366,-0.011777969946712255,-0.010935125914402306
1733902672684624000,11.093623779296875,-0.11289455777406691,-0.046731794428080314,-0.04209288258105516
1733902672694651000,11.10365087890625,-0.12372808647751807,-0.05888108190521597,-0.06288958689421414
1733902672704678000,11.113677978515625,-0.16687866141796112,-0.07193097148388623,-0.04993033474106341
1733902672714704000,11.123703857421875,-0.23821605092287063,-0.08963803921863436,-0.011942878184840083
1733902672724731000,11.13373095703125,-0.18070552671849727,-0.11507540894448756,-0.04249704293515533
1733902672734758000,11.1437578125,-0.11220949811935424,-0.15314955740347505,-0.08124540086127817
1733902672744785000,11.153784912109375,-0.0975321534693241,-0.19077756953015923,-0.08656243116557598
1733902672754811600,11.163811767578125,-0.08174889340400696,-0.18839067439362406,-0.05335219894852489
1733902672764839000,11.1738388671875,-0.08980185147821902,-0.14785700395330786,-0.06650390493385494
1733902672774865000,11.183864990234374,-0.16707389172911644,-0.13756854191198944,-0.07627740319035947
1733902672784892000,11.193891845703124,-0.25298984168469907,-0.16857165600620208,-0.08802158046532421
1733902672794918700,11.203918701171874,-0.3121598235338926,-0.2470387512605637,-0.1620752431916073
1733902672804946000,11.21394580078125,-0.31191841599345205,-0.37655133942365643,-0.2737530821196735
1733902672814973000,11.223972900390624,-0.27956863653063774,-0.494059674603492,-0.3383378190265968
1733902672824999000,11.2339990234375,-0.30029110656380653,-0.5728055867992341,-0.3105294093204662
1733902672835025700,11.244025634765626,-0.3113052525311708,-0.5798160500831901,-0.20474859254173933
1733902672845053000,11.254052978515626,-0.2635094821333885,-0.5431562984667718,-0.09152531426995993
1733902672855080000,11.264079833984376,-0.26362521746754647,-0.49160059101358056,-0.008880020015500485
1733902672865107000,11.27410693359375,-0.2740133404910564,-0.4118849570028484,-0.03361841115914285
1733902672875134000,11.284134033203125,-0.3129062579870224,-0.34538507065698504,-0.12807404325995594
1733902672885160000,11.294159912109375,-0.39723406196832656,-0.2893972259752452,-0.21534579173866658
1733902672895187000,11.30418701171875,-0.4044546608716249,-0.21013459642902016,-0.2403093699403107
1733902672905214000,11.3142138671875,-0.2985059767127037,-0.07809796968102455,-0.199662886775285
1733902672915240700,11.32424072265625,-0.08693243352174758,0.01605374756976962,-0.08876100065577774
1733902672925268000,11.33426806640625,0.23582652543783186,0.08424480187296866,0.003265358471497893
1733902672935294000,11.3442939453125,0.438440517103672,0.1215659400075674,0.05345540359467268
1733902672945321000,11.354321044921875,0.48196167892217634,0.10853957743495703,0.02415346739515662
1733902672955347700,11.36434765625,0.3793167124837637,0.040922377496957776,-0.03563585192877799
1733902672965375000,11.374375,0.21146131498813628,-0.05951484976410865,-0.08754157839603721
1733902672975402000,11.384402099609375,0.09480185172259807,-0.13682590685114263,-0.11364840834867208
1733902672985428700,11.3944287109375,0.29480361506342884,-0.17885025424063206,-0.1486092470927164
1733902672995454700,11.404454833984374,0.6875462108314037,-0.19368468914851544,-0.16719744504354894
1733902673005482000,11.41448193359375,0.7765759088933467,-0.20814050000235437,-0.17840886714868245
1733902673015509000,11.424509033203124,0.44843701046109197,-0.22429054755344985,-0.17173391942940652
1733902673025535700,11.43453564453125,-0.06970306630134582,-0.2181650504104793,-0.10898691934365778
1733902673035563000,11.44456298828125,-0.6389321097880601,-0.19747239099368452,-0.11553904440086334
1733902673045589000,11.454589111328126,-1.0248714552819729,-0.18512787320539353,-0.0954258653724566
1733902673055616000,11.464615966796876,-1.0644447562575339,-0.21121260092407465,0.002218370169214904
1733902673065642800,11.474642822265626,-0.7835171063333749,-0.19364684135615826,0.11031911779548972
1733902673075669800,11.484669677734376,-0.5042050749123096,-0.1427387841567397,0.15869637787565588
1733902673085697000,11.494697021484376,-0.2570101832419634,0.0104078506372869,0.1326569871360436
1733902673095723800,11.504723876953125,-0.12680150257349013,0.21567221068143844,0.0816809427343309
1733902673105749800,11.514749755859375,-0.1559738210439682,0.4222887159869075,0.06623071401566266
1733902673115776800,11.52477685546875,-0.2147626946210861,0.5920993392035365,0.1566125573389232
1733902673125804000,11.534803955078125,-0.26455110014081,0.7738705954574048,0.27452786588445305
1733902673135830800,11.544830810546875,-0.2466051090836525,0.9175555744230747,0.3446872976511717
1733902673145857800,11.55485791015625,-0.21237316913604734,1.0175153934307395,0.38703883116841314
1733902673155883800,11.5648837890625,-0.12961889808177948,1.0167112374410032,0.40989809403456745
1733902673165911000,11.5749111328125,0.0011076689809560775,0.9150878691352903,0.39300884548872705
1733902673175937800,11.584937744140625,0.18148527891933916,0.6772603791385888,0.32060382675230503
1733902673185964800,11.59496484375,0.314430691075325,0.40309111743345855,0.18430640075467525
1733902673195992000,11.604991943359375,0.3627981238812208,0.15949936482161284,0.024675007051229474
1733902673206018800,11.615018798828125,0.39295945338904853,0.04396466780230403,-0.17844711679983882
1733902673216044800,11.625044921875,0.3002653876006603,0.0069395900048315525,-0.3917036081090569
1733902673226071800,11.63507177734375,0.05715805750489235,0.02754895505234599,-0.5237988331764936
1733902673236098800,11.645098876953124,-0.2024491564929485,0.08027940537333488,-0.49375667306892573
1733902673246125800,11.655125732421874,-0.38820202972888945,0.15123159495294095,-0.3790420602608472
1733902673256153900,11.66515380859375,-0.42859483039379115,0.1758180469378829,-0.19620332090593873
1733902673266179800,11.675179931640624,-0.27488018645346163,0.13122209549471736,0.037624797256290914
1733902673276206800,11.685206787109376,0.05149287135004997,0.046236850517988204,0.2150771673977375
1733902673286233600,11.695233642578126,0.3154658793419599,-0.015645020638406275,0.2820961091816425
1733902673296260900,11.7052607421875,0.3218435976803303,-0.0190435770355165,0.22969109142273664
1733902673306287900,11.715287841796876,0.1995142720848322,-0.012613397857546806,0.14578370481058955
1733902673316314600,11.725314697265626,-0.007384849554300308,0.04320201286673546,0.04136098810993135
1733902673326340600,11.735340576171875,-0.1891138741016388,0.09861892579272388,-0.006391235407069325
1733902673336367900,11.745367919921875,-0.26382629299759863,0.10696735968217252,0.017231851438432932
1733902673346395000,11.755394775390625,-0.23281974483728407,0.09671616091132164,0.07363821379318833
1733902673356421600,11.765421630859375,-0.06590075140893459,0.018183891466259955,0.13399937818832694
1733902673366448600,11.77544873046875,0.1328372756063938,-0.10459142433106898,0.15576646190360188
1733902673376475000,11.785474853515625,0.21463409980535506,-0.1897039489492774,0.11938377366289496
1733902673386502000,11.795501953125,0.13676876983642577,-0.23206658838242292,0.05660736481957137
1733902673396528600,11.805528564453125,0.016477672070264817,-0.18226006268411873,-0.01650550992526114
1733902673406555600,11.8155556640625,-0.05739654243588447,-0.12011340311169624,-0.09440035824961959
1733902673416583000,11.8255830078125,-0.13751520428955555,-0.022205402067303655,-0.18727526049762963
1733902673426609700,11.835609619140625,-0.11692425168156623,0.03773760998100042,-0.2380431055087596
1733902673436635600,11.8456357421875,-0.07972878575325011,0.07387538354992866,-0.2965615646466613
1733902673446662700,11.85566259765625,-0.034033787027001376,0.09330708312019705,-0.2815406672559678
1733902673456690000,11.86568994140625,0.021956980264186857,0.09728650814518332,-0.26163630867265164
1733902673466716700,11.875716552734374,-0.010227379503846168,0.11797682947441934,-0.2454791737936437
1733902673476743700,11.88574365234375,-0.07423077285885811,0.0990146471120417,-0.2282724567964673
1733902673486769700,11.895769775390624,-0.0924608415544033,0.08204203113168478,-0.20977292350977658
1733902673496797000,11.905796875,-0.031067338436841962,0.042802492155134673,-0.23694040496386587
1733902673506823700,11.91582373046875,0.05199672921895981,0.0030509120032191275,-0.27473106030635536
1733902673516850700,11.9258505859375,0.03046761897802353,-0.009255319601297378,-0.2819864382620901
1733902673526877700,11.935877685546876,-0.07096504906117916,0.02232829779461026,-0.2797281379412859
1733902673536904700,11.94590478515625,-0.2105798559784889,0.03886383753195405,-0.20012641263380646
1733902673546930700,11.9559306640625,-0.3369698551416397,0.0367997446089983,-0.1093880109578371
1733902673556957700,11.965957763671875,-0.39142274534106253,-0.05884279572144151,0.01881086425818503
1733902673566984700,11.975984619140625,-0.43905601865351196,-0.024571838937699795,0.14558197169341147
1733902673577011700,11.98601171875,-0.43721302113533017,-0.052628743512183426,0.28416933525912463
1733902673587038700,11.996038818359375,-0.4234305794984102,-0.09458747831955551,0.3667858052778989
1733902673597064700,12.006064697265625,-0.39254152023792266,-0.13286065648198128,0.4008675230998546
1733902673607091700,12.016091796875,-0.32336803076863285,-0.15855346227362752,0.4462801977533847
1733902673617118700,12.02611865234375,-0.21399346381425857,-0.15478402673751115,0.41245420825816687
1733902673627145700,12.036145751953125,-0.14996318245232104,-0.11459303225502371,0.3988599096044898
1733902673637172700,12.0461728515625,-0.16010288367271422,-0.08246244850084185,0.3979189024273306
1733902673647199700,12.05619970703125,-0.19286299750208855,-0.0476497860558331,0.3774539142865687
1733902673657225700,12.066225830078125,-0.19450082783699035,-0.008333820842206477,0.3606580796452239
1733902673667252700,12.076252685546875,-0.11066285319924354,-0.009709054718166589,0.3134822312440723
1733902673677279700,12.08627978515625,0.0630161358833313,-0.03821910988762975,0.22649598517585545
1733902673687306800,12.096306640625,0.27588205697238444,-0.0440367101252079,0.04052990758065134
1733902673697333800,12.106333740234374,0.3802595462918281,-0.045273996835201974,-0.14847973896153271
1733902673707359700,12.11635986328125,0.3220423351228237,-0.007358253808319568,-0.31434403570517894
1733902673717386800,12.12638671875,0.19092472291588783,0.03664221595972776,-0.4056724026309326
1733902673727413800,12.136413818359374,0.08261749293208122,0.10581015247106551,-0.4171501475220546
1733902673737440800,12.146440673828126,0.024649288088083265,0.15239040959924458,-0.4233214200355112
1733902673747467800,12.1564677734375,-0.008994622838497161,0.1919561117902398,-0.38486524998899546
1733902673757494800,12.166494873046876,-0.0028618191719055174,0.16041545675322413,-0.36877895185649395
1733902673767520800,12.176520751953126,0.038003859701752664,0.15047814623713493,-0.3693679307255894
1733902673777547800,12.1865478515625,0.11785773313939571,0.12198840320333838,-0.34125432752780616
1733902673787574800,12.19657470703125,0.1841542058676481,0.10529650386050343,-0.3420592872351408
1733902673797601800,12.206601806640625,0.12770634245872498,0.11559651020914316,-0.3151959032941609
1733902673807628800,12.21662890625,0.027001988694071766,0.15469810201972722,-0.31494740842580793
1733902673817654800,12.22665478515625,-0.05592120918631553,0.21514102641418575,-0.3213323602225631
1733902673827681800,12.236681884765625,-0.15010755935907363,0.2415529402606189,-0.3446206986883655
1733902673837708800,12.246708740234375,-0.1587929701179266,0.24050489251241086,-0.37777715489156544
1733902673847735600,12.256735595703125,-0.14634148482382298,0.2529765438117087,-0.40176936731040475
1733902673857762800,12.2667626953125,-0.12557634469270706,0.24042218266502022,-0.4614901149101555
1733902673867789800,12.276789794921875,-0.16889292384982107,0.2577029878117144,-0.48919590449202804
1733902673877815800,12.28681591796875,-0.27380232808887955,0.3177669958911836,-0.47141423715110864
1733902673887842600,12.296842529296875,-0.3350397638618946,0.3570388297021389,-0.35949506374783813
1733902673897869800,12.306869873046875,-0.2746937239706516,0.3249222744733095,-0.1888136125134304
1733902673907896800,12.316896728515625,-0.11119827525019645,0.21811098213568328,-0.0013955460116267203
1733902673917923600,12.326923583984374,0.04986556240916252,0.1284329031676054,0.09534841622207313
1733902673927949600,12.336949462890624,0.03558861525356769,0.08509805770143866,0.0718078200282529
1733902673937976800,12.346976806640624,-0.06573533171415329,0.04590849534645677,0.0012242810979485512
1733902673948003800,12.35700390625,-0.14160744203925132,0.005257628267258405,-0.06337130599655211
