time,seconds_elapsed,z,y,x
1733902661625033000,0.034032958984375,0.22454974055290222,-0.8675678968429565,-1.4322164058685303
1733902661635059700,0.044059814453125,0.2228727489709854,-0.7061686515808105,-1.5200954675674438
1733902661645086700,0.054086669921875,0.175668865442276,-0.3557617962360382,-1.6643084287643433
1733902661655113700,0.06411376953125,0.07636437565088272,-0.14758755266666412,-1.838142991065979
1733902661665139700,0.0741396484375,-0.009105391800403595,-0.04059910401701927,-2.0095996856689453
1733902661675166700,0.084166748046875,-0.12161222845315933,0.17842698097229004,-2.087064266204834
1733902661685193700,0.09419384765625,-0.2518531382083893,0.2727271318435669,-2.083017110824585
1733902661695220700,0.104220703125,-0.3709914982318878,0.29517969489097595,-2.03395414352417
1733902661705246700,0.114246826171875,-0.4620005190372467,0.3581770062446594,-1.968727469444275
1733902661715274000,0.12427392578125,-0.5872172713279724,0.3544246256351471,-1.9538153409957886
1733902661725300700,0.13430078125,-0.733709454536438,0.4405168890953064,-1.9767729043960571
1733902661735327700,0.14432763671875,-0.802287757396698,0.5671432614326477,-2.0218887329101562
1733902661745353700,0.154353759765625,-0.8239055871963501,0.6501551270484924,-2.1265203952789307
1733902661755381000,0.164381103515625,-0.7848892211914062,0.8599701523780823,-2.318847417831421
1733902661765407700,0.17440771484375,-0.7229666709899902,0.8631640076637268,-2.3828320503234863
1733902661775434800,0.184434814453125,-0.6320213079452515,0.7540545463562012,-2.449941635131836
1733902661785460700,0.194460693359375,-0.4682365655899048,0.6670418977737427,-2.4980764389038086
1733902661795488000,0.204488037109375,-0.28009942173957825,0.6131728291511536,-2.5502405166625977
1733902661805514800,0.2145146484375,-0.13505768775939941,0.4690762162208557,-2.626460313796997
1733902661815541800,0.224541748046875,-0.06910450011491776,0.41064512729644775,-2.697209596633911
1733902661825567700,0.234567626953125,-0.05720442533493042,0.44418495893478394,-2.7395150661468506
1733902661835595000,0.244594970703125,-0.09111152589321136,0.44350743293762207,-2.7694990634918213
1733902661845621800,0.254621826171875,-0.16349062323570251,0.4402514696121216,-2.7772324085235596
1733902661855648800,0.264648681640625,-0.23717522621154785,0.519648015499115,-2.7727487087249756
1733902661865674800,0.2746748046875,-0.3096085488796234,0.6524463295936584,-2.7599987983703613
1733902661875702000,0.284701904296875,-0.3876975178718567,0.7869378328323364,-2.7397983074188232
1733902661885728800,0.294728759765625,-0.40286457538604736,0.8438761830329895,-2.6928188800811768
1733902661895755800,0.304755859375,-0.363892138004303,0.8113949298858643,-2.5834031105041504
1733902661905781800,0.31478173828125,-0.2969607412815094,0.7474783062934875,-2.427849769592285
1733902661915808800,0.324808837890625,-0.19893458485603333,0.8596796989440918,-2.2713263034820557
1733902661925835800,0.334835693359375,0.0055619822815060616,0.8911947011947632,-2.157799005508423
1733902661935862800,0.34486279296875,0.2677347660064697,0.9120866656303406,-2.1641597747802734
1733902661945888800,0.354888671875,0.47694626450538635,0.9913323521614075,-2.286314010620117
1733902661955915800,0.364915771484375,0.553809642791748,1.0630278587341309,-2.469634532928467
1733902661965942800,0.37494287109375,0.6110309958457947,1.048227310180664,-2.640355110168457
1733902661975969800,0.3849697265625,0.7058137059211731,0.9157722592353821,-2.7380387783050537
1733902661985995800,0.394995849609375,0.7361996173858643,0.7760103344917297,-2.857959747314453
1733902661996022800,0.405022705078125,0.7104820013046265,0.6183666586875916,-2.9687259197235107
1733902662006049800,0.4150498046875,0.6840110421180725,0.4678419530391693,-3.056164264678955
1733902662016075800,0.42507568359375,0.69218510389328,0.3604201674461365,-3.1045076847076416
1733902662026102800,0.435102783203125,0.7351958751678467,0.25605639815330505,-3.091804265975952
1733902662036129800,0.4451298828125,0.7748807072639465,0.1314723938703537,-3.0431315898895264
1733902662046156800,0.45515673828125,0.7451086640357971,0.0403779074549675,-2.961225986480713
1733902662056182800,0.465182861328125,0.6106874942779541,0.11890414357185364,-2.847947835922241
1733902662066209800,0.475209716796875,0.43416136503219604,0.22302547097206116,-2.6806674003601074
1733902662076236800,0.48523681640625,0.313199520111084,0.38326603174209595,-2.470749855041504
1733902662086263800,0.495263916015625,0.23899078369140625,0.6084703803062439,-2.2697854042053223
1733902662096289800,0.505289794921875,0.23156562447547913,0.8561339974403381,-2.0878779888153076
1733902662106316800,0.51531689453125,0.32183313369750977,1.0435683727264404,-1.910927176475525
1733902662116343800,0.52534375,0.4299960732460022,1.137359857559204,-1.7116048336029053
1733902662126370800,0.535370849609375,0.5930773615837097,1.0925997495651245,-1.5209637880325317
1733902662136396800,0.545396728515625,0.7612549662590027,1.04611074924469,-1.3595653772354126
1733902662146423800,0.555423828125,0.8637882471084595,1.005950927734375,-1.2623878717422485
1733902662156450800,0.565450927734375,0.8856733441352844,0.9750180840492249,-1.174777626991272
1733902662166477600,0.5754775390625,0.9165905117988586,0.9083728194236755,-1.0451823472976685
1733902662176503800,0.58550390625,0.9511309266090393,0.923140823841095,-0.8951759934425354
1733902662186530800,0.59553076171875,0.965630829334259,0.8662092685699463,-0.6981129050254822
1733902662196557800,0.605557861328125,0.9779820442199707,0.6769258975982666,-0.43913617730140686
1733902662206584600,0.61558447265625,1.0388069152832031,0.4168916940689087,-0.17604318261146545
1733902662216610800,0.62561083984375,1.2178528308868408,0.11984191834926605,0.02182488888502121
1733902662226637800,0.635637939453125,1.4953844547271729,-0.09714319556951523,0.11813028156757355
1733902662236664800,0.645664794921875,1.6999834775924683,-0.048575662076473236,0.1660221666097641
1733902662246692000,0.655692138671875,1.8713659048080444,0.08404335379600525,0.2097213864326477
1733902662256718000,0.665718017578125,2.0403265953063965,0.20276492834091187,0.21058371663093567
1733902662266745000,0.6757451171875,2.1445376873016357,0.43423691391944885,0.18890437483787537
1733902662276772000,0.685772216796875,2.1844377517700195,0.7860772609710693,0.1691378653049469
1733902662286798300,0.69579833984375,2.186558723449707,1.1876477003097534,0.1478956788778305
1733902662296825000,0.7058251953125,2.189769983291626,1.5055911540985107,0.17476990818977356
1733902662306852000,0.71585205078125,2.1861202716827393,1.7418221235275269,0.3343610465526581
1733902662316879000,0.725879150390625,2.0731966495513916,1.8738237619400024,0.6370207667350769
1733902662326905000,0.735905029296875,1.828962802886963,1.8089172840118408,0.977141261100769
1733902662336932000,0.74593212890625,1.6715713739395142,1.454806923866272,1.3259074687957764
1733902662346959000,0.755958984375,1.5261709690093994,1.2129491567611694,1.5132063627243042
1733902662356986000,0.765986083984375,1.243101716041565,0.688129186630249,1.4661540985107422
1733902662367012000,0.77601220703125,0.6660062670707703,-0.4243980050086975,1.0966874361038208
1733902662377039000,0.7860390625,-0.10039373487234116,-1.3341184854507446,0.42943790555000305
1733902662387066000,0.796066162109375,-0.6183878183364868,-1.696752667427063,-0.08351374417543411
1733902662397093000,0.806093017578125,-0.6766216158866882,-1.7139955759048462,-0.3309304714202881
1733902662407119000,0.816119140625,-0.5767377018928528,-1.5379358530044556,-0.4132046699523926
1733902662417146000,0.82614599609375,-0.4436209797859192,-1.298097848892212,-0.34933993220329285
1733902662427173000,0.836173095703125,-0.3302018940448761,-1.079241394996643,-0.16144482791423798
1733902662437200100,0.8462001953125,-0.37411609292030334,-1.1347123384475708,-0.003582746721804142
1733902662447226000,0.85622607421875,-0.6199193596839905,-1.3323304653167725,0.008299849927425385
1733902662457253000,0.866253173828125,-1.0083893537521362,-1.4493404626846313,0.33647507429122925
1733902662467280100,0.876280029296875,-1.566565752029419,-1.6403396129608154,1.0770492553710938
1733902662477306000,0.88630615234375,-1.948716640472412,-2.159874200820923,1.4674596786499023
1733902662487333000,0.8963330078125,-2.0847055912017822,-2.5078725814819336,1.6197174787521362
1733902662497360100,0.906360107421875,-2.0853867530822754,-2.1958632469177246,1.752215027809143
1733902662507387100,0.91638720703125,-2.154947519302368,-1.599218726158142,1.8107157945632935
1733902662517413000,0.9264130859375,-2.3121793270111084,-1.0821342468261719,1.823598027229309
1733902662527440100,0.936440185546875,-2.3878490924835205,-0.8889431953430176,1.6982978582382202
1733902662537467100,0.946467041015625,-2.19791579246521,-1.1655782461166382,1.5460888147354126
1733902662547494100,0.956494140625,-1.7065505981445312,-1.5355294942855835,1.502760410308838
1733902662557520100,0.96652001953125,-0.932486355304718,-1.6624624729156494,1.7145975828170776
1733902662567547100,0.976547119140625,0.04458792135119438,-1.5657896995544434,2.0440869331359863
1733902662577574000,0.986573974609375,1.019553303718567,-1.7249705791473389,2.3589327335357666
1733902662587601200,0.99660107421875,1.6710641384124756,-2.214435577392578,2.5452067852020264
1733902662597627100,1.006627197265625,1.981485366821289,-3.3511171340942383,2.510777235031128
1733902662607654100,1.016654052734375,2.0710275173187256,-4.23505163192749,2.28849720954895
1733902662617681200,1.02668115234375,2.164663076400757,-4.070188045501709,1.9379602670669556
1733902662627707100,1.03670703125,2.4410552978515625,-3.929410696029663,1.5515233278274536
1733902662637734100,1.046734130859375,2.791661500930786,-3.907914161682129,1.2080373764038086
1733902662647761200,1.05676123046875,3.0911343097686768,-3.7696309089660645,0.9496269226074219
1733902662657788200,1.0667880859375,3.2830991744995117,-3.8410444259643555,0.7773212194442749
1733902662667814100,1.076814208984375,3.3545491695404053,-3.904412031173706,0.6853672862052917
1733902662677841200,1.086841064453125,3.329819679260254,-3.7274932861328125,0.7050168514251709
1733902662687868200,1.0968681640625,3.2547292709350586,-3.4719765186309814,0.8856830596923828
1733902662697895200,1.106895263671875,3.1492533683776855,-2.993985414505005,1.1847670078277588
1733902662707921200,1.116921142578125,3.0171523094177246,-2.5465967655181885,1.5451141595840454
1733902662717948200,1.1269482421875,2.9375898838043213,-1.669992208480835,1.9754163026809692
1733902662727975200,1.13697509765625,3.011291027069092,-1.0465984344482422,2.5161335468292236
1733902662738001200,1.147001220703125,3.141284227371216,-0.9304587244987488,3.1180455684661865
1733902662748028200,1.157028076171875,3.220327138900757,-0.8260992765426636,3.810450553894043
1733902662758055200,1.16705517578125,3.3272173404693604,-0.8851000070571899,4.586605072021484
1733902662768082200,1.177082275390625,3.449763774871826,-1.2461950778961182,5.399282455444336
1733902662778108200,1.187108154296875,3.527090311050415,-1.431565761566162,6.199184417724609
1733902662788135200,1.19713525390625,3.6003592014312744,-1.456998586654663,6.956140518188477
1733902662798162200,1.207162109375,3.677927255630493,-1.5055553913116455,7.545998573303223
1733902662808189200,1.217189208984375,3.719670534133911,-1.605542778968811,7.924546718597412
1733902662818215200,1.227215087890625,3.6376593112945557,-1.6916624307632446,8.093467712402344
1733902662828242200,1.2372421875,3.3985369205474854,-2.011854887008667,8.019054412841797
1733902662838269200,1.247269287109375,3.046283006668091,-2.217407464981079,7.7241902351379395
1733902662848296200,1.257296142578125,2.6390371322631836,-1.9057732820510864,7.232571601867676
1733902662858322200,1.267322265625,2.2104969024658203,-1.4030818939208984,6.538087844848633
1733902662868349200,1.27734912109375,1.8498005867004395,-0.8374670743942261,5.744536876678467
1733902662878376000,1.2873759765625,1.5719252824783325,-0.21066921949386597,4.905423641204834
1733902662888402200,1.297402099609375,1.3408197164535522,0.32997748255729675,4.06635046005249
1733902662898429200,1.30742919921875,1.128926396369934,0.5938461422920227,3.2652151584625244
1733902662908456200,1.317456298828125,1.0203030109405518,0.6227580308914185,2.566481351852417
1733902662918483000,1.32748291015625,0.8403689861297607,0.1752643883228302,1.9410303831100464
1733902662928509200,1.33750927734375,0.5957393050193787,-1.0404783487319946,1.4022250175476074
1733902662938536200,1.3475361328125,0.5421844720840454,-3.3769631385803223,1.4208935499191284
1733902662948563200,1.357563232421875,0.48711082339286804,-2.3899922370910645,1.2078965902328491
1733902662958590000,1.36758984375,0.8435482978820801,-1.5971226692199707,0.8072537779808044
1733902662968616000,1.377615966796875,1.2111760377883911,-1.3873963356018066,0.6803929209709167
1733902662978643200,1.387643310546875,1.4131067991256714,0.7195736765861511,0.4070177972316742
1733902662988670200,1.397670166015625,1.2080236673355103,1.4470120668411255,0.16201256215572357
1733902662998697000,1.407697021484375,1.0745539665222168,0.7191718220710754,0.32733839750289917
1733902663008723000,1.417722900390625,1.2352296113967896,0.4078342020511627,0.7812714576721191
1733902663018750200,1.427750244140625,1.503418207168579,0.0017218454740941525,1.3940660953521729
1733902663028777200,1.437777099609375,1.250610113143921,-0.20980608463287354,2.0996999740600586
1733902663038803200,1.44780322265625,0.5567343831062317,-0.6187816262245178,2.64080548286438
1733902663048830000,1.457829833984375,-0.3036612570285797,-0.9764228463172913,2.78900146484375
1733902663058857200,1.467857177734375,-0.9995514154434204,-1.0913976430892944,2.52944016456604
1733902663068884200,1.47788427734375,-1.3326122760772705,-0.8727601766586304,1.9650704860687256
1733902663078910200,1.48791015625,-1.5507442951202393,-0.9816874861717224,1.009476661682129
1733902663088937000,1.49793701171875,-1.5987796783447266,-1.327997088432312,-0.3376982510089874
1733902663098964200,1.507964111328125,-1.4975225925445557,-1.623435139656067,-1.7839205265045166
1733902663108991200,1.5179912109375,-1.434471845626831,-1.5310657024383545,-2.7753729820251465
1733902663119017200,1.528017333984375,-1.6719748973846436,-1.1117554903030396,-2.891977310180664
1733902663129044000,1.5380439453125,-1.843001127243042,-1.43779456615448,-2.9919955730438232
1733902663139071200,1.5480712890625,-1.5885357856750488,-1.8832277059555054,-3.5278401374816895
1733902663149098200,1.55809814453125,-1.270501971244812,-2.1103742122650146,-3.803100109100342
1733902663159124200,1.568124267578125,-1.0700303316116333,-2.475362777709961,-3.7297163009643555
1733902663169151000,1.57815087890625,-1.0362582206726074,-2.7781550884246826,-3.3878989219665527
1733902663179178200,1.58817822265625,-1.079799771308899,-2.8398211002349854,-2.547623634338379
1733902663189205200,1.598205322265625,-1.06024169921875,-2.768723487854004,-1.3083698749542236
1733902663199231200,1.608231201171875,-1.0681089162826538,-2.7713382244110107,-0.4984535574913025
1733902663209258000,1.618258056640625,-1.1332526206970215,-2.6925387382507324,-0.360358327627182
1733902663219285000,1.628284912109375,-1.2211664915084839,-2.4845376014709473,-0.5676828026771545
1733902663229312300,1.638312255859375,-1.2697975635528564,-2.236968994140625,-0.7977769374847412
1733902663239338200,1.648338134765625,-1.2095420360565186,-2.0900044441223145,-0.8224101066589355
1733902663249365200,1.658365234375,-1.0657044649124146,-2.0540738105773926,-0.6584388017654419
1733902663259392300,1.668392333984375,-0.868054211139679,-1.9740928411483765,-0.46965688467025757
1733902663269419500,1.67841943359375,-0.6935346126556396,-1.8101348876953125,-0.367291659116745
1733902663279445500,1.688445556640625,-0.6389765739440918,-1.5936344861984253,-0.4140239953994751
1733902663289472300,1.69847216796875,-0.6261359453201294,-1.314981460571289,-0.503811776638031
1733902663299499300,1.708499267578125,-0.5482531189918518,-1.1508023738861084,-0.5095354318618774
1733902663309526500,1.718526611328125,-0.38881444931030273,-1.0522916316986084,-0.3626907765865326
1733902663319553300,1.72855322265625,-0.15717828273773193,-0.9598022699356079,-0.1203649714589119
1733902663329579300,1.738579345703125,0.042359888553619385,-0.7674650549888611,0.08872249722480774
1733902663339606300,1.748606201171875,0.12990304827690125,-0.4433719515800476,0.18083405494689941
1733902663349633500,1.758633544921875,0.09699978679418564,-0.034115783870220184,0.1465645730495453
1733902663359660300,1.768660400390625,-0.007187601178884506,0.3917047381401062,0.029789218679070473
1733902663369686300,1.778686279296875,-0.08102050423622131,0.6356175541877747,-0.08166348189115524
1733902663379713300,1.78871337890625,-0.028582066297531128,0.6562724709510803,-0.09653590619564056
1733902663389740500,1.798740478515625,0.1180296465754509,0.49252834916114807,0.01417558640241623
1733902663399767300,1.808767333984375,0.2728588879108429,0.21509328484535217,0.16258075833320618
1733902663409793300,1.818793212890625,0.40231433510780334,-0.028974059969186783,0.2697053551673889
1733902663419820300,1.8288203125,0.5000696778297424,-0.18217933177947998,0.29592737555503845
1733902663429847600,1.83884765625,0.586695671081543,-0.2841680347919464,0.27412089705467224
1733902663439874300,1.848874267578125,0.6226387619972229,-0.3228483200073242,0.3332960605621338
1733902663449901300,1.8589013671875,0.5527265071868896,-0.2185678482055664,0.5459733605384827
1733902663459927300,1.86892724609375,0.404356449842453,-0.13732865452766418,0.9129495024681091
1733902663469954600,1.87895458984375,0.19941586256027222,-0.04071342200040817,1.518735647201538
1733902663479981300,1.888981201171875,-0.13672034442424774,0.07058167457580566,2.1413989067077637
1733902663490008300,1.89900830078125,-0.5056101679801941,0.16881142556667328,2.492779016494751
1733902663500035300,1.909035400390625,-0.7045666575431824,0.16798824071884155,2.440012216567993
1733902663510061300,1.919061279296875,-0.6033811569213867,0.21561488509178162,2.221803665161133
1733902663520088300,1.92908837890625,-0.2829517424106598,0.33031269907951355,2.238142728805542
1733902663530115300,1.939115234375,-0.027778202667832375,0.5783982872962952,2.507354736328125
1733902663540142300,1.949142333984375,0.059349510818719864,0.48900747299194336,2.306745767593384
1733902663550168300,1.959168212890625,0.22498521208763123,0.26816362142562866,1.5662723779678345
1733902663560195300,1.9691953125,0.4117412269115448,-0.15101048350334167,1.0885512828826904
1733902663570222300,1.979222412109375,0.6519957184791565,-0.7590247392654419,0.90437912940979
1733902663580249300,1.989249267578125,0.9616393446922302,-1.1735939979553223,0.9788571000099182
1733902663590276400,1.9992763671875,1.1874629259109497,-1.489571452140808,1.0921366214752197
1733902663600302300,2.00930224609375,1.244526743888855,-1.5691099166870117,1.0089197158813477
1733902663610329300,2.019329345703125,1.080566644668579,-1.3103235960006714,0.6177026033401489
1733902663620356400,2.0293564453125,0.903995156288147,-0.9005886316299438,0.29707181453704834
1733902663630383600,2.039383544921875,0.8122586011886597,-0.4250752031803131,0.20048512518405914
1733902663640410400,2.049410400390625,0.7862059473991394,0.0791354775428772,0.26409420371055603
1733902663650436400,2.059436279296875,0.754818320274353,0.5566638112068176,0.3537168800830841
1733902663660463400,2.06946337890625,0.6619879603385925,0.9549797773361206,0.3542255461215973
1733902663670490400,2.079490478515625,0.5011954307556152,1.1845566034317017,0.36848682165145874
1733902663680517400,2.089517333984375,0.3889162838459015,1.167199969291687,0.6057004332542419
1733902663690544400,2.09954443359375,0.3441237807273865,0.9955770969390869,1.0259534120559692
1733902663700570400,2.1095703125,0.38198888301849365,0.5359770059585571,1.2914572954177856
1733902663710597400,2.119597412109375,0.6275109052658081,-0.009545929729938507,1.3769997358322144
1733902663720624400,2.129624267578125,1.0069347620010376,-0.49656832218170166,1.2281301021575928
1733902663730651400,2.1396513671875,1.460755467414856,-0.9238738417625427,0.9211488366127014
1733902663740678400,2.149678466796875,1.9565238952636719,-1.2527201175689697,0.6614158153533936
1733902663750704400,2.159704345703125,2.499281406402588,-1.5466973781585693,0.5267386436462402
1733902663760731400,2.1697314453125,2.6297600269317627,-1.6389294862747192,0.35571256279945374
1733902663770758400,2.17975830078125,1.9768877029418945,-1.226043701171875,-0.07831678539514542
1733902663780785400,2.189785400390625,1.0990511178970337,-0.5781084299087524,-0.4166695475578308
1733902663790812400,2.1998125,0.6324107646942139,-0.02453492395579815,-0.5011374950408936
1733902663800838400,2.20983837890625,0.8113706707954407,0.3106609284877777,-0.4407159686088562
1733902663810865400,2.219865478515625,1.3526310920715332,0.3205929398536682,-0.38307759165763855
1733902663820892400,2.229892333984375,1.7283434867858887,0.11328127235174179,-0.48240789771080017
1733902663830919200,2.239919189453125,1.7296273708343506,-0.32604238390922546,-0.6105733513832092
1733902663840946400,2.249946533203125,1.2393783330917358,-0.753490686416626,-0.6657002568244934
1733902663850972400,2.259972412109375,0.7307898998260498,-1.1608202457427979,-0.721231997013092
1733902663860999400,2.26999951171875,0.2750934958457947,-1.5102030038833618,-0.6733201146125793
1733902663871026200,2.280026123046875,-0.038190729916095734,-1.7754874229431152,-0.6587055325508118
1733902663881053400,2.290053466796875,-0.1899014413356781,-1.8259150981903076,-0.7523606419563293
1733902663891080400,2.30008056640625,-0.2106284648180008,-1.6777386665344238,-0.8388957381248474
1733902663901106400,2.3101064453125,-0.18197257816791534,-1.3825676441192627,-0.7246557474136353
1733902663911133200,2.32013330078125,-0.2168899029493332,-0.9080361127853394,-0.6264684796333313
1733902663921160400,2.330160400390625,-0.40244191884994507,-0.48549580574035645,-0.5367756485939026
1733902663931187500,2.3401875,-0.6879103183746338,-0.16629210114479065,-0.4531179666519165
1733902663941214200,2.350214111328125,-0.8919651508331299,0.0846482515335083,-0.4128856062889099
1733902663951241500,2.360241455078125,-0.8960393667221069,0.13932707905769348,-0.3235520124435425
1733902663961267500,2.370267333984375,-0.8610760569572449,0.05682767555117607,-0.26556116342544556
1733902663971294500,2.38029443359375,-0.7989292144775391,0.015629637986421585,-0.303725004196167
1733902663981321200,2.3903212890625,-0.6831565499305725,0.0747227817773819,-0.3489082157611847
1733902663991348200,2.40034814453125,-0.5763905644416809,0.2402324378490448,-0.34131166338920593
1733902664001375500,2.41037548828125,-0.5261870622634888,0.5197439789772034,-0.3143913745880127
1733902664011401500,2.4204013671875,-0.586467981338501,0.8581376671791077,-0.3197544515132904
1733902664021428200,2.43042822265625,-0.6594582796096802,1.2015470266342163,-0.3547912836074829
1733902664031455200,2.440455322265625,-0.6336530447006226,1.45937979221344,-0.3528631627559662
1733902664041482500,2.450482421875,-0.5628222823143005,1.6034566164016724,-0.3554360568523407
1733902664051509500,2.460509521484375,-0.7771072387695312,1.6527515649795532,-0.48987939953804016
1733902664061536300,2.470536376953125,-1.1260783672332764,1.7715831995010376,-0.5536988973617554
1733902664071562200,2.480562255859375,-1.2769415378570557,1.8905811309814453,-0.5386962294578552
1733902664081589500,2.490589599609375,-1.170501708984375,1.8792567253112793,-0.541923999786377
1733902664091616500,2.500616455078125,-1.1003748178482056,1.909717321395874,-0.7192492485046387
1733902664101643300,2.510643310546875,-1.4091382026672363,2.0135419368743896,-1.02623450756073
1733902664111670500,2.52067041015625,-2.1133272647857666,2.113330841064453,-1.3066195249557495
1733902664121697500,2.530697509765625,-2.8075945377349854,1.7779419422149658,-1.3582104444503784
1733902664131723500,2.5407236328125,-2.2319676876068115,0.44441089034080505,-0.6575374603271484
1733902664141750300,2.550750244140625,-1.1479628086090088,-0.7713530659675598,-0.25953948497772217
1733902664151777300,2.56077734375,-1.5037269592285156,-1.2923780679702759,-0.4552527964115143
1733902664161804500,2.570804443359375,-1.0692671537399292,-1.725188136100769,-0.021042481064796448
1733902664171831300,2.580831298828125,-0.2570260763168335,-1.5854820013046265,0.3460344076156616
1733902664181858300,2.5908583984375,0.17100569605827332,-0.9374691843986511,0.7868879437446594
1733902664191884300,2.60088427734375,-0.18890537321567535,0.01863042637705803,1.2798049449920654
1733902664201911600,2.61091162109375,-0.8486113548278809,0.952347993850708,1.7642738819122314
1733902664211938300,2.620938232421875,-1.3926483392715454,1.223048448562622,1.9863327741622925
1733902664221965300,2.63096533203125,-1.4758175611495972,1.3069223165512085,1.9159523248672485
1733902664231992600,2.64099267578125,-1.3209220170974731,1.4533439874649048,1.4814637899398804
1733902664242019300,2.651019287109375,-1.131899356842041,1.8052663803100586,0.8895507454872131
1733902664252045000,2.661045166015625,-0.9822900295257568,2.2343838214874268,0.44043368101119995
1733902664262072000,2.671072021484375,-0.8417848348617554,2.7035317420959473,0.25308749079704285
1733902664272099000,2.68109912109375,-0.7101770043373108,3.029038667678833,0.25621214509010315
1733902664282125800,2.691125732421875,-0.5753182768821716,3.087475061416626,0.34227484464645386
1733902664292153000,2.701153076171875,-0.42687660455703735,2.6605350971221924,0.47381392121315
1733902664302180000,2.71118017578125,-0.23694872856140137,2.047408103942871,0.54146409034729
1733902664312207000,2.72120703125,-0.038382887840270996,1.4545445442199707,0.536923885345459
1733902664322233000,2.731233154296875,0.1492927372455597,1.1054126024246216,0.5350756645202637
1733902664332260000,2.741260009765625,0.18926355242729187,1.0803576707839966,0.6311615705490112
1733902664342287000,2.751287109375,0.09141130745410919,1.2678654193878174,0.8486446142196655
1733902664352314000,2.761314208984375,0.0024251649156212807,1.1355146169662476,1.1820018291473389
1733902664362340900,2.7713408203125,0.1265212744474411,0.5469032526016235,1.536678671836853
1733902664372368100,2.7813681640625,0.4823482632637024,-0.2841106653213501,1.7670598030090332
1733902664382394000,2.79139404296875,0.9574465751647949,-0.9801120758056641,1.7846518754959106
1733902664392421000,2.801421142578125,1.4844917058944702,-1.0693739652633667,1.67406165599823
1733902664402448000,2.81144775390625,1.8874237537384033,-0.951784610748291,1.5420153141021729
1733902664412475100,2.82147509765625,2.1853888034820557,-0.7340485453605652,1.5151474475860596
1733902664422502100,2.831502197265625,2.3221311569213867,-0.8268887400627136,1.8760278224945068
1733902664432529000,2.84152880859375,2.2518606185913086,-0.1383344978094101,2.602315664291382
1733902664442556200,2.85155615234375,2.2834649085998535,-0.01779690757393837,3.16568922996521
1733902664452582100,2.86158203125,2.5058794021606445,-0.027015557512640953,3.4694063663482666
1733902664462609200,2.871609130859375,2.9658944606781006,-0.07448799908161163,3.4152939319610596
1733902664472636000,2.881635986328125,3.576751470565796,0.22592641413211823,2.830993890762329
1733902664482663200,2.8916630859375,4.240108966827393,0.3804153501987457,1.9399889707565308
1733902664492690200,2.901690185546875,4.546734809875488,0.7553874254226685,0.9594777822494507
1733902664502717000,2.911717041015625,4.180316925048828,1.5008659362792969,0.31213101744651794
1733902664512744000,2.921743896484375,3.8343164920806885,2.5209763050079346,0.36168646812438965
1733902664522771200,2.931771240234375,3.3235678672790527,3.6310999393463135,0.7151806354522705
1733902664532797200,2.941797119140625,2.4065041542053223,4.038361549377441,0.8365758061408997
1733902664542824000,2.951823974609375,1.4403208494186401,3.538363456726074,0.4807188808917999
1733902664552851000,2.961850830078125,0.3309040367603302,2.1367669105529785,-0.1629246175289154
1733902664562878200,2.971878173828125,-0.8898386359214783,1.0675935745239258,-0.7888764142990112
1733902664572905000,2.981905029296875,-1.565972089767456,0.9756485223770142,-1.31338369846344
1733902664582932000,2.991931884765625,-1.4622185230255127,1.9147480726242065,-1.874879240989685
1733902664592959000,3.001958984375,-1.0963290929794312,3.3299813270568848,-2.5402021408081055
1733902664602986000,3.011986083984375,-0.9331263303756714,4.562678337097168,-2.7389492988586426
1733902664613012000,3.022011962890625,-0.7682986855506897,5.552374362945557,-2.2759275436401367
1733902664623039000,3.0320390625,-0.43641024827957153,5.884021759033203,-1.6226707696914673
1733902664633066000,3.04206591796875,-0.048614706844091415,5.467533111572266,-1.5817350149154663
1733902664643093000,3.052093017578125,0.3081263601779938,4.105698585510254,-1.9676039218902588
1733902664653120000,3.0621201171875,0.33758774399757385,2.7475693225860596,-2.13150691986084
1733902664663147000,3.07214697265625,0.16432248055934906,1.965044379234314,-2.2719836235046387
1733902664673174000,3.082174072265625,-0.09679213911294937,1.7770990133285522,-2.3950746059417725
1733902664683201000,3.092200927734375,-0.4734523296356201,1.9464225769042969,-2.3719482421875
1733902664693227000,3.10222705078125,-0.9832285046577454,1.746240496635437,-2.14447283744812
1733902664703254000,3.11225390625,-1.3046609163284302,0.8364687561988831,-1.5917044878005981
1733902664713281300,3.12228125,-1.371779203414917,0.2571212649345398,-0.7645286917686462
1733902664723308000,3.13230810546875,-1.1495224237442017,0.19738470017910004,-0.12481848895549774
1733902664733335000,3.1423349609375,-0.7367861866950989,0.24244919419288635,0.0407354012131691
1733902664743362000,3.152362060546875,-0.5844485759735107,0.4617141783237457,0.04019291698932648
1733902664753389000,3.16238916015625,-0.5808465480804443,0.5264738202095032,0.0837489441037178
1733902664763416000,3.172416015625,-0.3576965630054474,0.3339041471481323,0.17722643911838531
1733902664773442000,3.182442138671875,0.0040236422792077065,0.5033315420150757,0.1999044418334961
1733902664783469000,3.192468994140625,0.44161245226860046,0.6323375105857849,0.14466728270053864
1733902664793496000,3.20249609375,0.8838773369789124,0.4909365177154541,0.012417777441442013
1733902664803523000,3.212523193359375,1.0587135553359985,0.3512433171272278,-0.12848980724811554
1733902664813550000,3.222550048828125,0.8793204426765442,0.1539151817560196,-0.22094538807868958
1733902664823576800,3.232576904296875,0.6086061000823975,-0.19487076997756958,-0.2805783748626709
1733902664833604000,3.24260400390625,0.45882710814476013,-0.26387855410575867,-0.3467950224876404
1733902664843631000,3.252631103515625,0.38287216424942017,-0.18849113583564758,-0.3379504084587097
1733902664853657900,3.262657958984375,0.25606900453567505,-0.1266089677810669,-0.2589709460735321
1733902664863685000,3.27268505859375,0.02925397828221321,-0.030327970162034035,-0.16828392446041107
1733902664873711000,3.282711181640625,-0.3035271167755127,0.06426738947629929,-0.21447888016700745
1733902664883738000,3.292738037109375,-0.527586817741394,0.15102438628673553,-0.26092785596847534
1733902664893764900,3.302764892578125,-0.4438175857067108,0.07737667113542557,-0.15586592257022858
1733902664903792000,3.312792236328125,-0.22286920249462128,0.04645391181111336,0.018161537125706673
1733902664913819100,3.322819091796875,-0.12029355019330978,-0.04667075350880623,0.19973702728748322
1733902664923846000,3.332845947265625,-0.14969085156917572,-0.16354037821292877,0.30177444219589233
1733902664933873000,3.342872802734375,-0.10809576511383057,-0.30557069182395935,0.4024934768676758
1733902664943900200,3.352900146484375,-0.1861354410648346,-0.40997058153152466,0.4159035384654999
1733902664953927200,3.36292724609375,-0.15941113233566284,-0.7354454398155212,0.33704695105552673
1733902664963954000,3.372953857421875,-0.13571245968341827,-1.077972412109375,0.13898418843746185
1733902664973981200,3.382981201171875,-0.096104696393013,-1.4181206226348877,-0.05276760831475258
1733902664984008200,3.39300830078125,-0.21023286879062653,-1.7683159112930298,-0.19780974090099335
1733902664994034200,3.4030341796875,-0.1686740666627884,-2.267369508743286,-0.10747940093278885
1733902665004061000,3.41306103515625,-0.16594885289669037,-2.5329835414886475,0.05021036043763161
1733902665014088200,3.423088134765625,-0.25430065393447876,-2.344193935394287,0.2090768665075302
1733902665024115200,3.433115234375,-0.26248374581336975,-2.0741121768951416,0.3425864577293396
1733902665034142000,3.443141845703125,0.04046006500720978,-1.687881588935852,0.40275248885154724
1733902665044169000,3.4531689453125,0.4919382929801941,-1.6383750438690186,0.4887256920337677
1733902665054196200,3.4631962890625,1.0640106201171875,-1.8442211151123047,0.5991113781929016
1733902665064223000,3.473222900390625,1.6626636981964111,-2.057107448577881,0.6180984377861023
1733902665074250000,3.48325,2.095839500427246,-2.0047686100006104,0.5631193518638611
1733902665084277200,3.49327734375,2.2866203784942627,-1.8045917749404907,0.5608415007591248
1733902665094304000,3.503303955078125,2.0869669914245605,-1.550526738166809,0.609359085559845
1733902665104331000,3.5133310546875,1.5248440504074097,-1.3770220279693604,0.6080506443977356
1733902665114358000,3.52335791015625,1.0876814126968384,-1.4526653289794922,0.528950572013855
1733902665124385000,3.533385009765625,0.8627455234527588,-1.434295654296875,0.28009334206581116
1733902665134411000,3.543410888671875,0.6940222978591919,-1.231494665145874,-0.016259044408798218
1733902665144438000,3.55343798828125,0.7570841312408447,-0.9116735458374023,-0.33211153745651245
1733902665154465000,3.563465087890625,1.1565624475479126,-0.950804591178894,-0.6413889527320862
1733902665164492000,3.573491943359375,1.6400047540664673,-1.0606147050857544,-0.9093586206436157
1733902665174519000,3.58351904296875,2.079744338989258,-0.885413408279419,-1.0309637784957886
1733902665184546000,3.593546142578125,2.266615629196167,-1.000784993171692,-0.9706385731697083
1733902665194572800,3.60357275390625,2.2774252891540527,-1.1404173374176025,-0.7156170606613159
1733902665204600000,3.61360009765625,1.7046403884887695,-0.23598340153694153,-0.907097578048706
1733902665214627000,3.623626953125,1.0924046039581299,0.5458232760429382,-1.023659348487854
1733902665224654000,3.633654052734375,0.19416944682598114,1.1968185901641846,-1.1025047302246094
1733902665234681000,3.64368115234375,-0.7955124378204346,1.4946483373641968,-1.7399028539657593
1733902665244708000,3.6537080078125,-1.657799243927002,0.8269387483596802,-2.3454713821411133
1733902665254735400,3.6637353515625,-2.416102647781372,-0.5063970685005188,-2.6722047328948975
1733902665264762600,3.6737626953125,-2.7659034729003906,-0.9482245445251465,-2.756948471069336
1733902665274789600,3.68378955078125,-2.789881467819214,0.3759586811065674,-2.9173784255981445
1733902665284815600,3.693815673828125,-2.8333144187927246,2.067816734313965,-3.1050238609313965
1733902665294842400,3.70384228515625,-2.6594109535217285,3.114604949951172,-3.133124828338623
1733902665304869600,3.71386962890625,-2.287015438079834,3.0010626316070557,-3.096402883529663
1733902665314896600,3.723896728515625,-1.8655951023101807,2.55582857131958,-3.0574615001678467
1733902665324923400,3.73392333984375,-1.2958557605743408,2.1918704509735107,-2.9165031909942627
1733902665334950400,3.743950439453125,-0.8844305276870728,1.6079710721969604,-2.4932403564453125
1733902665344977700,3.753977783203125,-0.5539836883544922,0.8729498982429504,-2.034808874130249
1733902665355004700,3.764004638671875,-0.3136204481124878,0.1167081966996193,-1.4814512729644775
1733902665365031400,3.774031494140625,-0.13224107027053833,-0.4146169424057007,-1.0627576112747192
1733902665375058700,3.78405859375,-0.19007569551467896,-0.6722307205200195,-0.6405250430107117
1733902665385085700,3.794085693359375,-0.28554630279541016,-0.74399334192276,-0.24847790598869324
1733902665395112400,3.804112548828125,-0.3677004277706146,-0.8021921515464783,0.15032000839710236
1733902665405139500,3.814139404296875,-0.4790719747543335,-0.8637157082557678,0.42850634455680847
1733902665415166700,3.824166748046875,-0.506359875202179,-0.9741289019584656,0.5802328586578369
1733902665425193500,3.834193359375,-0.455932080745697,-0.6733056902885437,0.5478336215019226
1733902665435219500,3.844219482421875,-0.3303872346878052,-0.37019848823547363,0.41964462399482727
1733902665445246500,3.85424658203125,-0.16172634065151215,-0.14114585518836975,0.22520749270915985
1733902665455273700,3.864273681640625,-0.10478010773658752,-0.029427051544189453,-0.04594597592949867
1733902665465300500,3.874300537109375,0.04544401913881302,0.10269928723573685,-0.31332361698150635
1733902665475327500,3.884327392578125,0.023100167512893677,0.21352262794971466,-0.5082457661628723
1733902665485354800,3.894354736328125,-0.06903348863124847,0.45669424533843994,-0.6536591053009033
1733902665495381500,3.904381591796875,-0.33013060688972473,0.935786783695221,-0.841962993144989
1733902665505408500,3.914408447265625,-0.3965455889701843,1.2277272939682007,-0.998279333114624
1733902665515435500,3.924435546875,-0.4977913200855255,1.0835751295089722,-1.1294348239898682
1733902665525462500,3.934462646484375,-0.5531328916549683,0.888871431350708,-1.2812837362289429
1733902665535489500,3.944489501953125,-0.5269380807876587,0.7133784890174866,-1.3941842317581177
1733902665545516500,3.9545166015625,-0.48676663637161255,0.741147518157959,-1.3871135711669922
1733902665555543600,3.96454345703125,-0.4533206820487976,0.9173204302787781,-1.2535600662231445
1733902665565569500,3.974569580078125,-0.3355596959590912,0.9866589903831482,-0.7631969451904297
1733902665575596500,3.984596435546875,-0.10650459676980972,0.9972063302993774,-0.3686083257198334
1733902665585623600,3.99462353515625,0.18400712311267853,0.7979166507720947,0.16095805168151855
1733902665595650600,4.004650634765625,0.48317891359329224,-0.08437930792570114,0.6549108028411865
1733902665605677600,4.014677490234375,0.7876133918762207,-1.5486379861831665,1.220368504524231
1733902665615704600,4.02470458984375,1.1178030967712402,-3.0478286743164062,1.6492748260498047
1733902665625731600,4.034731689453125,1.2640880346298218,-4.253874778747559,1.942304015159607
1733902665635758600,4.044758544921875,0.674111545085907,-5.494818210601807,2.738755226135254
1733902665645785600,4.05478564453125,-0.17320911586284637,-5.362269878387451,2.921420097351074
1733902665655812600,4.0648125,-0.769017219543457,-3.1921684741973877,2.151811361312866
1733902665665839400,4.07483935546875,-0.8298352956771851,-0.39493700861930847,0.8828113079071045
1733902665675866600,4.08486669921875,-0.4358828067779541,0.4632317125797272,-0.0498230904340744
1733902665685893600,4.0948935546875,-0.07573956251144409,0.3253665268421173,-0.43160587549209595
1733902665695919600,4.104919677734375,0.09959205240011215,0.24995294213294983,-0.4898965656757355
1733902665705946400,4.1149462890625,0.12283612787723541,0.2274247407913208,-0.3901739716529846
1733902665715973600,4.1249736328125,0.07735304534435272,0.13219600915908813,-0.25054508447647095
1733902665726000600,4.135000732421875,0.020425843074917793,-0.01194571703672409,-0.11493771523237228
1733902665736027400,4.14502734375,-0.03564291074872017,-0.11393675208091736,-0.004136986099183559
1733902665746054700,4.1550546875,-0.0763634443283081,-0.16179989278316498,0.07403850555419922
1733902665756081700,4.16508154296875,-0.1403941661119461,-0.19079303741455078,0.10605818778276443
1733902665766108400,4.1751083984375,-0.18877555429935455,-0.2053072601556778,0.08541442453861237
1733902665776135400,4.185135498046875,-0.22240830957889557,-0.09538881480693817,0.026603715494275093
1733902665786162700,4.19516259765625,-0.2376333326101303,0.07437784969806671,-0.059143416583538055
1733902665796188700,4.205188720703125,-0.25163576006889343,0.21550659835338593,-0.1549713909626007
1733902665806215400,4.21521533203125,-0.2582680881023407,0.2883419096469879,-0.23944738507270813
1733902665816242400,4.225242431640625,-0.2477504312992096,0.24052980542182922,-0.2851935923099518
1733902665826269700,4.235269775390625,-0.22403843700885773,0.07157408446073532,-0.278189480304718
1733902665836296400,4.24529638671875,-0.20206819474697113,-0.04912828654050827,-0.22855259478092194
1733902665846323500,4.255323486328125,-0.17239099740982056,-0.09626784175634384,-0.14372745156288147
1733902665856350700,4.265350830078125,-0.15001390874385834,-0.08752042800188065,-0.03967960178852081
1733902665866377500,4.27537744140625,-0.1225292906165123,0.007831661961972713,0.055381398648023605
1733902665876404500,4.285404541015625,-0.07004361599683762,0.06788016110658646,0.1219823807477951
1733902665886431500,4.295431396484375,-0.01798015460371971,0.06913664191961288,0.14540301263332367
1733902665896458800,4.305458740234375,0.006966011598706245,0.045626651495695114,0.1275971233844757
1733902665906484500,4.315484375,0.0053116558119654655,0.04001031070947647,0.086394302546978
1733902665916511500,4.325511474609375,-0.018006449565291405,0.04031124711036682,0.0487784817814827
1733902665926538500,4.33553857421875,-0.04948874190449715,0.03898072987794876,0.03774713724851608
1733902665936565800,4.345565673828125,-0.07310520857572556,0.03725757449865341,0.04210718721151352
1733902665946592500,4.355592529296875,-0.08386437594890594,0.030042536556720734,0.051837578415870667
1733902665956619500,4.36561962890625,-0.07849240303039551,0.02049221843481064,0.06367363780736923
1733902665966646500,4.375646484375,-0.060613807290792465,0.020042944699525833,0.06478923559188843
1733902665976673500,4.385673583984375,-0.04266433045268059,0.030840663239359856,0.05789364501833916
1733902665986700500,4.395700439453125,-0.1537351906299591,0.054597388952970505,0.15753768384456635
1733902665996726500,4.4057265625,-0.1597588211297989,0.04048094525933266,0.17353546619415283
1733902666006753500,4.41575341796875,-0.11841963231563568,0.042967539280653,0.1391628533601761
1733902666016780500,4.425780517578125,-0.06066536903381348,0.058667898178100586,0.09606102108955383
1733902666026807600,4.4358076171875,0.0011338174808770418,0.06683527678251266,0.03772633895277977
1733902666036834600,4.44583447265625,0.022013496607542038,0.08863251656293869,0.01863533817231655
1733902666046861600,4.455861572265625,-0.008997946977615356,0.08753050118684769,0.02387271076440811
1733902666056888600,4.465888671875,-0.06039984151721001,0.043810635805130005,0.008463822305202484
1733902666066915600,4.47591552734375,-0.10423173755407333,0.017020832747220993,0.03443203866481781
1733902666076942300,4.4859423828125,-0.09301292151212692,0.02564656175673008,0.08810136467218399
1733902666086968600,4.495968505859375,0.04949042946100235,0.06325811892747879,0.1389126032590866
1733902666096995600,4.50599560546875,-0.008273085579276085,-0.010971198789775372,0.20541219413280487
1733902666107022600,4.516022705078125,0.08565634489059448,0.045478228479623795,0.2088647186756134
1733902666117049300,4.52604931640625,0.11947523057460785,0.08280574530363083,0.22072966396808624
1733902666127076600,4.53607666015625,0.1594759076833725,0.14975309371948242,0.21998876333236694
1733902666137103600,4.546103515625,-0.12461245805025101,-0.1299026906490326,-0.0009499641600996256
1733902666147130400,4.55613037109375,-0.2838548421859741,0.12565691769123077,0.0950295627117157
1733902666157157600,4.56615771484375,-0.4305405020713806,0.15667518973350525,-0.08176765590906143
1733902666167184600,4.5761845703125,-0.29310062527656555,0.4401564300060272,-0.1097462996840477
1733902666177210600,4.586210693359375,-0.1705402135848999,0.4364839494228363,-0.2317230999469757
1733902666187237400,4.5962373046875,-0.11731507629156113,0.3706543445587158,-0.30813291668891907
1733902666197264400,4.606264404296875,-0.14941667020320892,0.25533780455589294,-0.377021849155426
1733902666207291600,4.616291748046875,-0.24889825284481049,0.1761372834444046,-0.4414554834365845
1733902666217318700,4.626318603515625,-0.3585079312324524,0.11531563848257065,-0.5552273988723755
1733902666227345400,4.636345458984375,-0.3114543855190277,0.3300934433937073,-0.559436023235321
1733902666237372700,4.64637255859375,0.042581915855407715,0.5613475441932678,-0.27470162510871887
1733902666247399700,4.656399658203125,0.4055073857307434,0.33317509293556213,0.16517853736877441
1733902666257425700,4.66642578125,0.3374800384044647,-0.1839948445558548,0.34585732221603394
1733902666267452400,4.676452392578125,-0.026550384238362312,-0.5459610223770142,0.2331712394952774
1733902666277479700,4.686479736328125,-0.9903282523155212,-1.2143349647521973,0.862855076789856
1733902666287506700,4.696506591796875,-0.9400975704193115,-0.950991153717041,1.1888858079910278
1733902666297533400,4.706533447265625,-0.44975200295448303,0.2501574158668518,0.6522983908653259
1733902666307560400,4.716560546875,-0.6250007748603821,0.35552778840065,0.571962296962738
1733902666317587700,4.726587646484375,-0.8664588332176208,0.3717353641986847,0.4017924666404724
1733902666327614500,4.736614501953125,-0.8459000587463379,0.10695592314004898,0.3236750364303589
1733902666337640400,4.746640380859375,-0.6210487484931946,-0.22909200191497803,0.20785146951675415
1733902666347667500,4.75666748046875,-0.38930338621139526,-0.3805355727672577,0.010326148942112923
1733902666357694700,4.76669482421875,-0.26925817131996155,-0.36720019578933716,-0.16525797545909882
1733902666367721500,4.776721435546875,-0.2835114300251007,-0.18555261194705963,-0.2796338200569153
1733902666377748500,4.78674853515625,-0.3515816926956177,0.07292616367340088,-0.36256515979766846
1733902666387775700,4.796775634765625,-0.3825811445713043,0.3245624005794525,-0.35475224256515503
1733902666397802500,4.806802490234375,-0.4448802173137665,0.43437108397483826,-0.26917609572410583
1733902666407829500,4.81682958984375,-0.5450353026390076,0.39448225498199463,-0.12790045142173767
1733902666417855500,4.82685546875,-0.665294885635376,0.31457850337028503,0.06524026393890381
1733902666427882500,4.836882568359375,-0.779010534286499,0.16470111906528473,0.22567200660705566
1733902666437909500,4.846909423828125,-0.8690599203109741,-0.013095703907310963,0.34326425194740295
1733902666447936500,4.8569365234375,-0.8943653106689453,-0.19591985642910004,0.404903382062912
1733902666457963500,4.866963623046875,-0.8754400014877319,-0.34398970007896423,0.41327279806137085
1733902666467990500,4.876990478515625,-0.7928769588470459,-0.40868401527404785,0.3658677339553833
1733902666478017500,4.887017578125,-0.6553134322166443,-0.4243907630443573,0.2513104975223541
1733902666488043500,4.89704345703125,-0.5288093090057373,-0.36082589626312256,0.08408769965171814
1733902666498070500,4.907070556640625,-0.43681880831718445,-0.2525274455547333,-0.13609783351421356
1733902666508097500,4.91709765625,-0.34454238414764404,-0.10781712830066681,-0.37406301498413086
1733902666518124500,4.92712451171875,-0.2689841389656067,0.06253628432750702,-0.5745354890823364
1733902666528151600,4.937151611328125,-0.18766692280769348,0.23575814068317413,-0.7224695682525635
1733902666538178600,4.947178466796875,-0.07122703641653061,0.36577746272087097,-0.8324151039123535
1733902666548205600,4.95720556640625,0.07999550551176071,0.46888628602027893,-0.927343487739563
1733902666558232600,4.967232666015625,0.22191792726516724,0.5206775069236755,-0.9716467261314392
1733902666568258600,4.977258544921875,0.40565818548202515,0.5093745589256287,-0.9613054394721985
1733902666578285600,4.98728564453125,0.5812138915061951,0.3399182856082916,-0.8091135025024414
1733902666588312600,4.9973125,0.7241219878196716,0.11138496547937393,-0.5665106773376465
1733902666598339600,5.007339599609375,0.8165138959884644,-0.07149948179721832,-0.295417457818985
1733902666608366600,5.01736669921875,0.8250647783279419,-0.12601597607135773,-0.06507693231105804
1733902666618393600,5.0273935546875,0.7456756234169006,-0.09087437391281128,0.10491741448640823
1733902666628420600,5.037420654296875,0.6103218197822571,-0.029955096542835236,0.20878496766090393
1733902666638446600,5.047446533203125,0.4338361620903015,0.006331626325845718,0.2578524649143219
1733902666648473600,5.0574736328125,0.24922265112400055,0.02474845014512539,0.24693672358989716
1733902666658500400,5.067500244140625,0.08662061393260956,-0.012237575836479664,0.19091080129146576
1733902666668527600,5.077527587890625,-0.03462618961930275,-0.022815119475126266,0.07263315469026566
1733902666678554600,5.0875546875,-0.04838869720697403,-0.021412575617432594,-0.06698648631572723
1733902666688581400,5.097581298828125,-0.014830737374722958,-0.01512431912124157,-0.15449263155460358
1733902666698608600,5.107608642578125,0.011147662065923214,0.00447853934019804,-0.16376893222332
1733902666708634600,5.117634521484375,0.028221985325217247,0.03140150010585785,-0.131077840924263
1733902666718661600,5.12766162109375,0.03560885414481163,0.008558681234717369,-0.07132966071367264
1733902666728688400,5.1376884765625,0.03798013553023338,-0.00596912857145071,-0.0157454926520586
1733902666738715600,5.147715576171875,0.038683079183101654,-0.0083443783223629,0.015926886349916458
1733902666748742700,5.15774267578125,0.03419831767678261,-0.01688460260629654,0.026494041085243225
1733902666758769400,5.167769287109375,0.02671622298657894,-0.016969161108136177,0.019982896745204926
1733902666768796400,5.17779638671875,0.017291828989982605,-0.013790145516395569,0.014485333114862442
1733902666778822700,5.18782275390625,0.010697069577872753,-0.00931287556886673,0.007276484742760658
1733902666788849700,5.197849609375,0.011590293608605862,-0.00831818487495184,0.005474589765071869
1733902666798876400,5.20787646484375,0.014081604778766632,-0.0019344817847013474,-0.00620862003415823
1733902666808903400,5.2179033203125,0.011974778026342392,0.0038128860760480165,-0.013867605477571487
1733902666818930700,5.2279306640625,0.010501335375010967,0.011661316268146038,-0.02307354286313057
1733902666828957400,5.23795751953125,0.011731715872883797,0.015692809596657753,-0.022727597504854202
1733902666838984400,5.247984375,0.015031293034553528,0.007200474850833416,-0.019414562731981277
1733902666849010400,5.258010498046875,0.0163080133497715,-0.004138199612498283,-0.015103437006473541
1733902666859037700,5.26803759765625,0.012791983783245087,-0.010616114363074303,-0.013911844231188297
1733902666869064400,5.278064453125,0.008855031803250313,-0.015759211033582687,-0.012386651709675789
1733902666879091500,5.288091552734375,0.005190424621105194,-0.029952337965369225,-0.013067731633782387
1733902666889118500,5.298118408203125,0.00377495470456779,-0.043609291315078735,-0.012259728275239468
1733902666899145700,5.308145751953125,0.0038987542502582073,-0.040658459067344666,-0.015823133289813995
1733902666909172500,5.31817236328125,0.00421673571690917,-0.02972964383661747,-0.02137688919901848
1733902666919198500,5.328198486328125,0.005699135363101959,-0.014927168376743793,-0.02540644071996212
1733902666929225500,5.3382255859375,0.006342821754515171,-0.00963813066482544,-0.022585086524486542
1733902666939252700,5.348252685546875,0.009004658088088036,-0.01229112409055233,-0.00811599101871252
1733902666949279500,5.358279541015625,0.0077231451869010925,-0.017330890521407127,0.004225629381835461
1733902666959306500,5.368306396484375,0.008814468048512936,-0.023566627874970436,0.014774849638342857
1733902666969333800,5.378333740234375,0.0077300285920500755,-0.01872260496020317,0.01485474407672882
1733902666979360500,5.388360595703125,0.005417970009148121,-0.011321336030960083,0.008533041924238205
1733902666989386500,5.398386474609375,0.0005744786467403173,-0.0037768674083054066,0.003251461312174797
1733902666999413500,5.40841357421875,-0.0006851252401247621,0.0016752681694924831,0.0027028974145650864
1733902667009440800,5.418440673828125,-0.0012105669593438506,0.004970663692802191,0.002236311323940754
1733902667019467500,5.428467529296875,0.0008602940943092108,0.002942684106528759,0.004640049301087856
1733902667029494500,5.43849462890625,0.007546958513557911,-0.001939156325533986,0.007364196702837944
1733902667039521500,5.448521484375,0.012817968614399433,-0.001819420955143869,0.010441400110721588
1733902667049547500,5.458547607421875,0.01607448048889637,-0.00407272158190608,0.009771348908543587
1733902667059574500,5.468574462890625,0.012873110361397266,-0.003749697934836149,0.006877322215586901
1733902667069601500,5.4786015625,0.011731146834790707,-0.0022801656741648912,0.0004844043869525194
1733902667079628500,5.488628662109375,0.01062419917434454,0.0037047965452075005,-0.008671106770634651
1733902667089655600,5.498655517578125,0.00981486402451992,0.00914723239839077,-0.014876537956297398
1733902667099682600,5.5086826171875,0.011109859682619572,0.010686932131648064,-0.014970764517784119
1733902667109709600,5.51870947265625,0.011659801937639713,0.011236608028411865,-0.010642861016094685
1733902667119735600,5.528735595703125,0.014458885416388512,0.014455445110797882,-0.008297997526824474
1733902667129762600,5.538762451171875,0.01872446946799755,0.014128942042589188,-0.00474960170686245
1733902667139789600,5.54878955078125,0.021375617012381554,0.009480963461101055,-0.0020457557402551174
1733902667149816600,5.558816650390625,0.023113328963518143,0.004225481301546097,-0.0019504143856465816
1733902667159843300,5.56884326171875,0.023456932976841927,-0.004546308424323797,-0.000280862208455801
1733902667169870600,5.57887060546875,0.020968742668628693,-0.012751507572829723,0.00278789852745831
1733902667179896600,5.588896484375,0.018105536699295044,-0.016898198053240776,0.0030526304617524147
1733902667189923600,5.598923583984375,0.01566474884748459,-0.016842804849147797,-0.0014158873818814754
1733902667199950300,5.608950439453125,0.012732609175145626,-0.015099499374628067,-0.0051046316511929035
1733902667209977600,5.6189775390625,0.014876719564199448,-0.008847728371620178,-0.00647003436461091
1733902667220004600,5.629004638671875,0.013962754048407078,-0.004907884635031223,-0.006908595561981201
1733902667230031600,5.639031494140625,0.019796140491962433,-0.009660029783844948,-0.0044670095667243
1733902667240058600,5.64905859375,0.02069588005542755,-0.010547417216002941,-0.003001939970999956
1733902667250084600,5.659084716796875,0.022150497883558273,-0.014944029040634632,-0.000044765882194042206
1733902667260111600,5.669111572265625,0.021797800436615944,-0.018660079687833786,0.002423500409349799
1733902667270138600,5.679138671875,0.022833237424492836,-0.019078994169831276,0.0018336100038141012
1733902667280165600,5.68916552734375,0.02173633687198162,-0.017875786870718002,-0.0008474289206787944
1733902667290192600,5.699192626953125,0.022382952272892,-0.01997302658855915,-0.010760779492557049
1733902667300219600,5.7092197265625,0.02105746790766716,-0.024549365043640137,-0.02021852508187294
1733902667310245600,5.71924560546875,0.018182052299380302,-0.0242052860558033,-0.02960377000272274
1733902667320272600,5.729272705078125,0.015688946470618248,-0.024722982197999954,-0.036294497549533844
1733902667330299600,5.739299560546875,0.014603707939386368,-0.025633251294493675,-0.03426516801118851
1733902667340326700,5.74932666015625,0.015773992985486984,-0.021579904481768608,-0.029839523136615753
1733902667350353700,5.759353759765625,0.018009183928370476,-0.015622146427631378,-0.026046648621559143
1733902667360380700,5.769380615234375,0.024887291714549065,-0.006675406359136105,-0.022698508575558662
1733902667370407700,5.77940771484375,0.02707800641655922,0.002292788587510586,-0.019222816452383995
1733902667380433700,5.78943359375,0.02842525579035282,0.008305727504193783,-0.021216019988059998
1733902667390460700,5.799460693359375,0.025192445144057274,0.008347539231181145,-0.021748386323451996
1733902667400487700,5.80948779296875,0.02199169062077999,0.009914353489875793,-0.022833779454231262
1733902667410514700,5.8195146484375,0.019201762974262238,0.009377993643283844,-0.02240394614636898
1733902667420541400,5.82954150390625,0.021140767261385918,0.006801704876124859,-0.01890784129500389
1733902667430568700,5.839568603515625,0.02506387047469616,0.0030716818291693926,-0.014431333169341087
1733902667440594700,5.8495947265625,0.03086162731051445,-0.005721615627408028,-0.0096841249614954
1733902667450621700,5.85962158203125,0.035178348422050476,-0.011662594974040985,-0.005930665880441666
1733902667460648400,5.8696484375,0.03636191040277481,-0.01660928502678871,-0.006012940779328346
1733902667470675700,5.87967578125,0.036565642803907394,-0.015112590044736862,-0.00831737369298935
1733902667480702700,5.88970263671875,0.03245176374912262,-0.007495430298149586,-0.008369042538106441
1733902667490729500,5.8997294921875,0.031158799305558205,0.0006943228654563427,-0.008399669080972672
1733902667500755500,5.90975537109375,0.03185500204563141,0.0031781180296093225,-0.007788988761603832
1733902667510782700,5.91978271484375,0.03042328916490078,0.006094013340771198,-0.009324567392468452
1733902667520809700,5.929809814453125,0.030849924311041832,0.00360076199285686,-0.008188196457922459
1733902667530836500,5.93983642578125,0.030469628050923347,-0.01339579839259386,-0.006427048705518246
1733902667540863500,5.949863525390625,0.02676762081682682,-0.027495507150888443,-0.006304525770246983
1733902667550890800,5.959890869140625,0.02254624292254448,-0.0322849340736866,-0.009064359590411186
1733902667560917500,5.96991748046875,0.01728719286620617,-0.027796974405646324,-0.012321705929934978
1733902667570943500,5.979943603515625,0.011860202997922897,-0.020145712420344353,-0.013658879324793816
1733902667580970500,5.989970458984375,0.009518005885183811,-0.009667905047535896,-0.014414667151868343
1733902667590997800,5.999997802734375,0.010577677749097347,-0.0003271343884989619,-0.012067090719938278
1733902667601024500,6.0100244140625,0.013588892295956612,0.005234709475189447,-0.010607901960611343
1733902667611051500,6.020051513671875,0.01894078217446804,0.006533532869070768,-0.008794555440545082
1733902667621078800,6.030078857421875,0.023473583161830902,0.007408990990370512,-0.011272251605987549
1733902667631104800,6.040104736328125,0.02291325107216835,0.0027074459940195084,-0.013984148390591145
1733902667641131500,6.050131591796875,0.024827349931001663,-0.0011971858330070972,-0.014215763658285141
1733902667651158500,6.060158447265625,0.018343083560466766,-0.008113681338727474,-0.015013913623988628
1733902667661185800,6.070185791015625,0.012228833511471748,-0.01490652933716774,-0.017652198672294617
1733902667671212800,6.080212890625,0.007841276004910469,-0.017212294042110443,-0.021253325045108795
1733902667681239600,6.090239501953125,0.0021266534458845854,-0.020498964935541153,-0.02093598060309887
1733902667691265500,6.100265625,0.0012070639058947563,-0.014681288041174412,-0.019041940569877625
1733902667701292500,6.11029248046875,0.001859468873590231,-0.00821562111377716,-0.014162133447825909
1733902667711319800,6.12031982421875,0.005638228263705969,-0.001789679634384811,-0.008651521056890488
1733902667721346600,6.1303466796875,0.011219447478652,0.002028300194069743,-0.00736689567565918
1733902667731373600,6.14037353515625,0.013580871745944023,0.0036328549031168222,-0.006345306523144245
1733902667741400800,6.15040087890625,0.012860868126153946,0.002859797328710556,-0.008239739574491978
1733902667751426800,6.1604267578125,0.010517818853259087,-0.0010899367043748498,-0.0100922342389822
1733902667761453600,6.17045361328125,0.009446162730455399,-0.003313143737614155,-0.013228905387222767
1733902667771480600,6.18048046875,0.010556701570749283,-0.0017104533035308123,-0.01149944867938757
1733902667781507800,6.1905078125,0.011111238040030003,-0.0031254650093615055,-0.012280432507395744
1733902667791534600,6.20053466796875,0.010293114930391312,-0.0038602310232818127,-0.013671135529875755
1733902667801561600,6.2105615234375,0.009312890470027924,-0.004898048937320709,-0.01555132120847702
1733902667811587600,6.220587646484375,0.008252952247858047,-0.006596080958843231,-0.01579553447663784
1733902667821614800,6.23061474609375,0.006481249816715717,-0.005008493550121784,-0.014996742829680443
1733902667831641600,6.2406416015625,0.009320445358753204,-0.001090451143682003,-0.013814832083880901
1733902667841668600,6.250668701171875,0.0064374906942248344,0.0019569878932088614,-0.009526083245873451
1733902667851695600,6.260695556640625,0.005938148126006126,0.0037184027023613453,-0.0036295787431299686
1733902667861722600,6.27072265625,0.0071704089641571045,0.006795588415116072,0.003209909424185753
1733902667871749600,6.28074951171875,0.0063091423362493515,0.004368383437395096,0.006804377771914005
1733902667881775600,6.290775634765625,0.006618470884859562,0.0024303607642650604,0.009618103504180908
1733902667891802600,6.300802734375,0.007297842763364315,0.00423385389149189,0.010554471984505653
1733902667901829600,6.31082958984375,0.00877150148153305,0.008649680763483047,0.010245448909699917
1733902667911856600,6.320856689453125,0.009887365624308586,0.009093895554542542,0.0028162943199276924
1733902667921883600,6.330883544921875,0.011541871353983879,0.00962069071829319,0.000509397592395544
1733902667931910400,6.340910400390625,0.010363688692450523,0.007426245138049126,0.0012689311988651752
1733902667941936600,6.3509365234375,0.007687228731811047,0.003167221089825034,0.0020625111646950245
1733902667951963600,6.360963623046875,0.008500025607645512,0.0016545455437153578,0.0029988782480359077
1733902667961990700,6.37099072265625,0.007189515978097916,0.00038737663999199867,0.0026279606390744448
1733902667972017400,6.381017333984375,0.008567702025175095,-0.0025106752291321754,0.00150117720477283
1733902667982044700,6.391044677734375,0.006349305622279644,-0.004562659189105034,0.001221575541421771
1733902667992071700,6.40107177734375,0.0046494100242853165,-0.004694486036896706,0.0017976171802729368
1733902668002097700,6.41109765625,0.004947718232870102,0.00009216368198394775,0.0012836151290684938
1733902668012124400,6.42112451171875,0.005118160508573055,0.0057716211304068565,-0.000968886655755341
1733902668022151700,6.431151611328125,0.004793237894773483,0.013039485551416874,-0.000142199220135808
1733902668032178700,6.4411787109375,0.005870219320058823,0.015563629567623138,-0.00015391712076961994
1733902668042205700,6.451205810546875,0.004014579113572836,0.017957409843802452,0.0038805236108601093
1733902668052232700,6.461232666015625,0.005343229975551367,0.014144029468297958,0.006692821625620127
1733902668062258700,6.4712587890625,0.00668834475800395,0.011494506150484085,0.010649389587342739
1733902668072285700,6.48128564453125,0.004149020183831453,0.006098142825067043,0.01218496821820736
1733902668082312700,6.491312744140625,0.003603188320994377,0.0035725380294024944,0.010895410552620888
1733902668092339500,6.50133935546875,-0.0025143588427454233,0.005959262605756521,0.008865016512572765
1733902668102366700,6.51136669921875,-0.004460548050701618,0.007021463476121426,0.003686252050101757
1733902668112393700,6.521393798828125,-0.005591060034930706,0.01171182282269001,-0.00023312191478908062
1733902668122419700,6.531419677734375,-0.0031395866535604,0.020290814340114594,0.0010342644527554512
1733902668132446500,6.541446533203125,0.00029349420219659805,0.0271921306848526,0.0027709119021892548
1733902668142473700,6.5514736328125,0.007699528709053993,0.031174831092357635,0.011902982369065285
1733902668152500700,6.561500732421875,0.012936102226376534,0.02476859837770462,0.016614381223917007
1733902668162527500,6.571527587890625,0.018271196633577347,0.020526466891169548,0.01998058706521988
1733902668172554800,6.5815546875,0.01570870168507099,0.0216284841299057,0.014408719725906849
1733902668182580700,6.591580810546875,0.012863865122199059,0.018658846616744995,0.006874013692140579
1733902668192607700,6.601607666015625,0.008221975527703762,0.0180327370762825,-0.0036372169852256775
1733902668202634500,6.611634521484375,0.0025705976877361536,0.018200121819972992,-0.00041857536416500807
1733902668212661800,6.621661865234375,0.00000943569466471672,0.020459813997149467,0.002502912189811468
1733902668222688800,6.631688720703125,-0.0020037158392369747,0.028169473633170128,0.009893862530589104
1733902668232715500,6.641715576171875,0.0038850661367177963,0.02353637106716633,0.01854141429066658
1733902668242741500,6.651741455078125,0.009032906964421272,0.012196499854326248,0.022503379732370377
1733902668252768000,6.66176806640625,0.01500371377915144,0.01081964559853077,0.018579479306936264
1733902668262795300,6.671795166015625,0.015956994146108627,0.018909567967057228,0.011119334027171135
1733902668272822000,6.681822021484375,0.01602543704211712,0.025346163660287857,0.009690813720226288
1733902668282849000,6.69184912109375,0.015115904621779919,0.029510166496038437,0.01566210389137268
1733902668292876300,6.701876220703125,0.01569061353802681,0.029929351061582565,0.029651956632733345
1733902668302902300,6.71190234375,0.014635083265602589,0.024603769183158875,0.04174469783902168
1733902668312929300,6.72192919921875,0.01630302332341671,0.020997049286961555,0.04981540888547897
1733902668322956000,6.7319560546875,0.01542342733591795,0.014606127515435219,0.051676977425813675
1733902668332983000,6.741983154296875,0.01494432520121336,0.01241328101605177,0.051670052111148834
1733902668343010300,6.75201025390625,0.012687794864177704,0.012017039582133293,0.04787498712539673
1733902668353037000,6.762037109375,0.009678157046437263,0.015233339741826057,0.04721399024128914
1733902668363063000,6.77206298828125,0.0034037171863019466,0.01576920412480831,0.0457497276365757
1733902668373090000,6.782090087890625,0.001651090569794178,0.015384377911686897,0.04611191526055336
1733902668383117300,6.792117431640625,-0.005276990123093128,0.016918398439884186,0.04401271417737007
1733902668393144000,6.80214404296875,-0.005630125291645527,0.014369485899806023,0.04057084769010544
1733902668403171000,6.812171142578125,-0.007995209656655788,0.014336921274662018,0.03749288246035576
1733902668413197000,6.822197021484375,-0.005249490961432457,0.014944653958082199,0.034565269947052
1733902668423224300,6.832224365234375,-0.004846506752073765,0.014093374833464622,0.034273941069841385
1733902668433251000,6.8422509765625,-0.002710118656978011,0.015130143612623215,0.03691047057509422
1733902668443278000,6.852278076171875,-0.004082794766873121,0.01708267815411091,0.03404855728149414
1733902668453305300,6.862305419921875,-0.010461864061653614,0.01854235678911209,0.03620651736855507
1733902668463332000,6.87233203125,-0.01430051214993,0.021949755027890205,0.04088754206895828
1733902668473358000,6.882358154296875,-0.01586432009935379,0.02750457637012005,0.04826636239886284
1733902668483385000,6.892385009765625,-0.020965805277228355,0.037893492728471756,0.05405326932668686
1733902668493412000,6.902412109375,-0.024682512506842613,0.04362834617495537,0.05646982043981552
1733902668503439000,6.912439208984375,-0.024495625868439674,0.050941191613674164,0.049695681780576706
1733902668513466000,6.922466064453125,-0.026348918676376343,0.05515298247337341,0.03732769563794136
1733902668523493000,6.9324931640625,-0.025824427604675293,0.05275726318359375,0.022060465067625046
1733902668533519000,6.94251904296875,-0.021509572863578796,0.050621405243873596,0.010251211002469063
1733902668543546000,6.952546142578125,-0.013877402991056442,0.049163952469825745,0.006741509772837162
1733902668553573000,6.962572998046875,-0.005695372819900513,0.04474763199687004,0.006179050542414188
1733902668563600100,6.97260009765625,-0.0038884012028574944,0.040212251245975494,0.005053361877799034
1733902668573627100,6.982627197265625,-0.007421351037919521,0.04001703858375549,0.0031465385109186172
1733902668583654100,6.992654052734375,-0.010448398999869823,0.04113948345184326,-0.002048865193501115
1733902668593680100,7.00268017578125,-0.015731045976281166,0.04171472787857056,-0.0031122653745114803
1733902668603707100,7.01270703125,-0.022548969835042953,0.045348040759563446,-0.0025249780155718327
1733902668613734100,7.022734130859375,-0.024367377161979675,0.04542873799800873,0.0025363594759255648
1733902668623761200,7.03276123046875,-0.024996131658554077,0.044581033289432526,0.008225700818002224
1733902668633788200,7.0427880859375,-0.023125261068344116,0.04172399267554283,0.008241945877671242
1733902668643815200,7.052815185546875,-0.023157300427556038,0.041692737489938736,0.010253884829580784
1733902668653841000,7.0628408203125,-0.021088557317852974,0.04447254538536072,0.004199720919132233
1733902668663868200,7.0728681640625,-0.017693310976028442,0.04403793811798096,0.006288141943514347
1733902668673895200,7.082895263671875,-0.013269001618027687,0.040782488882541656,0.012222463265061378
1733902668683922200,7.092922119140625,-0.0064287735149264336,0.03917759284377098,0.022028647363185883
1733902668693949200,7.10294921875,-0.0006867317715659738,0.03645637631416321,0.03640465438365936
1733902668703976200,7.11297607421875,0.0032256010454148054,0.03567734360694885,0.04586699604988098
1733902668714002200,7.123002197265625,0.005337221547961235,0.03680066764354706,0.04939248785376549
1733902668724029200,7.133029296875,0.00587446428835392,0.0410170778632164,0.049622129648923874
1733902668734056200,7.14305615234375,0.009747765958309174,0.036520861089229584,0.042046502232551575
1733902668744083200,7.153083251953125,0.01721564121544361,0.02333623729646206,0.034244686365127563
1733902668754110200,7.163110107421875,0.026753753423690796,0.004746573977172375,0.026301540434360504
1733902668764137000,7.173136962890625,0.03543813154101372,-0.02198142558336258,0.02395770326256752
1733902668774163000,7.183162841796875,0.035238660871982574,-0.04473573714494705,0.028061900287866592
1733902668784190200,7.193190185546875,0.026189476251602173,-0.06179237365722656,0.0246442761272192
1733902668794217200,7.20321728515625,0.021552380174398422,-0.06482305377721786,0.01688728667795658
1733902668804244000,7.213243896484375,0.013050539419054985,-0.057681288570165634,-0.0019494583830237389
1733902668814271200,7.223271240234375,0.011746656149625778,-0.0541217103600502,-0.03129269927740097
1733902668824298200,7.23329833984375,0.003496359335258603,-0.04790082946419716,-0.06339608132839203
1733902668834324200,7.24332421875,0.000015341443940997124,-0.043970003724098206,-0.09241654723882675
1733902668844351000,7.25335107421875,-0.00009902892634272575,-0.04249919578433037,-0.11266576498746872
1733902668854378200,7.263378173828125,0.0025372342206537724,-0.049576811492443085,-0.1185673326253891
1733902668864405200,7.2734052734375,0.010596455074846745,-0.06000251695513725,-0.12538933753967285
1733902668874432000,7.283431884765625,0.022539135068655014,-0.06602312624454498,-0.13175642490386963
1733902668884458000,7.2934580078125,0.031710509210824966,-0.07061785459518433,-0.14231988787651062
1733902668894485200,7.3034853515625,0.03644561022520065,-0.08739497512578964,-0.15551957488059998
1733902668904512300,7.31351220703125,0.03403051942586899,-0.10992269217967987,-0.16391882300376892
1733902668914539000,7.3235390625,0.025538498535752296,-0.13088549673557281,-0.16004924476146698
1733902668924566000,7.33356591796875,0.014792490750551224,-0.13452845811843872,-0.14379937946796417
1733902668934593300,7.34359326171875,0.0015986589714884758,-0.12459060549736023,-0.11889082193374634
1733902668944619300,7.353619384765625,-0.0077285729348659515,-0.11379952728748322,-0.09426265954971313
1733902668954646000,7.36364599609375,-0.014788879081606865,-0.11798442155122757,-0.07999584078788757
1733902668964673000,7.373673095703125,-0.023653164505958557,-0.12172922492027283,-0.06894104182720184
1733902668974700300,7.3837001953125,-0.02830011397600174,-0.11667881160974503,-0.061894845217466354
1733902668984727000,7.39372705078125,-0.0294728334993124,-0.10085000842809677,-0.05265244469046593
1733902668994754000,7.403754150390625,-0.024320948868989944,-0.08518795669078827,-0.04294522479176521
1733902669004780000,7.413780029296875,-0.0130409374833107,-0.07629859447479248,-0.03816770017147064
1733902669014807300,7.423807373046875,-0.0005003777332603931,-0.07803524285554886,-0.04003963619470596
1733902669024834000,7.433833984375,0.00730894785374403,-0.08656948804855347,-0.048489607870578766
1733902669034861000,7.443861083984375,0.016704848036170006,-0.09916570782661438,-0.06249623745679855
1733902669044888000,7.45388818359375,0.021596256643533707,-0.11194007843732834,-0.08097780495882034
1733902669054915000,7.4639150390625,0.02419630065560341,-0.11366740614175797,-0.11039348691701889
1733902669064941000,7.473941162109375,0.02490854822099209,-0.11228037625551224,-0.14842835068702698
1733902669074968000,7.483968017578125,0.022777752950787544,-0.11265800893306732,-0.1845216304063797
1733902669084995000,7.4939951171875,0.016446998342871666,-0.1164676770567894,-0.21126343309879303
1733902669095022000,7.50402197265625,0.013845623470842838,-0.12407553195953369,-0.22326630353927612
1733902669105049000,7.514049072265625,0.010504602454602718,-0.1243572011590004,-0.21536166965961456
1733902669115076000,7.524076171875,0.01000312902033329,-0.11691659688949585,-0.19679464399814606
1733902669125102000,7.53410205078125,0.007516023237258196,-0.11477268487215042,-0.17746584117412567
1733902669135129000,7.544129150390625,-0.000562409870326519,-0.12801845371723175,-0.1642933040857315
1733902669145156000,7.554156005859375,-0.014047077856957912,-0.15383166074752808,-0.15232056379318237
1733902669155183000,7.56418310546875,-0.020396852865815163,-0.16791179776191711,-0.13897466659545898
1733902669165210000,7.574210205078125,-0.015362128615379333,-0.16415062546730042,-0.1255112886428833
1733902669175236400,7.584236328125,-0.006307647563517094,-0.1487828642129898,-0.11112117022275925
1733902669185263000,7.59426318359375,0.014509106986224651,-0.11690133810043335,-0.10131973773241043
1733902669195290000,7.6042900390625,0.028148487210273743,-0.09000660479068756,-0.09895218908786774
1733902669205317000,7.614317138671875,0.038960911333560944,-0.08033861219882965,-0.10548365861177444
1733902669215344000,7.62434423828125,0.043836094439029694,-0.08941012620925903,-0.11104514449834824
1733902669225371100,7.63437109375,0.0467219315469265,-0.11578052490949631,-0.10911695659160614
1733902669235397000,7.644397216796875,0.04549208655953407,-0.1413138508796692,-0.10016820579767227
1733902669245424000,7.654424072265625,0.034442558884620667,-0.18124185502529144,-0.09451991319656372
1733902669255451600,7.66445166015625,0.02374170906841755,-0.21973198652267456,-0.08055482804775238
1733902669265478700,7.674478759765625,0.0027733647730201483,-0.2807004749774933,-0.06550852209329605
1733902669275505700,7.684505615234375,-0.02394799329340458,-0.34374600648880005,-0.048372942954301834
1733902669285532700,7.69453271484375,-0.05810745060443878,-0.3713737726211548,-0.03298528492450714
1733902669295558700,7.70455859375,-0.09556108713150024,-0.36301225423812866,-0.023585127666592598
1733902669305585700,7.714585693359375,-0.12613645195960999,-0.31630992889404297,-0.030689503997564316
1733902669315612700,7.72461279296875,-0.1403859555721283,-0.2784477770328522,-0.05458684638142586
1733902669325639700,7.7346396484375,-0.14788322150707245,-0.27936920523643494,-0.08506324887275696
1733902669335666700,7.744666748046875,-0.15184439718723297,-0.2773689329624176,-0.10534109175205231
1733902669345692700,7.754692626953125,-0.1476360410451889,-0.2220441699028015,-0.12808656692504883
1733902669355719700,7.7647197265625,-0.13375324010849,-0.15590402483940125,-0.15721754729747772
1733902669365746700,7.77474658203125,-0.11375372111797333,-0.12528644502162933,-0.18333706259727478
1733902669375773700,7.784773681640625,-0.0991382971405983,-0.13430418074131012,-0.19742785394191742
1733902669385800700,7.79480078125,-0.09812997281551361,-0.1825021356344223,-0.19794468581676483
1733902669395827500,7.804827392578125,-0.10739723592996597,-0.2078508883714676,-0.19681976735591888
1733902669405853400,7.814853515625,-0.11923076957464218,-0.19923046231269836,-0.20026728510856628
1733902669415880700,7.824880615234375,-0.12413977086544037,-0.20711368322372437,-0.19877298176288605
1733902669425907700,7.83490771484375,-0.1536695957183838,-0.2575051486492157,-0.1944180727005005
1733902669435934500,7.8449345703125,-0.20596502721309662,-0.33591634035110474,-0.18344078958034515
1733902669445961700,7.854961669921875,-0.273093044757843,-0.3767687678337097,-0.17069421708583832
1733902669455988700,7.86498876953125,-0.32265499234199524,-0.3633885085582733,-0.15031969547271729
1733902669466014700,7.8750146484375,-0.33971208333969116,-0.32377490401268005,-0.112523652613163
1733902669476041500,7.88504150390625,-0.31633085012435913,-0.27522361278533936,-0.0689183846116066
1733902669486068700,7.89506884765625,-0.26904794573783875,-0.23310600221157074,-0.034927066415548325
1733902669496095700,7.905095703125,-0.2174055129289627,-0.19276736676692963,-0.021202199161052704
1733902669506122500,7.91512255859375,-0.1774681806564331,-0.16125473380088806,-0.02152680978178978
1733902669516148500,7.9251484375,-0.15487152338027954,-0.13617360591888428,-0.032448433339595795
1733902669526175700,7.93517578125,-0.15257330238819122,-0.1050935685634613,-0.03446768969297409
1733902669536202800,7.94520263671875,-0.15774250030517578,-0.07680200785398483,-0.029733387753367424
1733902669546229500,7.9552294921875,-0.16505751013755798,-0.07047785818576813,-0.026530278846621513
1733902669556256500,7.965256591796875,-0.1629972904920578,-0.08236327767372131,-0.03377087786793709
1733902669566283800,7.97528369140625,-0.15367479622364044,-0.10212777554988861,-0.058359935879707336
1733902669576309800,7.985309814453125,-0.1325812190771103,-0.1112445741891861,-0.08984382450580597
1733902669586336500,7.99533642578125,-0.10978475958108902,-0.10072843730449677,-0.12744975090026855
1733902669596363500,8.005363525390624,-0.07302089035511017,-0.0675603598356247,-0.16164366900920868
1733902669606390800,8.015390869140624,-0.038324784487485886,-0.017035573720932007,-0.18531584739685059
1733902669616417500,8.02541748046875,-0.00805476401001215,0.03367554023861885,-0.1975991427898407
1733902669626444500,8.035444580078124,0.01136924047023058,0.0667441263794899,-0.19245710968971252
1733902669636470500,8.045470458984376,0.028152216225862503,0.10284886509180069,-0.17065486311912537
1733902669646497800,8.055497802734376,0.03760595992207527,0.1308392584323883,-0.13976354897022247
1733902669656524500,8.065524658203126,0.05563342943787575,0.14784221351146698,-0.1098053902387619
1733902669666551600,8.075551513671876,0.0724743902683258,0.1437225490808487,-0.08598822355270386
1733902669676578600,8.08557861328125,0.0806119441986084,0.13192100822925568,-0.0740780308842659
1733902669686604800,8.095604736328125,0.08214161545038223,0.12159261107444763,-0.08687453716993332
1733902669696631600,8.105631591796875,0.07427730411291122,0.1143818348646164,-0.10908077657222748
1733902669706658600,8.115658447265625,0.06298874318599701,0.11043943464756012,-0.12479527294635773
1733902669716685600,8.125685546875,0.06343802064657211,0.13603107631206512,-0.11497939378023148
1733902669726712600,8.135712646484375,0.07319831848144531,0.1800476312637329,-0.08337371051311493
1733902669736739600,8.145739501953125,0.08643955737352371,0.21148571372032166,-0.03896843269467354
1733902669746765600,8.155765625,0.08960525691509247,0.22724443674087524,-0.005198218859732151
1733902669756792600,8.16579248046875,0.07718347012996674,0.23329274356365204,0.014226344414055347
1733902669766819800,8.17581982421875,0.05614744871854782,0.23335903882980347,0.007943178527057171
1733902669776846600,8.1858466796875,0.04354590177536011,0.24613821506500244,-0.009146058931946754
1733902669786873600,8.19587353515625,0.03397820517420769,0.27050650119781494,-0.018745947629213333
1733902669796900600,8.205900634765625,0.03068307414650917,0.284280389547348,-0.02250633016228676
1733902669806926800,8.2159267578125,0.0394742377102375,0.2640281319618225,-0.006530016660690308
1733902669816953600,8.22595361328125,0.049350570887327194,0.23769639432430267,0.0138519536703825
1733902669826980600,8.235980712890624,0.054369520395994186,0.2095559686422348,0.03166821599006653
1733902669837007600,8.246007568359374,0.0531947985291481,0.17158888280391693,0.04336268827319145
1733902669847034600,8.25603466796875,0.03882405161857605,0.1318991482257843,0.04613552242517471
1733902669857060600,8.266060546875,0.01669265143573284,0.09931403398513794,0.05084851756691933
1733902669867087600,8.276087646484376,-0.0007259808480739594,0.07346375286579132,0.06108816713094711
1733902669877114600,8.286114501953126,0.0007065334357321262,0.05879293754696846,0.06789014488458633
1733902669887141600,8.2961416015625,0.011248288676142693,0.053342968225479126,0.07232606410980225
1733902669897168600,8.306168701171876,0.023851431906223297,0.05432247743010521,0.07692640274763107
1733902669907195600,8.316195556640626,0.043618153780698776,0.058223798871040344,0.07277365773916245
1733902669917221600,8.3262216796875,0.0629870593547821,0.06000705435872078,0.055072683840990067
1733902669927248600,8.33624853515625,0.07601018995046616,0.0655118077993393,0.024394668638706207
1733902669937275600,8.346275634765625,0.08155382424592972,0.0735580176115036,-0.013372417539358139
1733902669947302700,8.356302734375,0.0771474689245224,0.08932638168334961,-0.04909246042370796
1733902669957329400,8.366329345703125,0.05969764292240143,0.10881299525499344,-0.0820637196302414
1733902669967356700,8.376356689453125,0.03502864018082619,0.1241244524717331,-0.11153396964073181
1733902669977382700,8.386382568359375,0.010492934845387936,0.1317048817873001,-0.1332848072052002
1733902669987409700,8.39640966796875,-0.01468677818775177,0.13699202239513397,-0.14594332873821259
1733902669997436400,8.4064365234375,-0.03344981372356415,0.13562582433223724,-0.14792151749134064
1733902670007463700,8.416463623046875,-0.0487353578209877,0.13025224208831787,-0.13803617656230927
1733902670017490700,8.42649072265625,-0.06399686634540558,0.12998086214065552,-0.11589279025793076
1733902670027516700,8.4365166015625,-0.06930771470069885,0.12473858892917633,-0.07466067373752594
1733902670037543400,8.44654345703125,-0.06327192485332489,0.10982275754213333,-0.03106047213077545
1733902670047570700,8.45657080078125,-0.05166958272457123,0.10339759290218353,0.006053636781871319
1733902670057597700,8.46659765625,-0.044174112379550934,0.10023561865091324,0.029031656682491302
1733902670067624400,8.47662451171875,-0.04034877568483353,0.09338635206222534,0.04145531356334686
1733902670077651700,8.486651611328124,-0.03212014213204384,0.0675228014588356,0.05020592734217644
1733902670087677700,8.496677734375,-0.01815589889883995,0.02842586115002632,0.05641506612300873
1733902670097704700,8.50670458984375,-0.0013588101137429476,-0.009489030577242374,0.06526235491037369
1733902670107731500,8.5167314453125,0.01070003304630518,-0.03075885958969593,0.06811884790658951
1733902670117758500,8.526758544921876,0.014739781618118286,-0.03028108924627304,0.06695930659770966
1733902670127785700,8.53678564453125,0.014285953715443611,-0.018658675253391266,0.06456992775201797
1733902670137811700,8.546811767578125,0.017324887216091156,-0.0047476524487137794,0.06090248003602028
1733902670147838700,8.556838623046875,0.022293807938694954,0.015645066276192665,0.05859090015292168
1733902670157865500,8.566865478515625,0.03116905875504017,0.043263908475637436,0.0513918437063694
1733902670167892700,8.576892822265625,0.04341628775000572,0.07128740102052689,0.03564199432730675
1733902670177919700,8.586919677734375,0.04743393138051033,0.09108241647481918,0.010314801707863808
1733902670187946500,8.596946533203125,0.03552144765853882,0.08635271340608597,-0.011827409267425537
1733902670197972500,8.606972412109375,0.007087409496307373,0.07256579399108887,-0.017756670713424683
1733902670207999700,8.616999755859375,-0.02185099385678768,0.06300687789916992,0.0018650265410542488
1733902670218026800,8.62702685546875,-0.03251269459724426,0.0517699308693409,0.0284324549138546
1733902670228053500,8.637053466796875,-0.023245075717568398,0.035085856914520264,0.0521027073264122
1733902670238080800,8.647080810546875,0.001487435307353735,0.026203682646155357,0.07217122614383698
1733902670248107800,8.657107666015625,0.030279550701379776,0.032015442848205566,0.08513189852237701
1733902670258133200,8.66713330078125,0.056215010583400726,0.025640364736318588,0.08672633022069931
1733902670268160000,8.677159912109374,0.07006748020648956,0.01124008372426033,0.07582180947065353
1733902670278187000,8.68718701171875,0.07171038538217545,-0.007783674634993076,0.062223970890045166
1733902670288214300,8.69721435546875,0.05753365904092789,-0.008426466956734657,0.051783930510282516
1733902670298241000,8.707240966796874,0.04281170666217804,0.015251964330673218,0.050384435802698135
1733902670308267000,8.71726708984375,0.03989626094698906,0.0427604578435421,0.06322186440229416
1733902670318294000,8.7272939453125,0.04573337733745575,0.05536173656582832,0.08299104124307632
1733902670328321300,8.7373212890625,0.06071304529905319,0.06913391500711441,0.10270287841558456
1733902670338348000,8.74734814453125,0.0864221379160881,0.0664859339594841,0.10729309916496277
1733902670348375000,8.757375,0.11180313676595688,0.022240879014134407,0.10255476832389832
1733902670358402000,8.767402099609376,0.122133269906044,-0.04177698493003845,0.09634241461753845
1733902670368428300,8.77742822265625,0.1061561182141304,-0.07854489237070084,0.09948575496673584
1733902670378455000,8.787455078125,0.0839589387178421,-0.08159474283456802,0.11430012434720993
1733902670388482000,8.79748193359375,0.0728347897529602,-0.05951763689517975,0.11925243586301804
1733902670398509000,8.807509033203125,0.07222945243120193,-0.023327406495809555,0.09999192506074905
1733902670408536300,8.817536376953125,0.07837361097335815,-0.01051341462880373,0.079484723508358
1733902670418563000,8.82756298828125,0.08864861726760864,-0.03171377629041672,0.08656047284603119
1733902670428589000,8.837589111328125,0.09989086538553238,-0.05989878997206688,0.12649987637996674
1733902670438616000,8.847615966796875,0.1208166554570198,-0.08741270750761032,0.18617278337478638
1733902670448643300,8.857643310546875,0.14204099774360657,-0.09754816442728043,0.2277173101902008
1733902670458670000,8.867670166015625,0.1441478133201599,-0.09921716898679733,0.22504481673240662
1733902670468697000,8.877697021484375,0.13100214302539825,-0.11358568072319031,0.18709179759025574
1733902670478723000,8.88772314453125,0.11311555653810501,-0.1458597332239151,0.14224815368652344
1733902670488750300,8.897750244140624,0.09407708793878555,-0.18513257801532745,0.12092979997396469
1733902670498777000,8.907777099609374,0.08281191438436508,-0.23623359203338623,0.13134782016277313
1733902670508804000,8.91780419921875,0.08168842643499374,-0.27001047134399414,0.1653527319431305
1733902670518831000,8.9278310546875,0.08454173803329468,-0.25411537289619446,0.19360966980457306
1733902670528858000,8.937858154296874,0.08873414993286133,-0.2025904804468155,0.20564670860767365
1733902670538884000,8.947884033203126,0.09232968091964722,-0.16174264252185822,0.20840494334697723
1733902670548911000,8.9579111328125,0.09515141695737839,-0.13677170872688293,0.19689232110977173
1733902670558938000,8.967938232421876,0.09381051361560822,-0.13605265319347382,0.17919854819774628
1733902670568965000,8.977965087890626,0.09422651678323746,-0.16023622453212738,0.1751794070005417
1733902670578992000,8.9879921875,0.09061820060014725,-0.1742202192544937,0.17825216054916382
1733902670589018000,8.99801806640625,0.08404327929019928,-0.1809825897216797,0.1831425279378891
1733902670599045000,9.008045166015625,0.07616963982582092,-0.17973463237285614,0.1800021231174469
1733902670609072000,9.018072021484375,0.07129109650850296,-0.17419801652431488,0.16094937920570374
1733902670619099100,9.02809912109375,0.07196434587240219,-0.17136842012405396,0.13641341030597687
1733902670629126100,9.038126220703125,0.06400822848081589,-0.16933880746364594,0.11374086141586304
1733902670639153200,9.048153076171875,0.04813658446073532,-0.15981587767601013,0.09262705594301224
1733902670649179100,9.05817919921875,0.041887201368808746,-0.16792936623096466,0.0777413621544838
1733902670659206100,9.0682060546875,0.03970341011881828,-0.182003915309906,0.0770830288529396
1733902670669233200,9.078233154296875,0.03782839700579643,-0.1724497675895691,0.08641728013753891
1733902670679260000,9.088260009765625,0.03630933165550232,-0.15208137035369873,0.09117421507835388
1733902670689287200,9.098287109375,0.032602667808532715,-0.14916326105594635,0.08197740465402603
1733902670699313200,9.108313232421875,0.0255879033356905,-0.16035227477550507,0.0771445631980896
1733902670709340200,9.118340087890624,0.01414671540260315,-0.17367608845233917,0.07944370061159134
1733902670719367000,9.128366943359374,0.012936840765178204,-0.17163556814193726,0.08764996379613876
1733902670729394200,9.138394287109374,0.020569948479533195,-0.1416623592376709,0.10307497531175613
1733902670739421200,9.148421142578124,0.03183059021830559,-0.10108830034732819,0.10915843397378922
1733902670749448000,9.158447998046874,0.044398192316293716,-0.059843890368938446,0.096220962703228
1733902670759474000,9.168473876953126,0.05655285716056824,-0.06361013650894165,0.07736045122146606
1733902670769501200,9.178501220703126,0.05993548035621643,-0.08845392614603043,0.06648267060518265
1733902670779528200,9.188528076171876,0.05680706351995468,-0.11383544653654099,0.07477335631847382
1733902670789555200,9.19855517578125,0.05214732885360718,-0.10740897059440613,0.09987791627645493
1733902670799582200,9.208582275390626,0.04921465739607811,-0.07629259675741196,0.1223217025399208
1733902670809609200,9.218609130859376,0.04931284487247467,-0.042525675147771835,0.13860152661800385
1733902670819635200,9.22863525390625,0.04533834382891655,0.010294392704963684,0.1396942287683487
1733902670829662200,9.238662109375,0.027355803176760674,0.058096613734960556,0.1271602064371109
1733902670839689000,9.24868896484375,0.005841189995408058,0.09423837065696716,0.10493826121091843
1733902670849716200,9.25871630859375,0.004109437111765146,0.11604530364274979,0.087539441883564
1733902670859743200,9.2687431640625,0.024549199268221855,0.12870916724205017,0.07870840281248093
1733902670869769200,9.278769287109375,0.06823477149009705,0.09397554397583008,0.094228595495224
1733902670879796000,9.2887958984375,0.10823705047369003,0.07718351483345032,0.1389547735452652
1733902670889823200,9.2988232421875,0.13949373364448547,0.11912034451961517,0.1901302933692932
1733902670899850200,9.308850341796875,0.1592368185520172,0.17292286455631256,0.21194425225257874
1733902670909877000,9.318876953125,0.1583872139453888,0.2021048665046692,0.20070193707942963
1733902670919904300,9.328904296875,0.14436353743076324,0.23131920397281647,0.1673988401889801
1733902670929930200,9.33893017578125,0.13401712477207184,0.21927587687969208,0.13477668166160583
1733902670939957200,9.348957275390624,0.14047423005104065,0.1722356677055359,0.1322067379951477
1733902670949984000,9.35898388671875,0.16041794419288635,0.14593163132667542,0.16027595102787018
1733902670960011300,9.36901123046875,0.20368072390556335,0.1475106179714203,0.2005927562713623
1733902670970038300,9.379038330078124,0.2472609132528305,0.17098091542720795,0.22787921130657196
1733902670980065000,9.38906494140625,0.2762448787689209,0.17247894406318665,0.23731160163879395
1733902670990091000,9.399091064453126,0.2735583484172821,0.21192003786563873,0.21582236886024475
1733902671000118000,9.409117919921876,0.24390004575252533,0.255475789308548,0.1654750406742096
1733902671010145300,9.419145263671876,0.20379619300365448,0.26177978515625,0.11733192205429077
1733902671020172000,9.429172119140626,0.16733963787555695,0.25077691674232483,0.08908402919769287
1733902671030199000,9.439198974609376,0.14920784533023834,0.24447013437747955,0.0983247458934784
1733902671040225000,9.44922509765625,0.16559268534183502,0.21705634891986847,0.13302147388458252
1733902671050252300,9.459252197265625,0.19521264731884003,0.14610731601715088,0.17826993763446808
1733902671060279000,9.469279052734375,0.21441085636615753,0.13090839982032776,0.22258174419403076
1733902671070306000,9.47930615234375,0.22516757249832153,0.16785828769207,0.23040182888507843
1733902671080333300,9.489333251953125,0.23369714617729187,0.20578037202358246,0.19980929791927338
1733902671090360000,9.499360107421875,0.23155644536018372,0.24254579842090607,0.16361336410045624
1733902671100386000,9.509385986328125,0.22735877335071564,0.283437579870224,0.15277642011642456
1733902671110413000,9.5194130859375,0.23445706069469452,0.3436952531337738,0.16606628894805908
1733902671120440300,9.5294404296875,0.2556118667125702,0.3466990292072296,0.19097216427326202
1733902671130467000,9.539467041015625,0.2753298282623291,0.3060931861400604,0.21749740839004517
1733902671140494000,9.549494140625,0.2638803720474243,0.2502498924732208,0.2385435700416565
1733902671150520000,9.55952001953125,0.2166559100151062,0.21528476476669312,0.2292332798242569
1733902671160547000,9.569547119140625,0.1477610021829605,0.17937496304512024,0.17049060761928558
1733902671170574000,9.579573974609374,0.09051467478275299,0.13397011160850525,0.09481868147850037
1733902671180601000,9.58960107421875,0.07796293497085571,0.13674671947956085,0.060809314250946045
1733902671190628000,9.599628173828124,0.12170612812042236,0.1422910839319229,0.09071148931980133
1733902671200655000,9.609655029296874,0.18317721784114838,0.10925935953855515,0.1358475387096405
1733902671210681000,9.61968115234375,0.21016769111156464,0.07185043394565582,0.1440829187631607
1733902671220708000,9.6297080078125,0.18139542639255524,0.043465930968523026,0.11095239967107773
1733902671230735000,9.639735107421876,0.11811178177595139,0.0450974777340889,0.05148885026574135
1733902671240762000,9.64976220703125,0.037841182202100754,0.09794631600379944,-0.01588459685444832
1733902671250789600,9.65978955078125,-0.013146881945431232,0.17156457901000977,-0.06808332353830338
1733902671260815600,9.669815673828126,-0.02422696352005005,0.20847679674625397,-0.08948501944541931
1733902671270842600,9.679842529296875,0.006780559197068214,0.23123380541801453,-0.07024367153644562
1733902671280869400,9.689869384765625,0.0622672513127327,0.1933218389749527,-0.02747862972319126
1733902671290896600,9.699896728515625,0.10181049257516861,0.09478993713855743,0.02154342643916607
1733902671300923600,9.709923583984375,0.0894976332783699,0.006969798356294632,0.04429321363568306
1733902671310950400,9.719950439453125,0.022572709247469902,-0.04808222874999046,0.02350402995944023
1733902671320976400,9.729976318359375,-0.06348920613527298,-0.05746374651789665,-0.03511534258723259
1733902671331003400,9.74000341796875,-0.14280851185321808,-0.010852321982383728,-0.08805975317955017
1733902671341030700,9.75003076171875,-0.17599895596504211,0.049589451402425766,-0.10710428655147552
1733902671351057400,9.760057373046875,-0.16877669095993042,0.09385106712579727,-0.08744750171899796
1733902671361084400,9.77008447265625,-0.129393070936203,0.11615531146526337,-0.04054870456457138
1733902671371111700,9.780111572265625,-0.07823129743337631,0.0934484452009201,0.016187140718102455
1733902671381137700,9.7901376953125,-0.050467848777770996,0.06504316627979279,0.054626673460006714
1733902671391164400,9.800164306640625,-0.06198358163237572,0.039908915758132935,0.06280073523521423
1733902671401191400,9.81019140625,-0.10705012828111649,0.03736772760748863,0.03526764735579491
1733902671411218700,9.82021875,-0.1566428393125534,0.03600813075900078,-0.015398332849144936
1733902671421245700,9.83024560546875,-0.1926112174987793,0.03441209718585014,-0.06216131150722504
1733902671431271700,9.840271728515624,-0.1976260542869568,0.018146496266126633,-0.09132782369852066
1733902671441298400,9.85029833984375,-0.17360220849514008,-0.014226888306438923,-0.08587287366390228
1733902671451325700,9.86032568359375,-0.1283002644777298,-0.026182331144809723,-0.058162443339824677
1733902671461352700,9.870352783203124,-0.0749339759349823,-0.029322732239961624,-0.02129444293677807
1733902671471379500,9.88037939453125,-0.03977104648947716,-0.03015129826962948,0.00909954309463501
1733902671481406500,9.890406494140626,-0.03619548678398132,-0.019300514832139015,0.027904922142624855
1733902671491432400,9.900432373046876,-0.05217921361327171,0.0013723294250667095,0.03071785345673561
1733902671501459700,9.910459716796876,-0.07634180784225464,0.022778550162911415,0.024071400985121727
1733902671511486500,9.920486572265625,-0.08896879851818085,0.05737777054309845,0.0011656507849693298
1733902671521513500,9.930513427734375,-0.06737535446882248,0.07962368428707123,-0.051407814025878906
1733902671531540700,9.940540771484375,-0.031845174729824066,0.055884212255477905,-0.09984312206506729
1733902671541567500,9.9505673828125,-0.005686543881893158,0.006804817356169224,-0.12003041803836823
1733902671551593500,9.960593505859375,-0.005956512875854969,-0.05661728233098984,-0.10924099385738373
1733902671561620500,9.970620361328125,-0.025693465024232864,-0.1038292720913887,-0.08769123256206512
1733902671571647700,9.980647705078125,-0.05613589659333229,-0.12482277303934097,-0.07487434148788452
1733902671581674500,9.990674560546875,-0.08776891976594925,-0.10478594899177551,-0.08120334893465042
1733902671591701500,10.000701416015625,-0.10240176320075989,-0.08372264355421066,-0.12256132066249847
1733902671601727500,10.0107275390625,-0.10814061015844345,-0.10882959514856339,-0.17461173236370087
1733902671611754800,10.020754638671875,-0.1163569912314415,-0.17531514167785645,-0.1979130655527115
1733902671621781500,10.030781494140625,-0.12500374019145966,-0.24653500318527222,-0.17446286976337433
1733902671631808500,10.04080859375,-0.13254718482494354,-0.28969815373420715,-0.11715968698263168
1733902671641835500,10.05083544921875,-0.14360782504081726,-0.2639525830745697,-0.05677783861756325
1733902671651862500,10.060862548828124,-0.15285980701446533,-0.169547438621521,-0.006449579261243343
1733902671661888500,10.070888427734374,-0.14334993064403534,-0.04871314764022827,0.02465081587433815
1733902671671915500,10.08091552734375,-0.10812536627054214,0.048511404544115067,0.028588298708200455
1733902671681942500,10.090942626953124,-0.056981489062309265,0.07343965768814087,0.004902410786598921
1733902671691969500,10.100969482421876,-0.01862172782421112,0.036417074501514435,-0.03590742498636246
1733902671701996500,10.11099658203125,-0.009157652966678143,-0.032177433371543884,-0.08495566993951797
1733902671712022500,10.1210224609375,-0.028931541368365288,-0.09129205346107483,-0.13403445482254028
1733902671722049500,10.131049560546876,-0.06829998642206192,-0.14781977236270905,-0.18204697966575623
1733902671732076500,10.14107666015625,-0.10833898186683655,-0.20541377365589142,-0.20759499073028564
1733902671742103600,10.151103515625,-0.1379496157169342,-0.23746731877326965,-0.1974741816520691
1733902671752130600,10.161130615234375,-0.14673911035060883,-0.22570261359214783,-0.15553118288516998
1733902671762157600,10.171157470703125,-0.12988770008087158,-0.19174358248710632,-0.1023222953081131
1733902671772183600,10.18118359375,-0.09368980675935745,-0.1384933590888977,-0.06721712648868561
1733902671782210600,10.19121044921875,-0.0785265639424324,-0.08676065504550934,-0.052888255566358566
1733902671792237600,10.201237548828125,-0.09161984175443649,-0.037275541573762894,-0.06496693193912506
1733902671802264600,10.2112646484375,-0.11822322756052017,-0.006345853209495544,-0.09417381882667542
1733902671812291600,10.22129150390625,-0.140213742852211,0.02081846445798874,-0.1374000608921051
1733902671822318600,10.231318603515625,-0.14005474746227264,0.009317072108387947,-0.17555463314056396
1733902671832344600,10.241344482421875,-0.1277398318052292,-0.07378146797418594,-0.18024243414402008
1733902671842371600,10.25137158203125,-0.10822871327400208,-0.19374088943004608,-0.13324511051177979
1733902671852398600,10.261398681640625,-0.08894196152687073,-0.271131694316864,-0.06479740142822266
1733902671862425600,10.271425537109375,-0.07967709004878998,-0.29636886715888977,-0.029345132410526276
1733902671872452600,10.28145263671875,-0.08600469678640366,-0.2993927597999573,-0.0496588759124279
1733902671882478600,10.291478515625,-0.10134876519441605,-0.2598605453968048,-0.12256637215614319
1733902671892505600,10.301505615234374,-0.1171511858701706,-0.19777175784111023,-0.2148752510547638
1733902671902532600,10.31153271484375,-0.12776148319244385,-0.15779025852680206,-0.27791333198547363
1733902671912559600,10.3215595703125,-0.1227104514837265,-0.13032080233097076,-0.28358185291290283
1733902671922586400,10.33158642578125,-0.0930047556757927,-0.10414540022611618,-0.2341434508562088
1733902671932613600,10.341613525390626,-0.04466472193598747,-0.08301892876625061,-0.16428318619728088
1733902671942639600,10.3516396484375,0.007550814654678106,-0.07244404405355453,-0.10615810006856918
1733902671952666600,10.36166650390625,0.03800172358751297,-0.09263432770967484,-0.07796846330165863
1733902671962693400,10.371693359375,0.027745094150304794,-0.12676860392093658,-0.06682179868221283
1733902671972720600,10.381720703125,-0.02104170061647892,-0.1388627290725708,-0.0647081583738327
1733902671982747600,10.39174755859375,-0.09270762652158737,-0.13657481968402863,-0.06806773692369461
1733902671992773600,10.401773681640625,-0.15082654356956482,-0.11372371017932892,-0.05891546979546547
1733902672002800400,10.41180029296875,-0.181875541806221,-0.05816350877285004,-0.036267682909965515
1733902672012827600,10.42182763671875,-0.18135271966457367,-0.013489896431565285,-0.005468766205012798
1733902672022854700,10.431854736328125,-0.15140654146671295,-0.015001241117715836,0.028718765825033188
1733902672032881400,10.44188134765625,-0.11172610521316528,-0.03376903012394905,0.05790291726589203
1733902672042908400,10.451908447265625,-0.08637174218893051,-0.012864015996456146,0.07015106081962585
1733902672052934700,10.4619345703125,-0.08267921209335327,0.018331754952669144,0.06181389093399048
1733902672062961700,10.471961669921875,-0.10551129281520844,0.0007437067106366158,0.02806897833943367
1733902672072988400,10.481988525390625,-0.1365959495306015,-0.06684467941522598,-0.016167163848876953
1733902672083015400,10.492015380859375,-0.1658308058977127,-0.14031410217285156,-0.04045598953962326
1733902672093042700,10.502042724609375,-0.19346937537193298,-0.15805988013744354,-0.03425328806042671
1733902672103068700,10.512068603515624,-0.21425747871398926,-0.1191798597574234,-0.002013060264289379
1733902672113095400,10.522095458984374,-0.2223580777645111,-0.05122365429997444,0.04823537543416023
1733902672123122400,10.532122314453124,-0.21230384707450867,0.03412719443440437,0.09275703132152557
1733902672133149700,10.542149658203124,-0.19333429634571075,0.11311633884906769,0.12483201920986176
1733902672143176400,10.552176513671874,-0.17442691326141357,0.17583273351192474,0.12984435260295868
1733902672153203500,10.562203369140626,-0.16735787689685822,0.21530544757843018,0.10286355763673782
1733902672163229400,10.5722294921875,-0.18571984767913818,0.2214709371328354,0.06616519391536713
1733902672173256700,10.582256591796876,-0.22484169900417328,0.207123801112175,0.033918313682079315
1733902672183283500,10.592283447265626,-0.2665156424045563,0.1706874966621399,0.02384704165160656
1733902672193310500,10.602310546875,-0.29054346680641174,0.09789333492517471,0.03957779332995415
1733902672203337500,10.61233740234375,-0.27769187092781067,-0.006328144110739231,0.05962580442428589
1733902672213363700,10.62236376953125,-0.2538312077522278,-0.06578949093818665,0.07405352592468262
1733902672223390500,10.632390380859375,-0.2376580834388733,-0.06786942481994629,0.06769256293773651
1733902672233417500,10.64241748046875,-0.23737561702728271,-0.026445437222719193,0.04034027084708214
1733902672243444500,10.652444580078125,-0.25623103976249695,0.050062648952007294,-0.0019978657364845276
1733902672253471000,10.662470947265625,-0.2742310166358948,0.11019831895828247,-0.03796887770295143
1733902672263497700,10.672497802734375,-0.28180399537086487,0.1526949107646942,-0.055875975638628006
1733902672273523700,10.682523681640625,-0.27872899174690247,0.17166228592395782,-0.049415040761232376
1733902672283551000,10.692551025390625,-0.2607704997062683,0.13282515108585358,-0.03317508101463318
1733902672293578000,10.702577880859375,-0.23729002475738525,0.07540731132030487,-0.01931343786418438
1733902672303604700,10.712604736328124,-0.22835884988307953,0.09048853069543839,-0.027044860646128654
1733902672313631700,10.7226318359375,-0.24507933855056763,0.19356343150138855,-0.05428697541356087
1733902672323658000,10.732657958984374,-0.28034812211990356,0.2590827941894531,-0.08756211400032043
1733902672333685000,10.74268505859375,-0.31630319356918335,0.2342948168516159,-0.10050928592681885
1733902672343711700,10.752711669921876,-0.3365677297115326,0.1598573476076126,-0.08637216687202454
1733902672353738800,10.76273876953125,-0.3237578868865967,0.08396943658590317,-0.03986700624227524
1733902672363766000,10.77276611328125,-0.2819446623325348,0.048196256160736084,0.014812221750617027
1733902672373792800,10.782792724609376,-0.22435228526592255,0.02854178473353386,0.05064414441585541
1733902672383818800,10.79281884765625,-0.17633815109729767,0.03975289314985275,0.04927714541554451
1733902672393845800,10.802845703125,-0.1449129730463028,0.07194875925779343,0.01351645216345787
1733902672403873000,10.812873046875,-0.12836861610412598,0.10302918404340744,-0.039279915392398834
1733902672413899800,10.822899658203125,-0.1229187548160553,0.12295685708522797,-0.08760436624288559
1733902672423926800,10.8329267578125,-0.12046864628791809,0.10512353479862213,-0.10941565036773682
1733902672433952800,10.842952880859375,-0.11141041666269302,0.050819166004657745,-0.11126869171857834
1733902672443980000,10.85297998046875,-0.09922698885202408,-0.019278429448604584,-0.1093946248292923
1733902672454006800,10.8630068359375,-0.09111346304416656,-0.07010577619075775,-0.12193789333105087
1733902672464033800,10.87303369140625,-0.0948256403207779,-0.09377674758434296,-0.15184278786182404
1733902672474060800,10.883060791015625,-0.10936107486486435,-0.10524149239063263,-0.19798697531223297
1733902672484088000,10.893088134765625,-0.12557919323444366,-0.09522400796413422,-0.2442958950996399
1733902672494114000,10.903114013671875,-0.13336482644081116,-0.05802261084318161,-0.26981204748153687
1733902672504140800,10.913140869140625,-0.13946132361888885,-0.0006847543409094214,-0.261127233505249
1733902672514167800,10.923167724609375,-0.13329339027404785,0.025688111782073975,-0.21739354729652405
1733902672524195000,10.933195068359375,-0.10778376460075378,0.0037338112015277147,-0.160928413271904
1733902672534221800,10.943221923828125,-0.07904881238937378,-0.030656633898615837,-0.11016485840082169
1733902672544248800,10.953248779296874,-0.053269144147634506,-0.07510612905025482,-0.08531995862722397
1733902672554274800,10.96327490234375,-0.03878419101238251,-0.11067222058773041,-0.09309160709381104
1733902672564302000,10.973302001953124,-0.03537880629301071,-0.10749240964651108,-0.1304757297039032
1733902672574328800,10.983328857421874,-0.042650818824768066,-0.061193544417619705,-0.17085105180740356
1733902672584355800,10.99335595703125,-0.04302952066063881,-0.006614719517529011,-0.18642309308052063
1733902672594382800,11.0033828125,-0.014925485476851463,0.013239278458058834,-0.16846194863319397
1733902672604409000,11.0134091796875,0.020440228283405304,0.016088593751192093,-0.1315646469593048
1733902672614435800,11.023435791015626,0.051771581172943115,-0.002930615795776248,-0.09882932901382446
1733902672624462800,11.033462890625,0.0720164030790329,-0.04114777594804764,-0.08771329373121262
1733902672634489900,11.04348974609375,0.07716195285320282,-0.07540460675954819,-0.10490124672651291
1733902672644516900,11.053516845703125,0.06659986078739166,-0.09048875421285629,-0.1371617168188095
1733902672654544000,11.0635439453125,0.04237096756696701,-0.06946657598018646,-0.16673210263252258
1733902672664569900,11.07356982421875,0.022414039820432663,-0.04634421318769455,-0.17598791420459747
1733902672674596900,11.083596923828125,0.026193270459771156,-0.03800260275602341,-0.15690645575523376
1733902672684624000,11.093623779296875,0.04247663915157318,-0.024793589487671852,-0.12138840556144714
1733902672694651000,11.10365087890625,0.05955203250050545,-0.001881710602901876,-0.0821227952837944
1733902672704678000,11.113677978515625,0.07118444889783859,-0.0029957108199596405,-0.04662073031067848
1733902672714704000,11.123703857421875,0.07195303589105606,-0.025229815393686295,-0.030010290443897247
1733902672724731000,11.13373095703125,0.06714843213558197,-0.036053966730833054,-0.030439060181379318
1733902672734758000,11.1437578125,0.060941558331251144,-0.03531572222709656,-0.04602261632680893
1733902672744785000,11.153784912109375,0.06906766444444656,-0.02702902816236019,-0.06735799461603165
1733902672754811600,11.163811767578125,0.08778735250234604,-0.03022817149758339,-0.08293318003416061
1733902672764839000,11.1738388671875,0.11494440585374832,-0.05110708624124527,-0.08094246685504913
1733902672774865000,11.183864990234374,0.1438056081533432,-0.06882090866565704,-0.06485491245985031
1733902672784892000,11.193891845703124,0.17440904676914215,-0.08208877593278885,-0.03974369913339615
1733902672794918700,11.203918701171874,0.1957956850528717,-0.08817537873983383,-0.005313149653375149
1733902672804946000,11.21394580078125,0.20930244028568268,-0.08150336146354675,0.03064139001071453
1733902672814973000,11.223972900390624,0.22630971670150757,-0.060876015573740005,0.06752517819404602
1733902672824999000,11.2339990234375,0.23994190990924835,-0.03828229010105133,0.10135957598686218
1733902672835025700,11.244025634765626,0.2476046234369278,-0.013508141040802002,0.128146231174469
1733902672845053000,11.254052978515626,0.25478023290634155,0.010852592065930367,0.14391453564167023
1733902672855080000,11.264079833984376,0.2533453404903412,0.02067725919187069,0.15828122198581696
1733902672865107000,11.27410693359375,0.24843661487102509,0.013621214777231216,0.17460426688194275
1733902672875134000,11.284134033203125,0.2390901893377304,-0.007041587494313717,0.20221218466758728
1733902672885160000,11.294159912109375,0.23313456773757935,-0.014623606577515602,0.23230910301208496
1733902672895187000,11.30418701171875,0.22619706392288208,0.005250570364296436,0.25017842650413513
1733902672905214000,11.3142138671875,0.21548183262348175,0.022968048229813576,0.24525104463100433
1733902672915240700,11.32424072265625,0.20039883255958557,0.03510025516152382,0.20559552311897278
1733902672925268000,11.33426806640625,0.18161316215991974,0.035192932933568954,0.13790835440158844
1733902672935294000,11.3442939453125,0.15876592695713043,0.024686036631464958,0.07548446208238602
1733902672945321000,11.354321044921875,0.1352424919605255,0.023461781442165375,0.04727492853999138
1733902672955347700,11.36434765625,0.13027986884117126,0.02321658283472061,0.059768497943878174
1733902672965375000,11.374375,0.14423057436943054,0.012596163898706436,0.10740898549556732
1733902672975402000,11.384402099609375,0.1654113233089447,0.003862935584038496,0.15143540501594543
1733902672985428700,11.3944287109375,0.18230348825454712,0.000530255725607276,0.14403022825717926
1733902672995454700,11.404454833984374,0.1923704296350479,-0.03430568054318428,0.0824117511510849
1733902673005482000,11.41448193359375,0.19310438632965088,-0.09158334881067276,0.020760370418429375
1733902673015509000,11.424509033203124,0.18379653990268707,-0.12587152421474457,-0.0068500228226184845
1733902673025535700,11.43453564453125,0.18307961523532867,-0.15906916558742523,0.0191794466227293
1733902673035563000,11.44456298828125,0.19515740871429443,-0.18371529877185822,0.0786907896399498
1733902673045589000,11.454589111328126,0.2149670571088791,-0.15406100451946259,0.15059533715248108
1733902673055616000,11.464615966796876,0.2364366203546524,-0.07883988320827484,0.20851801335811615
1733902673065642800,11.474642822265626,0.2630615830421448,-0.02622992917895317,0.2343384325504303
1733902673075669800,11.484669677734376,0.28133317828178406,-0.00992879644036293,0.23172974586486816
1733902673085697000,11.494697021484376,0.27851739525794983,0.002974485279992223,0.20984841883182526
1733902673095723800,11.504723876953125,0.2448587864637375,0.012431790120899677,0.18352758884429932
1733902673105749800,11.514749755859375,0.19361503422260284,0.018774108961224556,0.16959205269813538
1733902673115776800,11.52477685546875,0.1384577751159668,0.017514433711767197,0.17043867707252502
1733902673125804000,11.534803955078125,0.0880417451262474,-0.00042382103856652975,0.17600707709789276
1733902673135830800,11.544830810546875,0.046215157955884933,-0.03003697469830513,0.17816981673240662
1733902673145857800,11.55485791015625,0.017273524776101112,-0.04621141403913498,0.16609397530555725
1733902673155883800,11.5648837890625,0.005109413061290979,-0.02331254817545414,0.12847350537776947
1733902673165911000,11.5749111328125,0.00285637890920043,0.02638709731400013,0.08006228506565094
1733902673175937800,11.584937744140625,0.013229845091700554,0.07311978936195374,0.03567899391055107
1733902673185964800,11.59496484375,0.0224025696516037,0.08241555094718933,0.015016326680779457
1733902673195992000,11.604991943359375,0.03642652556300163,0.06082990765571594,0.006335020996630192
1733902673206018800,11.615018798828125,0.04928426817059517,-0.00039722793735563755,0.010397673584520817
1733902673216044800,11.625044921875,0.06499581784009933,-0.07336939871311188,0.02642665058374405
1733902673226071800,11.63507177734375,0.08724866062402725,-0.12367890775203705,0.04835591837763786
1733902673236098800,11.645098876953124,0.11372705549001694,-0.13214536011219025,0.06816047430038452
1733902673246125800,11.655125732421874,0.13833758234977722,-0.11261454224586487,0.07911431789398193
1733902673256153900,11.66515380859375,0.15409569442272186,-0.06871695816516876,0.07667212188243866
1733902673266179800,11.675179931640624,0.16785386204719543,0.00026876991614699364,0.05604167655110359
1733902673276206800,11.685206787109376,0.17030452191829681,0.05316463112831116,0.02082349732518196
1733902673286233600,11.695233642578126,0.16502612829208374,0.060977011919021606,-0.007582578808069229
1733902673296260900,11.7052607421875,0.1493770331144333,0.03878987580537796,-0.009285778738558292
1733902673306287900,11.715287841796876,0.13008242845535278,0.012769193388521671,0.00610063411295414
1733902673316314600,11.725314697265626,0.10287143290042877,-0.019188150763511658,0.03167137876152992
1733902673326340600,11.735340576171875,0.07324536889791489,-0.04676225408911705,0.054788682609796524
1733902673336367900,11.745367919921875,0.047073617577552795,-0.06680505722761154,0.063868947327137
1733902673346395000,11.755394775390625,0.033175915479660034,-0.06378716230392456,0.05782436951994896
1733902673356421600,11.765421630859375,0.03470248356461525,-0.038372837007045746,0.028706680983304977
1733902673366448600,11.77544873046875,0.05989944934844971,-0.0020577076356858015,-0.0074675679206848145
1733902673376475000,11.785474853515625,0.09251702576875687,0.03992713987827301,-0.034642986953258514
1733902673386502000,11.795501953125,0.1252504587173462,0.0758393332362175,-0.04432784020900726
1733902673396528600,11.805528564453125,0.1532612442970276,0.08584269881248474,-0.04479287192225456
1733902673406555600,11.8155556640625,0.17328208684921265,0.06788206845521927,-0.04284609854221344
1733902673416583000,11.8255830078125,0.17574818432331085,0.044008512049913406,-0.043121542781591415
1733902673426609700,11.835609619140625,0.1690807044506073,0.011940057389438152,-0.046552494168281555
1733902673436635600,11.8456357421875,0.16294696927070618,-0.01982751674950123,-0.05232400819659233
1733902673446662700,11.85566259765625,0.1670767217874527,-0.028823941946029663,-0.0681850016117096
1733902673456690000,11.86568994140625,0.18135759234428406,-0.03493601083755493,-0.0798313170671463
1733902673466716700,11.875716552734374,0.20368021726608276,-0.022202638909220695,-0.08763890713453293
1733902673476743700,11.88574365234375,0.2267650067806244,0.007684266194701195,-0.09391491115093231
1733902673486769700,11.895769775390624,0.2563337981700897,0.04278819262981415,-0.09917278587818146
1733902673496797000,11.905796875,0.2737649977207184,0.07613211125135422,-0.11544637382030487
1733902673506823700,11.91582373046875,0.28621235489845276,0.07074294239282608,-0.12667664885520935
1733902673516850700,11.9258505859375,0.27626916766166687,0.06490565091371536,-0.12246829271316528
1733902673526877700,11.935877685546876,0.24894434213638306,0.05890874192118645,-0.09828199446201324
1733902673536904700,11.94590478515625,0.2179325520992279,0.051930900663137436,-0.05774369835853577
1733902673546930700,11.9559306640625,0.19488263130187988,0.04617048427462578,-0.007942055352032185
1733902673556957700,11.965957763671875,0.18870817124843597,0.05207250267267227,0.032635580748319626
1733902673566984700,11.975984619140625,0.19993045926094055,0.07585373520851135,0.06982395797967911
1733902673577011700,11.98601171875,0.21661141514778137,0.10974301397800446,0.09101523458957672
1733902673587038700,11.996038818359375,0.23334911465644836,0.13721643388271332,0.10584212094545364
1733902673597064700,12.006064697265625,0.2450116127729416,0.16079184412956238,0.11625798046588898
1733902673607091700,12.016091796875,0.24883592128753662,0.1758570671081543,0.11535703390836716
1733902673617118700,12.02611865234375,0.2474077194929123,0.18027696013450623,0.11286463588476181
1733902673627145700,12.036145751953125,0.2382104992866516,0.17875710129737854,0.11649558693170547
1733902673637172700,12.0461728515625,0.22605550289154053,0.18172729015350342,0.1306428164243698
1733902673647199700,12.05619970703125,0.21490378677845,0.18875616788864136,0.14926816523075104
1733902673657225700,12.066225830078125,0.2026892602443695,0.19308674335479736,0.16513505578041077
1733902673667252700,12.076252685546875,0.1895468384027481,0.1932888776063919,0.1624167561531067
1733902673677279700,12.08627978515625,0.16854414343833923,0.1918729990720749,0.14632174372673035
1733902673687306800,12.096306640625,0.1418488770723343,0.17387109994888306,0.11795427650213242
1733902673697333800,12.106333740234374,0.11554543673992157,0.1427679806947708,0.09358111768960953
1733902673707359700,12.11635986328125,0.09482791274785995,0.10934663563966751,0.08518443256616592
1733902673717386800,12.12638671875,0.0874466747045517,0.09087461233139038,0.08857136964797974
1733902673727413800,12.136413818359374,0.08909623324871063,0.07969626039266586,0.09973268210887909
1733902673737440800,12.146440673828126,0.09289687126874924,0.07777351140975952,0.10708603262901306
1733902673747467800,12.1564677734375,0.09190244972705841,0.08247426152229309,0.10810362547636032
1733902673757494800,12.166494873046876,0.08217412978410721,0.0835113525390625,0.10343208909034729
1733902673767520800,12.176520751953126,0.06805618107318878,0.09159298241138458,0.09427560865879059
1733902673777547800,12.1865478515625,0.05381690710783005,0.08935811370611191,0.0799146443605423
1733902673787574800,12.19657470703125,0.04565751552581787,0.0785752385854721,0.06347229331731796
1733902673797601800,12.206601806640625,0.04332391172647476,0.072077177464962,0.05369969457387924
1733902673807628800,12.21662890625,0.04231111332774162,0.06507306545972824,0.0479201003909111
1733902673817654800,12.22665478515625,0.04170374944806099,0.062092799693346024,0.045736949890851974
1733902673827681800,12.236681884765625,0.04020039364695549,0.05472409725189209,0.039854295551776886
1733902673837708800,12.246708740234375,0.03794541209936142,0.045149218291044235,0.03220527619123459
1733902673847735600,12.256735595703125,0.032150641083717346,0.03646545112133026,0.02203626185655594
1733902673857762800,12.2667626953125,0.027572419494390488,0.025844572111964226,0.006147908978164196
1733902673867789800,12.276789794921875,0.022196562960743904,0.011104508303105831,-0.0042815618216991425
1733902673877815800,12.28681591796875,0.01429774984717369,0.016466746106743813,-0.009236273355782032
