time,seconds_elapsed,z,y,x
1733751576364029400,0.019029541015625,0.26101941888332364,-0.012864742270112037,0.03460837204456329
1733751576374004500,0.02900439453125,0.24678389971666037,-0.05723813700377941,0.04428834679871797
1733751576383980300,0.038980224609375,0.14157237072587012,0.036470074263215066,-0.04346446319520473
1733751576393956400,0.048956298828125,0.10889284785203635,0.05898001223504543,0.09989595999121666
1733751576403931400,0.058931396484375,0.05312018029093742,-0.04287409608662128,0.34356296979635953
1733751576413907200,0.0689072265625,0.06447269136719405,-0.06847264772355556,0.4129594543665647
1733751576423883500,0.078883544921875,0.07885083387494086,-0.0624538258254528,0.4636003850623965
1733751576433859300,0.088859375,0.04671024018339812,-0.11739011562764644,0.44734804618060586
1733751576443834400,0.09883447265625,-0.004065934264659881,-0.16000760660469532,0.33260376888662574
1733751576453810400,0.108810546875,-0.02547689801864326,-0.23349779022932052,0.2147039501711726
1733751576463786200,0.1187861328125,0.05352583848237991,-0.32350422436892984,0.17334581160545348
1733751576473762300,0.12876220703125,0.11524550481438636,-0.39056758981645107,0.07440729846954346
1733751576483737300,0.1387373046875,0.13780461569018662,-0.4185235182344913,-0.10798954233676195
1733751576493713400,0.14871337890625,0.12667524584531784,-0.4053957411140203,-0.23642303002625703
1733751576503689200,0.158689208984375,0.06923069954924285,-0.39184360110163685,-0.30034809744805097
1733751576513664500,0.16866455078125,0.02492050624489784,-0.4416793528944254,-0.28128333149403334
1733751576523640300,0.178640380859375,0.1103122131306678,-0.487117161989212,-0.22686200547665356
1733751576533616400,0.188616455078125,0.16673592847902327,-0.5168541286051272,-0.23933628712445496
1733751576543592400,0.198592529296875,0.0780219818353653,-0.5491764355391263,-0.27207068199068307
1733751576553567500,0.2085673828125,-0.10814360038731247,-0.36155367677807804,-0.33759207869321106
1733751576563543300,0.218543212890625,-0.3471218313217163,-0.2426794600725174,-0.3750611008659005
1733751576573519400,0.228519287109375,-0.46173364134244615,-0.19123802664875983,-0.3643067748785019
1733751576583495400,0.238495361328125,-0.5857026239037514,-0.0982949545353651,-0.31927491623610255
1733751576593470200,0.24847021484375,-0.7196739450413733,0.0861474206238985,-0.38748043745607136
1733751576603446500,0.258446533203125,-0.9146201054930686,0.17321780131161213,-0.37904257171750066
1733751576613422300,0.26842236328125,-0.9112146809637546,0.11202128207087517,-0.21978695252388714
1733751576623398400,0.2783984375,-0.7573919004738331,0.09242226310968399,-0.11974047814607619
1733751576633373400,0.28837353515625,-0.591738396936655,0.023908114331960675,-0.035869185760617255
1733751576643349500,0.298349609375,-0.4312205027222633,-0.01281271982192993,0.029843641860783098
1733751576653325300,0.3083251953125,-0.3007236527621746,-0.05807400330603122,0.10679828672558069
1733751576663300400,0.31830029296875,-0.160832330458425,-0.020524901634454727,0.15035598116219043
1733751576673276400,0.3282763671875,-0.0827530654778704,0.05959317569732666,0.09877250891923904
1733751576683252200,0.338252197265625,-0.018606519058812408,0.11652268514335155,-0.028552433006465434
1733751576693228500,0.348228515625,0.021229835033416748,0.07355272746682166,-0.07541472194641828
1733751576703203300,0.358203369140625,0.044213235735893246,0.10816285307705402,-0.08760726404339074
1733751576713179400,0.368179443359375,-0.08335510475793853,-0.039623569858074185,0.08360884205698967
1733751576723155500,0.378155517578125,-0.12071542412545531,-0.15203355898559093,0.16886135966777802
1733751576733131500,0.388131591796875,-0.0518728288446553,-0.19927929428517818,0.2043541133314371
1733751576743106300,0.398106201171875,0.11604047285066917,-0.07271510759890079,0.11948474981933832
1733751576753082400,0.408082275390625,0.22007134068952872,0.06091477968990802,0.06230740309208631
1733751576763058400,0.418058349609375,0.3157458653271198,0.11703647988438605,0.0836293003231287
1733751576773033500,0.428033447265625,0.396856460827589,0.09309154067337512,0.14691782340705395
1733751576783009300,0.43800927734375,0.4168354190170765,0.05889584108293056,0.2575084881529212
1733751576792985300,0.4479853515625,0.30380875929594037,-0.006242693781852722,0.3026516982153058
1733751576802961400,0.45796142578125,0.17372576910005882,0.06392506742179394,0.189712132255733
1733751576812936200,0.467936279296875,-0.017947141834627835,0.16735972293317317,-0.06700374421477318
1733751576822912500,0.47791259765625,-0.0900362264896743,0.19342121590673922,-0.2329813651397824
1733751576832888300,0.487888427734375,-0.1660860497355461,0.14267068735659122,-0.1547688291683793
1733751576842864400,0.497864501953125,-0.11725741089237854,0.1258960781663656,-0.0026490532040596006
1733751576852839400,0.50783935546875,-0.03756371471881866,0.1805821925997734,0.13423048353046177
1733751576862815500,0.5178154296875,-0.06280570800304412,0.1510533157765865,0.1136883385002613
1733751576872791300,0.527791259765625,-0.19962589749945325,0.22412731981575487,-0.012046703885495662
1733751576882767400,0.537767333984375,0.013432294758688658,0.17041911050379274,-0.060630994312465186
1733751576892742400,0.547742431640625,0.3570154488265514,-0.011148586001992224,0.06813099467903375
1733751576902718200,0.55771826171875,0.4742284543216228,-0.09923135860264301,-0.01384410869628191
1733751576912694300,0.5676943359375,0.3614343977799639,-0.1570277140110731,-0.11303864241987466
1733751576922669300,0.57766943359375,0.08059504719376563,-0.14181436278820037,-0.06709726771712303
1733751576932645400,0.587645263671875,-0.45269349886178967,-0.14343056581318378,-0.0014896540358662605
1733751576942621200,0.59762109375,-0.8702899653792381,-0.2058691940695047,-0.01708265222609043
1733751576952597500,0.607597412109375,-0.8834487221598625,-0.1142810436964035,0.059542614553868764
1733751576962572300,0.617572265625,-0.6520248155951499,0.056177814295887946,0.017424889792501924
1733751576972548400,0.62754833984375,-0.34683424655199047,0.3128226713567972,-0.2990554272890091
1733751576982524400,0.6375244140625,-0.1486930163860321,0.4426631032347679,-0.5820885250598192
1733751576992500200,0.647500244140625,0.005375263297557831,0.5845739121347665,-0.5514306442067026
1733751577002475300,0.657475341796875,0.09023964010728523,0.6422668071687221,-0.4716197331279516
1733751577012451300,0.667451416015625,0.12711129917502403,0.6254822611063718,-0.528391713924706
1733751577022427400,0.677427490234375,0.09359481402039527,0.5633575211048126,-0.4998638308376074
1733751577032402200,0.687402099609375,0.016444938844442366,0.5277607225447892,-0.53979807408005
1733751577042378200,0.697378173828125,-0.22119243540763853,0.5937666878938674,-0.5108440745353698
1733751577052354300,0.707354248046875,-0.5265361491858959,0.5181652112036943,-0.37891280785799025
1733751577062330400,0.717330322265625,-0.7626537665247917,0.5995809271305799,-0.22343261554986238
1733751577072305200,0.72730517578125,-0.9017302287817001,0.4782300911784172,0.025106091944873333
1733751577082281500,0.737281494140625,-0.8202011156082153,0.26431787590682504,0.2444692660987377
1733751577092257300,0.74725732421875,-0.6416986518919467,0.11989070027172564,0.4890910924106836
1733751577102233300,0.7572333984375,-0.47012401467747983,-0.022619828087091443,0.6433417429238557
1733751577112208400,0.76720849609375,-0.291498764831759,-0.12941665350794793,0.7100964808136224
1733751577122184200,0.77718408203125,-0.0967313950130716,-0.1935620856821537,0.7344646138727664
1733751577132160300,0.78716015625,0.2734089083245024,-0.23912732054889202,0.7693444963350892
1733751577142136300,0.79713623046875,0.385205770522356,-0.4754132801920175,0.6909963512852788
1733751577152111400,0.807111328125,-0.14308858397509902,-0.2827466820448637,0.5342673279598354
1733751577162087200,0.817087158203125,-0.686598116326332,0.005070142871141433,0.35497429838776584
1733751577172063200,0.827063232421875,-0.5139326882004738,-0.2514619014650583,0.48727673646509645
1733751577182038300,0.837038330078125,-0.20162622273750602,-0.44222354277372355,0.8570949682414531
1733751577192014300,0.847014404296875,0.1016892731487751,-0.4219979163467884,0.8967150309681892
1733751577201990400,0.856990478515625,0.32172435521483417,-0.2926274400681257,0.69636518484205
1733751577211966200,0.86696630859375,0.5214461325705051,-0.23839725270867346,0.46811698570400473
1733751577221941200,0.876941162109375,0.568140006140992,-0.22510288684964178,0.33034020786881446
1733751577231917300,0.886917236328125,0.48344632798936216,-0.19840718762576579,0.25844196961075067
1733751577241893400,0.896893310546875,0.2530991107454523,-0.1810012947946787,0.18678104723989963
1733751577251869200,0.906869140625,0.0424117392718792,-0.16477613618075845,0.1563607745349407
1733751577261844500,0.916844482421875,-0.14598076175265012,-0.09587912556529045,0.15729600955843925
1733751577271820300,0.9268203125,-0.2583889973144978,-0.029453473499417303,0.1723535856977105
1733751577281796000,0.936796142578125,-0.2429308410177007,0.03136895173192024,0.1659840506657958
1733751577291771400,0.946771484375,-0.21369305609557776,0.05688157865107059,0.10323387224227189
1733751577301747200,0.956747314453125,-0.20694296078085897,0.04764554827213287,0.00677343965768814
1733751577311723300,0.96672314453125,-0.22023389257378875,0.10583587143421172,-0.16747779635488985
1733751577321699300,0.97669921875,-0.18083353701233862,0.1750578762203455,-0.3332160555660724
1733751577331674400,0.98667431640625,-0.1794095686238259,0.16048106933534145,-0.3410109472259879
1733751577341650200,0.996650146484375,-0.10927987440824508,0.17730360932052133,-0.23305647620260714
1733751577351626500,1.00662646484375,-0.008185681075789033,0.19839082101285457,-0.1816939532339573
1733751577361602300,1.016602294921875,0.01974047325849533,0.22760347149372098,-0.15416764840483665
1733751577371577300,1.026577392578125,0.024063560621999203,0.2780617390990257,-0.1737374412715435
1733751577381553400,1.036553466796875,0.010917699855566024,0.3045750674933195,-0.20921382832229135
1733751577391529200,1.046529296875,-0.05188453754875809,0.30410218928456306,-0.2709112828224897
1733751577401505300,1.05650537109375,-0.10762922112438827,0.2635007143050432,-0.3049941696882248
1733751577411480000,1.06647998046875,-0.1897100864291191,0.17196984707713125,-0.17120821505486963
1733751577421456400,1.076456298828125,-0.256615667499043,0.12815993144512175,-0.08627017022073269
1733751577431432200,1.08643212890625,-0.36377135282754897,0.07798515695631504,-0.021836568754911422
1733751577441407200,1.0964072265625,-0.3745650975098833,0.05316518847644329,0.030314474242925642
1733751577451383300,1.10638330078125,-0.34809447574615476,0.00047112464308738706,0.018485504761338232
1733751577461359400,1.116359375,-0.2570002463698387,-0.04806055881381035,0.04328326140940189
1733751577471335400,1.12633544921875,-0.15163549957871436,-0.12691840695142745,0.1592804613739252
1733751577481310500,1.136310546875,-0.09372578345630317,-0.2015396404325962,0.24922610523700714
1733751577491286300,1.146286376953125,-0.2127063831457868,-0.22388532775342462,0.3096908030718565
1733751577501262000,1.156261962890625,-0.3584089855441823,-0.19993103619217872,0.20098317559361456
1733751577511238400,1.16623828125,-0.5734931306719779,-0.13255202892422677,-0.00258241770863533
1733751577521213200,1.176213134765625,-0.7253659461379051,-0.012727964147925376,-0.15512158812880514
1733751577531189200,1.186189208984375,-0.8331763325154781,0.11357318768799304,-0.16367723502814768
1733751577541165300,1.196165283203125,-0.9554185643494129,0.11581541365683078,-0.04795709843933582
1733751577551140400,1.206140380859375,-0.8653238674044609,0.11487433341443538,0.04066109621226787
1733751577561116200,1.2161162109375,-0.6789139915645123,0.08829846117794513,0.05088906023800373
1733751577571092500,1.226092529296875,-0.5640928496420383,0.0633387919664383,0.09872107099294662
1733751577581068300,1.236068359375,-0.4762297842066735,0.10162029956579208,0.01886778207719326
1733751577591043300,1.246043212890625,-0.412802217978239,0.18279519247412682,-0.15832535260617733
1733751577601019400,1.256019287109375,-0.31504677714705465,0.13652619325220583,-0.22505495605468748
1733751577610995200,1.2659951171875,-0.007713369122613221,0.12031214055418968,-0.34419746830761433
1733751577620971300,1.27597119140625,0.34657471883296964,0.13208324236869812,-0.37994916516840455
1733751577630946300,1.2859462890625,0.5954079888274892,0.23221476468145846,-0.3052577890604734
1733751577640922400,1.29592236328125,0.6463374176084995,0.307642053848505,-0.13158347615301608
1733751577650898200,1.305898193359375,0.5667243671894073,0.31769641487300393,0.07359364399909973
1733751577660873500,1.31587353515625,0.454652779703401,0.10090542929470539,0.09221183522939681
1733751577670849300,1.325849365234375,0.4002501583864912,0.24223288534879683,0.4090314672678709
1733751577680825300,1.335825439453125,0.36284780824184415,0.5099228680372238,0.7093155595690012
1733751577690801400,1.345801513671875,0.13370233147051186,0.19962299315631388,0.4699900860995054
1733751577700776400,1.3557763671875,-0.11874682746622711,0.11504559832811355,0.4558078314900398
1733751577710752300,1.365752197265625,-0.0658266267267987,0.11661036342680453,0.42398996694684027
1733751577720728300,1.375728271484375,0.10936747962646186,0.015508534777164459,0.42501463381946086
1733751577730704400,1.385704345703125,0.37978374547362326,0.0341635508865118,0.41916649231314657
1733751577740679200,1.39567919921875,0.7666917168039828,0.08009177384674548,0.609288082152605
1733751577750655500,1.405655517578125,0.9677987379729747,0.022989830443263054,0.711699239835143
1733751577760631300,1.41563134765625,1.0975077985562383,-0.04587269338071346,0.7968833683848381
1733751577770606300,1.4256064453125,0.8373673544645309,-0.1602390772730112,0.7758277208745479
1733751577780582100,1.43558203125,0.24435002363324163,-0.18741642253398894,0.39563597912192344
1733751577790558500,1.445558349609375,-0.17054712079763412,-0.019498481196165082,0.07876257106959819
1733751577800534300,1.4555341796875,-0.6081051559783518,-0.015661094990372656,-0.3137152362823486
1733751577810509300,1.46550927734375,-0.697408337219432,-0.027528058394789695,-0.4778367079466581
1733751577820485400,1.4754853515625,-0.6159668292641639,-0.12787410024106502,-0.4915747259199619
1733751577830461200,1.485461181640625,-0.4633737366996705,-0.023885902500152587,0.19989070418179034
1733751577840436200,1.495436279296875,-0.15871420579329132,-0.051348494443297386,0.3212649210095405
1733751577850412300,1.505412353515625,0.10447042829990387,-0.1551157429099083,0.5941659163445234
1733751577860388400,1.515388427734375,0.6920400151193141,-0.33166473447084427,0.5470984602212906
1733751577870364200,1.5253642578125,0.8064274417996407,-0.3227309019088745,0.673929188889265
1733751577880339500,1.53533935546875,0.6752068806748837,-0.2890425673186779,0.567202506095171
1733751577890315300,1.545315185546875,0.17468538964614272,-0.16006781235933304,0.3603828794330358
1733751577900291300,1.555291259765625,-0.37990189196057617,0.11671849997639655,0.25461130540668964
1733751577910267400,1.565267333984375,-0.7322434306919574,0.2136176162391901,0.01140109945833683
1733751577920242400,1.575242431640625,-1.425726045835018,0.15764613817036152,-0.06358896733522415
1733751577930218200,1.58521826171875,-1.1148142496008426,0.17929449087679386,-0.1443576175302267
1733751577940194300,1.5951943359375,-0.6788111157119274,0.2617541628986597,0.0863607711136341
1733751577950169300,1.60516943359375,-0.11200951856784522,0.1799590922653675,-0.32709844946861266
1733751577960145200,1.615145263671875,-0.042670097947120664,0.024781390035152433,-0.5828700308263302
1733751577970121500,1.62512158203125,0.5028782832879573,0.3004576953023672,-0.19380875391960142
1733751577980097300,1.63509716796875,0.37075050765778866,0.5691396116375923,0.1820902590751648
1733751577990072300,1.645072265625,0.2796704164046794,0.3521621635764837,-0.21788930220901964
1733751578000048400,1.65504833984375,0.42902277348227796,0.4326666098773479,-0.3643617199361324
1733751578010024200,1.665024169921875,0.002340498711541295,0.5842606084018945,-0.6904284882694482
1733751578020000300,1.675000244140625,0.4588052597403526,0.36248482014834876,-0.6506196249723434
1733751578029975300,1.684975341796875,0.5891291642863303,0.3443102810323238,-0.344628845462203
1733751578039951400,1.694951416015625,0.36190438991189,0.2202437563806772,-0.21589432899951932
1733751578049927200,1.70492724609375,0.20293087559528647,-0.0370393985837698,0.11238485468626022
1733751578059902200,1.714902099609375,0.030469957065582275,-0.17401333560347557,0.3742085756897926
1733751578069878300,1.724878173828125,-0.14742577292919157,-0.22992460791766642,0.6144108319938183
1733751578079854300,1.734854248046875,-0.26515198864340783,-0.2599684485256672,0.8584931446015834
1733751578089830400,1.744830322265625,-0.40603579258322714,-0.36393677252233025,0.7891285164743661
1733751578099805400,1.754805419921875,-0.47292847763895984,-0.5014578220307827,0.4572241280287504
1733751578109781200,1.76478125,-0.15972184846587478,-0.4786211363226175,0.5564344438433647
1733751578119757300,1.77475732421875,0.25594467290230094,-0.4869955814361572,0.48593701229393477
1733751578129732400,1.784732421875,0.2082663914043456,-0.5376251139551401,-0.02459434303045273
1733751578139708200,1.794708251953125,0.09343239000029861,-0.2837479680418968,0.0039016836136579513
1733751578149684200,1.804684326171875,-0.03266425223946571,-0.2539753455907106,-0.026583471021056175
1733751578159660300,1.814660400390625,-0.022423501797392963,-0.26934184154868124,-0.0866787510216236
1733751578169635300,1.82463525390625,0.009266863908618687,-0.145472300773859,0.03016775924861431
1733751578179611100,1.834611083984375,0.17046411868929862,-0.15255495251119136,0.13485153803825378
1733751578189587500,1.84458740234375,0.35155944844298065,-0.19062603223025798,0.06933715559840202
1733751578199563300,1.854563232421875,0.33717085760645565,-0.15351649101972578,0.026319267126917838
1733751578209538300,1.864538330078125,0.19537994875907896,-0.0722527507841587,0.2686637961566448
1733751578219514400,1.874514404296875,-0.2576056649170816,-0.21430618302524088,-0.020635376271605492
1733751578229490200,1.884490234375,-0.21617606855034827,-0.1796492956638336,0.14060440247654915
1733751578239465200,1.89446533203125,-0.09690678811259568,-0.1684779133081436,0.03591887012124061
1733751578249441300,1.904441162109375,-0.11420154871940612,-0.06288754106760025,0.03594692717194557
1733751578259417300,1.914417236328125,-0.18042787882089614,0.04653846381306648,-0.010791443127393722
1733751578269393200,1.92439306640625,-0.22359584328755736,0.08533025902211666,0.04540858300030231
1733751578279368400,1.934368408203125,-0.32388357907533644,0.07315116092860698,0.10538286696970463
1733751578289344300,1.94434423828125,-0.35386239162310956,0.01723696600496769,0.18369009548723697
1733751578299320300,1.9543203125,-0.34517654247283935,-0.05757072995901107,0.2572650347858667
1733751578309295400,1.96429541015625,-0.20378639644607902,-0.12815116361677645,0.2920481788754463
1733751578319271400,1.974271484375,-0.05177329572662711,-0.19711247164011,0.26855624412894247
1733751578329247200,1.984247314453125,0.011873977667093276,-0.2560954064846039,0.20487316876947878
1733751578339223300,1.994223388671875,0.03937003348842263,-0.3923597339302301,0.15536065758168696
1733751578349198300,2.0041982421875,0.02115735431909561,-0.514428362762928,0.028638649985194206
1733751578359174100,2.014174072265625,0.037930648335069414,-0.4583259517908096,0.0872802240461111
1733751578369150500,2.024150390625,0.10361834151521325,-0.4323194038748741,0.20466215636730192
1733751578379125200,2.034125244140625,0.08757438468709587,-0.46054713497161864,0.27780279590189455
1733751578389101300,2.044101318359375,-0.02710778715610504,-0.3794166657269001,0.2901882302224636
1733751578399077400,2.054077392578125,-0.16129048602208496,-0.2796662516862154,0.34986557707190513
1733751578409053400,2.064053466796875,-0.2066042303457856,-0.20745266386866568,0.3391483682245016
1733751578419028200,2.0740283203125,-0.15687997610345483,-0.17058511472046375,0.33376082996726036
1733751578429004300,2.08400439453125,-0.07335296711102128,-0.14944412701427937,0.23157120608091353
1733751578438980400,2.09398046875,-0.02389525485038757,-0.06172960320413112,0.09048632661104201
1733751578448956200,2.1039560546875,-0.04545841349139809,0.03212415401339531,-0.16159224544763565
1733751578458931200,2.11393115234375,-0.09658274379000067,0.043236499658226964,-0.33712650700807567
1733751578468907300,2.1239072265625,-0.15797522399425507,0.11488310124278067,-0.36019349434077735
1733751578478883300,2.13388330078125,-0.13031462526097892,0.16885492992699144,-0.339054260200262
1733751578488858000,2.143858154296875,-0.03287453398928046,0.16556173360049722,-0.3198819422185421
1733751578498834400,2.15383447265625,-0.07907280606254935,0.129722358456254,-0.15729600955843925
1733751578508810200,2.163810302734375,-0.13243863167762757,0.014585574713349342,0.007240472647547722
1733751578518786300,2.173786376953125,-0.10281257809028028,-0.049419572207331654,0.12950199370384216
1733751578528761300,2.18376123046875,0.00306976283416152,-0.13654840508401392,0.18982114558815955
1733751578538737400,2.1937373046875,0.08946355943456291,-0.272758956515789,0.15899463016986845
1733751578548713200,2.203713134765625,-0.033098990394920105,-0.3234264829576015,0.12148118433356285
1733751578558688500,2.2136884765625,-0.18392434263452886,-0.29406828652620315,0.08000058843195437
1733751578568664300,2.223664306640625,-0.12041034023165702,-0.2927618801027536,0.04595043479204178
1733751578578640100,2.23364013671875,-0.05109188933372497,-0.32275486730635167,0.07813187195062637
1733751578588616400,2.243616455078125,-0.11664601926207542,-0.34977848331034184,0.07066635837554931
1733751578598591200,2.25359130859375,-0.11138985229954122,-0.4263052581518888,0.05712298619151115
1733751578608567300,2.2635673828125,-0.0550980562351644,-0.3732452836155891,0.06005377894639968
1733751578618543400,2.27354345703125,-0.08625804139152168,-0.3495224627226591,0.14653963774442672
1733751578628519400,2.28351953125,-0.104762981505692,-0.3134551240414381,0.22753099077939987
1733751578638494200,2.293494140625,-0.059559419558197255,-0.26634792042970656,0.2340425646305084
1733751578648470500,2.303470458984375,0.029868045649677512,-0.2742968336075544,0.14985387685894966
1733751578658446300,2.3134462890625,0.08659925604462623,-0.3141004362076521,0.01840074908733368
1733751578668421400,2.32342138671875,0.06243599790781736,-0.3084165453523397,-0.0664712447732687
1733751578678397400,2.3333974609375,-0.01826060996428132,-0.2784562913745642,-0.08834873006045818
1733751578688373200,2.343373291015625,-0.11018135329261422,-0.35699265247285367,-0.11977028876245022
1733751578698349300,2.353349365234375,-0.22706366552859544,-0.42853404011726376,-0.0729103379100561
1733751578708324000,2.363323974609375,-0.306290785370022,-0.32779987573623653,0.045890813559293746
1733751578718300400,2.373300537109375,-0.1946462276570499,-0.1889209818780422,0.055225628137588495
1733751578728276200,2.383276123046875,0.01780351384654641,-0.12449731728434561,-0.05607493844330311
1733751578738251300,2.393251220703125,0.1340821611009538,-0.06512801347076892,-0.14804010543525217
1733751578748227300,2.403227294921875,0.1806828764952719,0.012375497448444366,-0.16914602182805538
1733751578758203400,2.413203369140625,0.23838088609576225,-0.0052460839599370954,-0.1204068331003189
1733751578768179500,2.423179443359375,0.16616422953829169,-0.09172083684206009,-0.057229953697323796
1733751578778154500,2.433154541015625,0.013586480673402547,-0.15640753628611564,0.01574117448925972
1733751578788130300,2.44313037109375,-0.08492650052681565,-0.19139292494952678,0.11225275273919105
1733751578798106000,2.453106201171875,-0.04383198133334517,-0.25930267809331414,0.2765530881017446
1733751578808081400,2.463081298828125,-0.014858400305360555,-0.36708266933262346,0.37246962306797504
1733751578818057200,2.47305712890625,-0.09818550281152129,-0.40842297998070715,0.3539227435082197
1733751578828033300,2.483033203125,-0.12078779524192214,-0.4272556907445192,0.37419746977388857
1733751578838009300,2.49300927734375,0.025005992571264506,-0.4668775070369243,0.3770324009388685
1733751578847984400,2.502984375,0.2471837857544422,-0.5313187072873116,0.4072580278545618
1733751578857960200,2.512960205078125,0.33779856105074285,-0.5541098002880811,0.43588615644574163
1733751578867936300,2.522936279296875,0.34691491057276724,-0.4226712855637073,0.3652180445045233
1733751578877912300,2.532912353515625,0.383265303979069,-0.2761889309644699,0.19042612574398515
1733751578887887400,2.542887451171875,0.32958383654356,-0.2119084742337465,0.07723463084995746
1733751578897863400,2.552863525390625,0.25691943621858954,-0.16162264058589934,-0.008639818051457405
1733751578907839200,2.562839111328125,0.2893092554308474,-0.1614800172448158,0.005691489639878273
1733751578917814300,2.572814208984375,0.30204335705861446,-0.27537235388457776,0.17493688018918035
1733751578927790000,2.5827900390625,0.3017652707695961,-0.4374298787564039,0.381438526943326
1733751578937766100,2.59276611328125,0.29472996530532836,-0.5249515103429555,0.43814591807126996
1733751578947742200,2.6027421875,0.24854557562693952,-0.5341378563612699,0.317131182205677
1733751578957717200,2.61271728515625,0.1403564190648496,-0.4350017748266458,0.1915145055025816
1733751578967693000,2.622693115234375,0.01956380151733756,-0.28760639703571794,0.1432552092462778
1733751578977669000,2.632669189453125,-0.009284691826254129,-0.12046294720172881,0.1486760652512312
1733751578987644200,2.64264404296875,0.03994271880984306,-0.036171968099474906,0.22257132254540918
1733751578997620200,2.6526201171875,0.017502777334302663,0.04383271198570728,0.2670622061789036
1733751579007596300,2.66259619140625,0.05842296287417412,0.08261223223507404,0.17608897283375263
1733751579017572000,2.672572021484375,0.029124095414578912,0.07073065578341484,0.006522679767012596
1733751579027547100,2.682547119140625,-0.030563480567932125,0.07175707622170448,-0.030366496691107747
1733751579037523200,2.692523193359375,0.000998509518057108,0.09567337386012077,0.08142565279901028
1733751579047499300,2.702499267578125,-0.009332476490736007,0.09511515545547009,0.08247603863477707
1733751579057474000,2.71247412109375,0.09427505136951804,0.09321721287965774,0.018693594554066658
1733751579067450400,2.722450439453125,0.2744973246157169,0.00042202480435371396,-0.01509410875737667
1733751579077426200,2.73242626953125,0.34877485922574997,-0.09298574221134186,0.014750994408130646
1733751579087402000,2.742402099609375,0.22742226970791815,-0.13698270484805106,0.0019885434687137602
1733751579097377000,2.752376953125,0.14292247016057372,-0.14602993465662,0.18910043009817598
1733751579107353000,2.76235302734375,-0.05213116925358772,-0.22320962044894693,0.3359890274107456
1733751579117329200,2.7723291015625,-0.22511823054924607,-0.26163667399883267,0.38930911418795583
1733751579127304200,2.78230419921875,-0.2509866851687431,-0.2814309232711792,0.2604448338657617
1733751579137280300,2.7922802734375,-0.27080329240337014,-0.1890349636465311,0.08165829251110553
1733751579147256000,2.802256103515625,-0.22742826105728745,-0.08068506356477737,-0.0026087211936712262
1733751579157232400,2.812232421875,-0.014151274949312209,-0.03161620449125767,-0.049214405024051666
1733751579167207200,2.822207275390625,0.13913126118406652,-0.15560089607834815,0.09516308625042438
1733751579177183200,2.832183349609375,-0.043397243177890774,-0.05823299326002598,-0.16983225052654743
1733751579187159000,2.842158935546875,0.04044087759032845,-0.03557926290333271,0.0036731355547904966
1733751579197135000,2.852135009765625,0.08805018550530075,-0.24429800118505954,0.16665888118743896
1733751579207110100,2.862110107421875,0.15380524483323096,-0.29283202272951603,0.27648177643120286
1733751579217086000,2.8720859375,0.05429375411495566,-0.3218722392529249,0.18758476483821868
1733751579227062300,2.882062255859375,-0.13546777024045586,-0.22168343379497527,-0.027670097213983533
1733751579237037000,2.892037109375,-0.200964617023617,-0.019080548045039177,-0.20630057122409343
1733751579247013000,2.90201318359375,-0.17710092635527253,0.10734510695338248,-0.13167349252402782
1733751579256989200,2.9119892578125,-0.13851649028658866,0.07990063518881797,0.13978022661209105
1733751579266965200,2.92196533203125,-0.24567352732196449,0.15769523800909518,-0.0863262843221426
1733751579276940000,2.93193994140625,-0.19290508307814597,0.25231062724888326,-0.23086919529139993
1733751579286916400,2.941916259765625,-0.19144480126723645,0.019297990188002587,-0.32813129964768883
1733751579296892200,2.95189208984375,-0.15517171088084578,-0.10012801518142223,-0.15693360598683356
1733751579306867200,2.9618671875,-0.15990400009974837,-0.1446095464646816,0.026867548659443855
1733751579316843300,2.97184326171875,-0.12923179846033453,-0.20851357109844684,0.03809270702898502
1733751579326819000,2.981819091796875,-0.05530073920041322,-0.18600597121417523,-0.007549684727191925
1733751579336795100,2.991795166015625,-0.06043474108800292,-0.10161620791256427,-0.0028501287341117856
1733751579346770200,3.001770263671875,-0.06718830700144171,-0.03990823201835155,0.09434650917053222
1733751579356746200,3.011746337890625,-0.09034472618326544,-0.04438450064957142,0.1548538771033287
1733751579366722000,3.02172216796875,-0.11960837619900702,-0.07238543725311755,0.21015490856468677
1733751579376697000,3.031697021484375,-0.10363105486631392,-0.08560030813515186,0.24674247172772884
1733751579386673200,3.041673095703125,-0.10226546560153364,-0.15270692820250986,0.21275661549568176
1733751579396649200,3.051649169921875,-0.13933262897506354,-0.20286592060029504,0.21286416752338408
1733751579406625300,3.061625244140625,-0.10338803989067673,-0.2578396198034286,0.1825947014659643
1733751579416600300,3.071600341796875,0.05116437004804611,-0.2921750201255083,0.1300093587040901
1733751579426576100,3.081576171875,0.2063220524035394,-0.32166882563531396,0.040168344259262086
1733751579436552200,3.09155224609375,0.18180720435008405,-0.28810265612006186,-0.023045944544672965
1733751579446527200,3.10152734375,0.08122033948525786,-0.20336393325030802,-0.0197200149923563
1733751579456503000,3.1115029296875,0.03098068306669593,-0.14866145220398902,0.026873978400230408
1733751579466479000,3.12147900390625,0.020868454375118015,-0.14410218146443365,0.039901802277565
1733751579476455200,3.131455078125,-0.0015210720874369143,-0.16262860275804997,0.11644494373202323
1733751579486430200,3.14143017578125,0.021561843466758726,-0.19993103619217872,0.14916531007289885
1733751579496406000,3.151406005859375,0.07794818594679236,-0.27182839766740796,0.14069208076000214
1733751579506382300,3.16138232421875,0.1583211148224771,-0.31440731019973756,0.0948749169588089
1733751579516357000,3.171357177734375,0.14066738471016288,-0.3587608311891556,0.12759060712456702
1733751579526333200,3.181333251953125,0.10299845605120062,-0.3648118017911911,0.1230167233377695
1733751579536309200,3.191309326171875,0.15205752438306808,-0.3213362326800823,0.1383925716459751
1733751579546285000,3.20128515625,0.14508315532580018,-0.26627251710593697,0.12973580245971678
1733751579556260000,3.211260009765625,0.07156433012858032,-0.26252806988060473,0.08108078488409519
1733751579566236200,3.221236083984375,-0.005796265188604593,-0.2710714418202638,0.08966916500926017
1733751579576212200,3.231212158203125,-0.0002466682374477386,-0.2651303613334894,0.1297352179378271
1733751579586187000,3.24118701171875,0.04936418875828385,-0.23022271408140657,0.10804361061155796
1733751579596163300,3.251163330078125,0.10261734777912497,-0.26573183435797687,0.07719839049279689
1733751579606139100,3.26113916015625,0.14736958576254547,-0.3528244268774986,0.11066928294003009
1733751579616115200,3.271115234375,0.1255049599569291,-0.37901393014490603,0.1366588797211647
1733751579626090200,3.28109033203125,0.03959916606917977,-0.4044990845352411,0.14939736526310443
1733751579636066300,3.29106640625,-0.009857231017202138,-0.42180093246996403,0.19388240367770193
1733751579646042000,3.3010419921875,-0.006819032365083694,-0.3905740195572376,0.1903776104271412
1733751579656017200,3.31101708984375,0.032735490844771266,-0.3456365612000227,0.133957804068923
1733751579665993200,3.3209931640625,0.08917911646999419,-0.22761282384395598,0.12344868501424788
1733751579675969000,3.330968994140625,0.024497312396764753,-0.13280161977112293,0.11885375843942164
1733751579685945300,3.3409453125,-0.037959874429553744,-0.08216331942379475,0.08152969769537448
1733751579695920000,3.350920166015625,-0.05344057135172188,-0.09599719898700713,0.01872048256099224
1733751579705896200,3.360896240234375,-0.045908568411692975,-0.16064239737689495,0.02649988439083099
1733751579715872300,3.370872314453125,-0.10046747626885771,-0.18417875578701495,0.01411503459215164
1733751579725848300,3.380848388671875,-0.07536576823815704,-0.20056758053004742,0.12488427077531813
1733751579735823000,3.390822998046875,-0.0077729720890522,-0.2099965031325817,0.25179157181084155
1733751579745799200,3.400799072265625,0.04445983090810478,-0.1953296798765659,0.2824883233696222
1733751579755775200,3.410775146484375,0.06749824973344802,-0.18397534216940403,0.1907166331231594
1733751579765750300,3.420750244140625,0.0883083249848336,-0.09919394920170306,0.10968085642457008
1733751579775726000,3.43072607421875,0.0314530498187989,-0.10784311960339546,0.04375730866193771
1733751579785702100,3.4407021484375,0.0030360066950321195,-0.16097499033212662,0.011846505138278007
1733751579795678200,3.45067822265625,0.009572130465507507,-0.19788287149071693,0.07405892342329025
1733751579805653000,3.460653076171875,-0.02944236758351326,-0.27349428505301476,0.16368191120326517
1733751579815629300,3.47062939453125,-0.04618300143890083,-0.324897140032053,0.31312077752053735
1733751579825605000,3.480605224609375,-0.023770167165994643,-0.3783130883991718,0.4471422944754362
1733751579835580200,3.490580078125,-0.003544540739059448,-0.38565117620229716,0.4634107077091932
1733751579845556200,3.50055615234375,0.0023485358875244854,-0.3390180198431015,0.4072492600262165
1733751579855532300,3.5105322265625,0.013799319706484675,-0.31027240235209463,0.3082698303580284
1733751579865508000,3.520508056640625,0.03495667402558029,-0.2790285383045673,0.20361235505342481
1733751579875483400,3.5304833984375,0.07452887902259826,-0.2084586260408163,0.06972936978638172
1733751579885459200,3.540459228515625,0.03841711667776108,-0.14703297421932218,-0.045375265252590176
1733751579895435000,3.55043505859375,-0.004546411257982254,-0.11787176166474818,-0.03151917385756969
1733751579905410300,3.560410400390625,0.019354761876538396,-0.16424422126114369,0.10450082343816756
1733751579915386400,3.570386474609375,0.04663198731541633,-0.27991642705500125,0.36355975590348244
1733751579925362400,3.580362548828125,-0.030840543943643568,-0.29102058939337727,0.26696692911088465
1733751579935338500,3.59033837890625,-0.047516916923783716,-0.20624679521024225,0.26169454166591166
1733751579945313500,3.6003134765625,-0.043265141230821605,-0.3047685442388057,0.15160978061556815
1733751579955289300,3.610289306640625,0.026953473377227782,-0.21078151603043077,0.14225450777113438
1733751579965265200,3.62026513671875,0.012894552886486053,-0.049528877800703044,0.11218787080943583
1733751579975240400,3.630240478515625,-0.056689270949363706,0.08110533480346202,0.040840544432401656
1733751579985216300,3.64021630859375,-0.11589666219949722,0.16544249113500117,0.0005798457145690918
1733751579995192300,3.6501923828125,-0.10015778926517814,0.08105740400850772,0.1309603758186102
1733751580005168400,3.66016845703125,-0.17527477037403733,0.3590998538851738,-0.3140653648942709
1733751580015143400,3.670143310546875,-0.18521277500987052,0.45164077493846416,-0.49097851359248157
1733751580025119200,3.680119140625,-0.2492986042176373,0.18822306274175643,-0.48352819758653637
1733751580035095600,3.690095458984375,-0.17297286837352438,0.1667301928579807,-0.18656535866260526
1733751580045070300,3.7000703125,-0.1680933161710389,0.06945873615145683,0.06446458112597465
1733751580055046400,3.71004638671875,-0.19697101734280584,-0.06471943266987801,0.14284370583593844
1733751580065022500,3.7200224609375,-0.11375615217261947,-0.0893149447441101,0.15447686048448084
1733751580074998300,3.729998291015625,-0.009144260442256927,-0.11460837595462799,0.1948684921056032
1733751580084973300,3.739973388671875,0.05607785648617428,-0.22035540006160734,0.17428396923840045
1733751580094949400,3.749949462890625,0.1356347973704338,-0.27190672360062595,0.19718027617931363
1733751580104925400,3.759925537109375,0.17551672590374945,-0.27962884228527546,0.24064064772129057
1733751580114900200,3.769900146484375,0.1532113705933094,-0.30952596789896486,0.18615677786171436
1733751580124876500,3.77987646484375,0.11601824275255203,-0.33497371288836003,0.07220189737975596
1733751580134852400,3.789852294921875,0.0785141492664814,-0.27483693183362484,0.006758242088556289
1733751580144828400,3.799828369140625,0.09940554612576961,-0.2375900279790163,-0.037059856849908826
1733751580154803200,3.80980322265625,0.03498831127285957,-0.21082301708459852,-0.0033159926801919937
1733751580164779500,3.819779541015625,-0.13309095810651778,-0.13185820144116878,0.07558569459915161
1733751580174755300,3.82975537109375,-0.3378431308448315,-0.03436696450412273,0.12161913149952888
1733751580184730400,3.83973046875,-0.4805559037774801,0.032307693886756896,0.1251782852858305
1733751580194706400,3.84970654296875,-0.5222334835559129,0.11377718582749366,0.07828267859816551
1733751580204682200,3.85968212890625,-0.4430681769043207,0.206924256080389,0.0026700959920883177
1733751580214658600,3.869658447265625,-0.3021457945197821,0.21398352694213388,-0.049508419534564016
1733751580224633300,3.87963330078125,-0.16893793203532695,0.19125497778356074,-0.05468202278017997
1733751580234609400,3.889609375,-0.06490062532252631,0.1794055500358343,-0.0433089803725481
1733751580244585200,3.899585205078125,-0.01990412112129852,0.1559557008653879,-0.037160979136824604
1733751580254560500,3.909560546875,-0.040887890705466265,0.17313713729083538,0.016301146459579467
1733751580264536300,3.919536376953125,-0.07828792102886363,0.18644494715332985,0.07330664375126361
1733751580274512400,3.929512451171875,-0.0781219350785017,0.20469430507123468,0.15571546236872671
1733751580284488400,3.939488525390625,-0.10553542718291282,0.23804478600919246,0.10394845025241374
1733751580294463500,3.94946337890625,-0.2049427268743515,0.29900925005972384,-0.004637012150883675
1733751580304439300,3.959439208984375,-0.36109073544144626,0.37767479049563407,-0.10790741701126098
1733751580314415400,3.969415283203125,-0.4428238467544317,0.40374329773187634,-0.12066168464422225
1733751580324390400,3.979390380859375,-0.33967615495827047,0.4302794224798679,-0.07811667438149451
1733751580334366200,3.9893662109375,-0.17484627929627894,0.3846206641107797,-0.008677227452397346
1733751580344342500,3.999342529296875,-0.08901216240525245,0.2691045256614685,0.10273381376564503
1733751580354318300,4.009318359375,0.009497275131009519,0.1696247452557087,0.1733662698715925
1733751580364293400,4.01929345703125,0.09712298814654349,0.08777765217423439,0.138086866697669
1733751580374269400,4.02926953125,0.112254469772242,0.03882277486920357,0.16328209823071957
1733751580384245500,4.03924560546875,0.0662006111383438,-0.03213525992929935,0.23783202004134654
1733751580394220300,4.04922021484375,0.0039437691897153855,-0.11699614787399767,0.34589375083148477
1733751580404196600,4.059196533203125,-0.15028236793670802,-0.13990180716514586,0.4473199891299009
1733751580414172400,4.06917236328125,-0.2594704724082723,-0.16757073533535002,0.39201486601531504
1733751580424148200,4.079148193359375,-0.30990119441952557,-0.09618249242603778,0.2099357128560543
1733751580434123300,4.089123291015625,-0.2607616081973538,-0.021599837389588355,0.06836100404262542
1733751580444099300,4.099099365234375,-0.09612345571517944,0.03901449804902077,0.03925006037056446
1733751580454075400,4.109075439453125,0.05738656903114169,0.07994096719920635,0.04676934995949268
1733751580464050200,4.11905029296875,0.13223112640678883,0.0959551134109497,0.07454699920117855
1733751580474026500,4.129026611328125,0.2479647800642997,0.08439268591105938,0.04937924019694328
1733751580484002300,4.139002197265625,0.4008849856913089,0.044271687924861906,0.0673334145605564
1733751580493978600,4.148978515625,0.42541853844523425,-0.03903612535893917,0.06371463954150676
1733751580503953400,4.158953369140625,0.3168482736110687,-0.10481997238993644,0.002264437800645828
1733751580513929500,4.168929443359375,0.189217918998003,-0.13293489076197146,-0.027584172496199606
1733751580523905300,4.1789052734375,0.13037296785209326,-0.19501228449046612,-0.017635025411844252
1733751580533880600,4.188880615234375,0.12488419771008193,-0.2500175478756428,0.012211831319332123
1733751580543856400,4.1988564453125,0.09050327774584292,-0.2608241885721683,0.05773381156623363
1733751580553832200,4.208832275390625,0.061926587080955504,-0.25417408303320405,0.11145663392543792
1733751580563808500,4.21880859375,0.03528174126148224,-0.20767945836186408,0.13142857785224915
1733751580573783300,4.228783203125,0.03958732950091362,-0.13021101875603197,0.09299509456157684
1733751580583759400,4.23875927734375,0.08633322551958263,-0.07643442038297653,0.14339549449980257
1733751580593735400,4.2487353515625,0.09571538637094198,-0.06058160221278667,0.1647831504434347
1733751580603710500,4.25871044921875,0.07743870205469429,-0.03552431784570217,0.11905775657892226
1733751580613686300,4.268686279296875,0.026472923318669198,0.03101823859810829,0.06058160221278667
1733751580623662600,4.27866259765625,-0.03723404437303543,0.08203589365184306,-0.0020277064353227616
1733751580633638400,4.288638427734375,-0.09377426224052905,0.07949088534414768,0.028090952974557874
1733751580643613400,4.298613525390625,-0.18993110876865685,0.13030103512704372,0.026578210324048994
1733751580653589500,4.308589599609375,-0.2811006684035063,0.16834990301430225,-0.01088905828297138
1733751580663565300,4.3185654296875,-0.3226793909173459,0.17944822013378142,-0.026403438279032704
1733751580673540400,4.328540283203125,-0.2724193492978811,0.1908949122995138,-0.003921557357907295
1733751580683516200,4.33851611328125,-0.1169774431735277,0.14458967272043227,-0.05247837525606155
1733751580693492500,4.348492431640625,0.10274090109355748,0.08558043439090252,-0.053418870976567265
1733751580703468300,4.35846826171875,0.26425189799852666,-0.00934065979719162,-0.05199789826273918
1733751580713443300,4.368443359375,0.33729433785565194,-0.08615501940846443,-0.052991000953316686
1733751580723419400,4.37841943359375,0.3244891437530517,-0.09539397239685057,0.01743336535990238
1733751580733395500,4.3883955078125,0.19048289743252098,-0.11624269915819167,0.10879238315224647
1733751580743370200,4.398370361328125,0.00809869691208005,-0.09405892440080642,0.1094184060961008
1733751580753346600,4.4083466796875,-0.1612374406605959,-0.07403554254770278,0.06082476331889629
1733751580763322400,4.418322265625,-0.29153263056874273,-0.042912674531340594,0.06615151129961014
1733751580773298200,4.428298095703125,-0.32567806127667426,0.023419454032182693,0.03616261574923992
1733751580783273500,4.4382734375,-0.27080131964199244,0.0886614492714405,-0.0017518121033906935
1733751580793249300,4.448249267578125,-0.17397293052785098,0.10446925925612449,-0.022575696684420107
1733751580803225300,4.458225341796875,-0.07671849802136421,0.11196399892568587,-0.00570814851373434
1733751580813200400,4.468200439453125,-0.005307385693117976,0.12400105820000171,0.01707622248530388
1733751580823176400,4.478176513671875,0.00784486828148365,0.11170914738178253,-0.01476210032403469
1733751580833152300,4.48815234375,-0.008431289867311715,0.1072878238081932,-0.023847908577322958
1733751580843128300,4.49812841796875,-0.08090075214207172,0.0917465558052063,0.02134469358474016
1733751580853103400,4.508103271484375,-0.20305355212688445,0.0767927323013544,0.0569119737893343
1733751580863079400,4.518079345703125,-0.31136618893817064,0.07301262924075126,0.10345862090885638
1733751580873055500,4.528055419921875,-0.3504368010886013,0.04915829092264175,0.16220803925842045
1733751580883030500,4.538030517578125,-0.30819311186000703,0.012324059522151947,0.21114070473164318
1733751580893006300,4.54800634765625,-0.16669855561070143,-0.020177695631980894,0.15969547191560268
1733751580902982400,4.557982421875,-0.03252455150783062,-0.046479427102208135,0.1000157869786024
1733751580912958000,4.5679580078125,0.09259659676328301,-0.08519114281237125,0.054527124479413026
1733751580922933000,4.57793310546875,0.23143851961195466,-0.14808511362075805,0.09850596693754196
1733751580932909000,4.587908935546875,0.2662247324414551,-0.20311960310041904,0.14854074843376874
1733751580942884900,4.597884765625,0.2582406018197536,-0.18216975405216215,0.13189590310305357
1733751580952860200,4.607860107421875,0.19429639130607246,-0.1823293285280466,0.13416209446936844
1733751580962836000,4.6178359375,0.12577931991890073,-0.18723755883574486,0.16298896050304174
1733751580972812000,4.62781201171875,0.0890152311451733,-0.13912439305186272,0.21794337048381565
1733751580982788000,4.6377880859375,0.04035378382876515,-0.15147358701527117,0.22282588182836768
1733751580992763100,4.64776318359375,0.03920753640308976,-0.13996259744167328,0.14591887549757956
1733751581002739000,4.657739013671875,0.06691840401887893,-0.10230185208916663,0.1341612176865339
1733751581012715000,4.667715087890625,0.038608109205216165,-0.07106967847943306,0.10467208835184573
1733751581022690000,4.67768994140625,0.025657442217320203,-0.09669804073274135,0.04211889380514622
1733751581032665900,4.687665771484375,0.026716595881432294,-0.1484101077914238,0.03757511289566755
1733751581042642200,4.69764208984375,0.045212183645367617,-0.16842647538185118,0.044051615433394906
1733751581052618000,4.707617919921875,0.06796878985464573,-0.22334347596168516,0.09814823954105377
1733751581062593000,4.717593017578125,0.13576865288317203,-0.2572597740888595,0.13645342027693985
1733751581072568800,4.72756884765625,0.19580153517201543,-0.2754980260908603,0.1581166782915592
1733751581082545200,4.737545166015625,0.2783972546637058,-0.2919213376253843,0.2599868609651923
1733751581092520000,4.74752001953125,0.29445640906095505,-0.3183417270392179,0.3472819903194904
1733751581102496000,4.75749609375,0.2825415148615837,-0.3340408159524202,0.4009919531971216
1733751581112472000,4.76747216796875,0.19613748912811277,-0.34359482623934745,0.35406010615229605
1733751581122448000,4.77744775390625,0.003918634748458862,-0.26575112358033653,0.2184095266908407
1733751581132423000,4.7874228515625,-0.1436988613605499,-0.18013561787605284,0.043245267486572266
1733751581142399000,4.79739892578125,-0.273754981815815,-0.09328618646264075,-0.020251345390081405
1733751581152375000,4.807375,-0.2733991541154682,0.0035457097828388213,0.03530687570273876
1733751581162349800,4.817349853515625,-0.22157003654837606,0.0791980398774147,0.082616031627357
1733751581172326100,4.827326171875,-0.09813421101570129,0.1466279005497694,0.06939268517792224
1733751581182302000,4.837302001953125,0.08895604830384254,0.16718202827870846,0.03724836515933275
1733751581192278000,4.847278076171875,0.26905264934375883,0.19489830272197722,-0.06443243242204189
1733751581202253000,4.857253173828125,0.34046588056385513,0.1964104608505964,-0.18593232145607472
1733751581212229000,4.86722900390625,0.35559681420028205,0.1817237638503313,-0.2332669040828943
1733751581222205000,4.877204833984375,0.3085442633852363,0.18194354408085345,-0.28461452174335716
1733751581232180200,4.88718017578125,0.24280454775691032,0.18824469005167482,-0.29273499209582804
1733751581242156000,4.897156005859375,0.0814481568917632,0.19513152695596217,-0.2762786550745368
1733751581252131800,4.9071318359375,-0.10174363368451594,0.252146961119771,-0.19518121131658553
1733751581262108200,4.917108154296875,-0.18941110348254442,0.27877719389200206,-0.07135521742254496
1733751581272083000,4.9270830078125,-0.22863807523846624,0.26372984688580037,-0.02085983267724514
1733751581282059000,4.93705908203125,-0.21179069307297466,0.25291560740470886,-0.0064095747813582415
1733751581292035000,4.94703515625,-0.14626520471721888,0.2011252144128084,-0.019433307005465028
1733751581302010000,4.957010009765625,-0.06600114304348827,0.16524200012683868,-0.015021628043055534
1733751581311986000,4.96698583984375,0.016935352709889412,0.09563596445918082,-0.020853110675513743
1733751581321962200,4.976962158203125,0.1073978600539267,0.03812017955780029,-0.012113047119975089
1733751581331938000,4.98693798828125,0.13922507694736122,0.018690671944618223,-0.01916793406754732
1733751581341913000,4.9969130859375,0.21120894766226408,0.039601942548155786,0.012354454660415648
1733751581351889000,5.006888916015625,0.2685984758354723,0.0614735826164484,0.05540040018260479
1733751581361865000,5.016864990234375,0.23059797713458538,0.061030515024065965,0.09957885686606169
1733751581371840000,5.026840087890625,0.12963789504319428,0.1030436103671789,0.15113777918964624
1733751581381815800,5.03681591796875,0.12423749730437993,0.11835691483318805,0.15719138014018535
1733751581391792000,5.046792236328125,0.1471510476410389,0.07276245387196541,0.17258388732224703
1733751581401767000,5.056766845703125,0.16815204235464334,0.05516425333917141,0.17015461434870957
1733751581411743000,5.066742919921875,0.13274696697443722,0.06435001483559608,0.20314269171506166
1733751581421719000,5.076718994140625,0.07767799070328474,0.07665244704782963,0.19942074858248232
1733751581431695000,5.086695068359375,0.010004384402930735,0.05888941134214401,0.1548734585866332
1733751581441670000,5.096669921875,-0.045156069543957705,0.05006722246110439,0.07566080566197633
1733751581451646200,5.106646240234375,-0.09173603441119194,0.003982932156324386,0.002595277190208435
1733751581461622000,5.1166220703125,-0.14000994371473788,-0.02428863808214664,-0.05710632731765508
1733751581471597800,5.126597900390625,-0.17186843252927064,-0.01698854420185089,-0.0268415374353528
1733751581481573000,5.136572998046875,-0.24138386730402706,0.02145195335149765,0.02879267150312662
1733751581491549000,5.146548828125,-0.2740975116431713,0.05223579867184162,0.01837064621001482
1733751581501525000,5.15652490234375,-0.2614408591657877,0.0678086308568716,0.005957447099685669
1733751581511500000,5.1665,-0.24699352387934922,0.05564882198572158,-0.02570055070668459
1733751581521476000,5.17647607421875,-0.17794278400689362,0.04438450064957142,-0.091195059402287
1733751581531452000,5.186451904296875,-0.10212795682698488,0.05139876332581043,-0.13073475036919116
1733751581541427000,5.196427001953125,-0.03363514309823513,0.046972179055213927,-0.1829497985139489
1733751581551403000,5.206403076171875,-0.015365326914191246,0.047860067805647846,-0.2509866851687431
1733751581561379000,5.216379150390625,-0.037190497492253775,0.05141512993872165,-0.29237638791650533
1733751581571355100,5.226355224609375,-0.02334288166463375,0.03282791836857796,-0.2975929535210132
1733751581581330200,5.236330078125,-0.007905658558011055,0.010664017355442047,-0.23573256354406474
1733751581591306000,5.246305908203125,-0.045239363913238045,0.013331775259971618,-0.13368994691297412
1733751581601282000,5.256281982421875,-0.1608534097790718,0.011404606589674949,-0.03867152983024716
1733751581611257000,5.266257080078125,-0.2628048409953713,0.051905543804168695,0.019719430470466613
1733751581621233000,5.27623291015625,-0.36327626278698444,0.060680386412143704,0.026359453006833792
1733751581631209000,5.286208984375,-0.4506628698170185,0.020840543454885483,-0.03743818864300847
1733751581641185000,5.29618505859375,-0.5028016378551722,0.03122866647839546,-0.08608940682634711
1733751581651160000,5.30616015625,-0.5092749255225062,0.016315174984931943,-0.14013649270385503
1733751581661136000,5.316135986328125,-0.46661739479601383,-0.005807809495925903,-0.1461196587666869
1733751581671112000,5.32611181640625,-0.377281407263875,0.01504617796242237,-0.09298311186283827
1733751581681087000,5.3360869140625,-0.27813831146657464,0.04425824392139911,-0.02146525122448802
1733751581691063000,5.34606298828125,-0.20344372048825024,0.05830898110568523,-0.024373978278040883
1733751581701039000,5.3560390625,-0.1490481134340167,0.026146833169460294,-0.04254661769792437
1733751581711015000,5.366014892578125,-0.05598229172378778,-0.009176993668079376,-0.09226970289647579
1733751581720990000,5.375989990234375,0.013441665375232696,0.006445522877573967,-0.134650608638674
1733751581730966000,5.385966064453125,0.11968904021978377,0.01699555846452713,-0.15595584699586032
1733751581740942000,5.395942138671875,0.19554069227874277,0.002096095496416092,-0.21477394666746258
1733751581750916900,5.405916748046875,0.23020167129337787,0.018654431587457655,-0.1902104371666908
1733751581760893200,5.41589306640625,0.21729455118626353,0.0300461786955595,-0.12252470203712582
1733751581770869000,5.425868896484375,0.16181114889532328,0.051204117536544795,-0.07116963172256946
1733751581780844800,5.4358447265625,0.1907382604330778,0.09037234484255313,0.0048695057325065134
1733751581790820000,5.445820068359375,0.2362149402335286,0.08279284949898719,0.025345745919644832
1733751581800796000,5.4557958984375,0.23631109408438206,0.031814357411861414,0.045308775887638326
1733751581810772000,5.46577197265625,0.17100246334969996,0.03590367255210876,0.01722279134914279
1733751581820747000,5.4757470703125,0.09472878648638725,0.04103635926544666,-0.023641718480736016
1733751581830723000,5.48572314453125,0.02915741316229105,0.07148761163055896,0.004217471564561128
1733751581840699000,5.495698974609375,-0.05296937364339828,0.09751227972507476,-0.006792290488630533
1733751581850675200,5.50567529296875,-0.14895985062867403,0.1544002881169319,-0.10217764118760823
1733751581860650000,5.51564990234375,-0.22262568308115005,0.15588088206350803,-0.09511690902113915
1733751581870626000,5.5256259765625,-0.22902561325132845,0.12685001789033412,-0.0017808920674026011
1733751581880602000,5.53560205078125,-0.22826076635867357,0.015059621965885162,0.18087401515319942
1733751581890577200,5.5455771484375,-0.24342443322092294,-0.16684359010457991,0.3566631282575428
1733751581900553000,5.555552978515625,-0.22829233054071663,-0.22882979841828344,0.504977374459058
1733751581910529000,5.565529052734375,-0.25994740573763847,-0.20850480327010154,0.5496328010044992
1733751581920505000,5.575505126953125,-0.3069721917629242,-0.14679799641966818,0.5515561702825129
1733751581930480000,5.585480224609375,-0.2700532046884298,-0.017192542341351508,0.45394262214004993
1733751581940456200,5.595456298828125,-0.18521248274892568,0.12026128714978694,0.26439137953445313
1733751581950432000,5.605431884765625,-0.09248977538794279,0.19354630359113215,0.044811493889987467
1733751581960407000,5.615406982421875,0.008113163828849792,0.27648236095309253,-0.0877291368573904
1733751581970383000,5.625383056640625,0.07938800949156284,0.32880408434271813,-0.2213420730113983
1733751581980359200,5.635359130859375,0.11154431220889091,0.34759003335535527,-0.2840884520426392
1733751581990335000,5.6453349609375,0.17731383845359086,0.31507191158831116,-0.18477233776599167
1733751582000310000,5.65531005859375,0.16022797135710715,0.21463409980535506,-0.07538622650429606
1733751582010286000,5.6652861328125,0.14067074571102856,0.0712292529553175,-0.039280893900245424
1733751582020262000,5.675261962890625,0.18808219296634196,-0.024995909568667412,0.025790567077696322
1733751582030237000,5.68523681640625,0.20119798738807437,-0.11240297486484051,0.0487616928204894
1733751582040213000,5.695212890625,0.17821283311992883,-0.21239012027084825,0.09129925042912364
1733751582050189000,5.70518896484375,0.08960282177478074,-0.1894265933126211,0.10004852020442485
1733751582060165000,5.7151650390625,0.04938713124245405,-0.14432488430440424,0.09437325104698538
1733751582070140200,5.72514013671875,0.0454638203188777,-0.1103249995470047,0.12392477809339761
1733751582080116000,5.735115966796875,0.053090369674563404,-0.09027239159941673,0.12761924869716168
1733751582090092000,5.745092041015625,0.04484714972525835,-0.03166822693943977,0.15160890383273362
1733751582100067000,5.755067138671875,0.048691842454671855,0.03591302490234375,0.15446809265613556
1733751582110043100,5.765043212890625,0.06329524508565663,0.10027239208817482,0.1431060100339353
1733751582120019000,5.77501904296875,0.02947451628744602,0.14099194048941135,0.07477057882398366
1733751582129995000,5.7849951171875,-0.010482815569639205,0.19264906249046324,-0.022553484852612018
1733751582139970000,5.794969970703125,0.016526771908998487,0.20950141309201717,-0.06573796206265688
1733751582149945900,5.80494580078125,0.0751806209295988,0.17963526713848113,-0.037128684302419425
1733751582159922200,5.814922119140625,0.09079495416879653,0.1069780272066593,-0.05975275017321109
1733751582169897000,5.82489697265625,0.07839899845421314,0.0021796821266412735,-0.03646408291384578
1733751582179873000,5.834873046875,0.0620703794658184,-0.09382043946981429,-0.025978198604285716
1733751582189849000,5.84484912109375,0.048931496429443354,-0.15502221940755842,0.045978637973219154
1733751582199824100,5.85482421875,0.0459472199216485,-0.17834347376227377,0.10779621172174811
1733751582209800000,5.864800048828125,0.06320289062708616,-0.18718553638756275,0.1428305540934205
1733751582219776300,5.8747763671875,0.039674131001532074,-0.17519874599575996,0.14061214739158748
1733751582229752000,5.884751953125,0.05658756414055824,-0.15850187821686268,0.1061583813868463
1733751582239727000,5.89472705078125,0.07653963432312011,-0.1057195515781641,0.03639204059094191
1733751582249703000,5.904702880859375,0.07040361578613519,-0.05353694439828396,-0.005802841059863567
1733751582259679000,5.914678955078125,0.0708344084188342,-0.03024433161616325,-0.01848448184803128
1733751582269654000,5.924654052734375,0.06688683983683585,-0.03958323784768581,0.013054565753787755
1733751582279629800,5.9346298828125,0.0272445652782917,0.018553893822431562,0.013005465915054082
1733751582289606100,5.944606201171875,-0.049883974848687646,0.041754736667871474,-0.011686784531921148
1733751582299582000,5.95458203125,-0.08528174370527267,0.01982815154194832,-0.029236323617398738
1733751582309557000,5.964556884765625,-0.05594955849796533,0.00781914931833744,-0.045522710899263616
1733751582319533000,5.974532958984375,-0.05068506209850311,0.03099953389763832,0.005219488213956356
1733751582329509000,5.984509033203125,-0.06524053393453359,0.05659574744701385,0.04144347876161337
1733751582339484000,5.99448388671875,-0.06726327193379401,0.04320668904185295,0.06723828362300992
1733751582349460200,6.004460205078125,-0.10089461563974618,0.03678396251797676,0.05252016857117414
1733751582359436000,6.01443603515625,-0.1523912863820791,0.0778776049286127,0.010957008952647448
1733751582369411800,6.024411865234375,-0.14002104963064194,0.11649053643941878,0.03638882572054863
1733751582379387100,6.03438720703125,-0.13179594985991716,0.15711714586019515,0.01107610528767109
1733751582389363000,6.044363037109375,-0.09897738384157419,0.1790098287165165,0.01283390874043107
1733751582399339000,6.054339111328125,-0.07801233722418546,0.13449088803231715,0.0879188142105937
1733751582409314000,6.06431396484375,-0.028423253668844697,0.11937749005258083,0.13190350188761948
1733751582419290000,6.0742900390625,-0.012026245619356632,0.11963175707459449,0.16086802282631396
1733751582429266000,6.084265869140625,-0.0010147300004959105,0.09102350222766399,0.1642388144336641
1733751582439242200,6.0942421875,-0.0298348740324378,0.06797229698598384,0.1496402341082692
1733751582449217000,6.104217041015625,-0.10083002597093582,0.0738864894658327,0.17173896093070506
1733751582459193000,6.114193115234375,-0.10454349353611468,0.04331307202577591,0.15181640910357236
1733751582469169200,6.124169189453125,-0.08289747891724109,0.009417232164740563,0.14203984210714696
1733751582479144200,6.134144287109375,-0.027710136963427064,0.06192717160284519,0.11591112911626696
1733751582489120000,6.1441201171875,0.04696808740198612,0.054822892555594444,0.11413140609264373
1733751582499096000,6.154095947265625,0.044483869370818135,0.061893269333243364,0.0930664062321186
1733751582509072100,6.164072021484375,-0.012630056731402873,0.056065586093068116,0.07804375527575612
1733751582519047000,6.174046875,-0.12214344763457774,0.04176934971511364,0.10106865703240037
1733751582529023000,6.18402294921875,-0.11721914297491311,0.05893383500576019,0.146428140193969
1733751582538999000,6.1939990234375,-0.10257540833353995,0.03231237006187439,0.13202289048358798
1733751582548974000,6.20397412109375,-0.07440729846954346,0.01236789866387844,0.09889014394953846
1733751582558950000,6.213949951171875,-0.043913668267428874,-0.0012497078001499175,0.11535992497429251
1733751582568926200,6.22392626953125,0.004128185845911503,0.018589549657702445,0.07641410824730992
1733751582578901000,6.23390087890625,0.053254620325565334,0.010509119054675102,0.02555792736560106
1733751582588877000,6.243876953125,0.11116086584925651,-0.001550152051448822,0.03046951867416501
1733751582598853000,6.25385302734375,0.04033844012916088,0.02048106249272823,-0.02340966329053044
1733751582608829000,6.263828857421875,-0.10713000289797782,0.00315232655107975,-0.09345350585356355
1733751582618804000,6.273803955078125,-0.16878449503928422,-0.038331776481866836,-0.1112735324434936
1733751582628780000,6.283780029296875,-0.1641729095906019,-0.047478959533572195,-0.09331906581893562
1733751582638756000,6.293756103515625,-0.1880722560942173,-0.026508652219176292,-0.05185162165984511
1733751582648732000,6.30373193359375,-0.21603870590627192,-0.011615618991851807,-0.015033318480849265
1733751582658707200,6.313707275390625,-0.08487053255587816,0.0259288065046072,-0.0531024985037744
1733751582668683000,6.32368310546875,0.06597060177475214,0.027862989437580105,0.008068447904288768
1733751582678659000,6.3336591796875,0.1619882590278983,0.03555646654963493,0.017041151171922682
1733751582688634000,6.343634033203125,0.15905220557600258,0.07732990791797638,0.009896686244755983
1733751582698610200,6.353610107421875,-0.004746610005199909,0.12084639356136322,-0.051328474568575616
1733751582708586000,6.3635859375,-0.20417349606752394,0.20347616145312786,-0.11378054682835936
1733751582718561000,6.37356103515625,-0.3230430365979671,0.3167091574013233,-0.09913900414407252
1733751582728537000,6.383537109375,-0.3593503215149045,0.46485798390805716,-0.048371232198178765
1733751582738513000,6.393512939453125,-0.3439277114555239,0.5875584809035063,-0.03007832739949226
1733751582748489200,6.4034892578125,-0.2811106052756309,0.6654734952330589,-0.05332125582098961
1733751582758464000,6.413464111328125,-0.23319559241235255,0.7115478486657142,-0.11269450515732168
1733751582768440000,6.423440185546875,-0.1683171697884798,0.7868821988523006,-0.19892142075821756
1733751582778416000,6.433416015625,-0.09908376682549715,0.777200178271532,-0.17226050058677791
1733751582788391200,6.44339111328125,-0.05848199958503246,0.7878209410071373,-0.1266917585887015
1733751582798367000,6.453366943359375,-0.10812456689327955,0.8102274186044931,-0.04846826283186674
1733751582808343000,6.463343017578125,-0.17628975610285996,0.7776005757659673,-0.007382511466741562
1733751582818319000,6.473319091796875,-0.2818374582454562,0.7270394323080778,0.05224865815341472
1733751582828294100,6.483294189453125,-0.42134763574451206,0.6874936038613318,0.18823621448427438
1733751582838270000,6.49327001953125,-0.5142562210664153,0.6764771198064088,0.1917414461262524
1733751582848246000,6.50324609375,-0.561241844125092,0.3568780861824751,0.24671719115599988
1733751582858221000,6.513220947265625,-0.37840573511868714,0.7429962953746319,0.4513524595163762
1733751582868196900,6.52319677734375,-0.38121611636430025,0.5922574523746967,0.3546775073982775
1733751582878173200,6.533173095703125,-0.30016981827169653,0.3896118965268135,0.4313371148392558
1733751582888149000,6.54314892578125,-0.2786266795054078,0.4990069217473268,0.5251318353459239
1733751582898124000,6.5531240234375,-0.43457390480339525,0.5010545019268989,0.45927141594737764
1733751582908100000,6.56310009765625,-0.4849082537680864,0.49254912391006944,0.39788960326761
1733751582918077000,6.573076904296875,-0.42318858743607995,0.5633347247511148,0.36205782690793276
1733751582928052000,6.583052001953125,-0.3543365850061178,0.5335580106467008,0.21023060414940117
1733751582938027800,6.59302783203125,-0.18247838160991667,0.5227309116840362,0.18235650879591703
1733751582948003800,6.60300390625,-0.18224866450726984,0.1671668307095766,0.3734896137654781
1733751582957979000,6.612978759765625,0.034303251618146895,0.53807285772264,0.519392999432981
1733751582967955000,6.622954833984375,-0.02601063956916332,0.4844727849602699,0.26317425882965323
1733751582977930800,6.6329306640625,-0.20318916120529174,0.27665187230110166,0.14449176530390978
1733751582987906800,6.64290673828125,-0.30907968543618913,0.48991760636270043,0.26889760491251946
1733751582997881900,6.6528818359375,-0.44322994333729143,0.3975415204823017,0.3435366663113236
1733751583007858000,6.66285791015625,-0.5863828612528741,0.252402397185564,0.4487281023621559
1733751583017834000,6.672833984375,-0.6327979909472167,0.23126199400126932,0.5276414800792932
1733751583027809000,6.68280908203125,-0.6399670057937502,0.22330431299507617,0.5439893882900476
1733751583037784800,6.692784912109375,-0.5624459592178463,0.212558462575078,0.5545137049138545
1733751583047761000,6.702760986328125,-0.43832405111715195,0.20733634401261805,0.515603251761198
1733751583057737000,6.712737060546875,-0.24462533344328402,0.19035247598588464,0.33006343675404787
1733751583067711700,6.722711669921875,-0.0756895933650434,0.20094985784590244,0.12500848167687653
1733751583077688000,6.73268798828125,-0.09118176152929663,0.2017798789292574,-0.01009878468811512
1733751583087663900,6.742663818359375,-0.19327917708754538,0.09983224710524082,-0.025249592068791387
1733751583097639000,6.752638916015625,-0.24253902868852018,0.05532324329316616,0.07352204006761312
1733751583107615000,6.762614990234375,-0.21384192651435732,0.07168751811683177,0.21886253115534782
1733751583117590800,6.7725908203125,-0.1829645576916635,0.06561608924865722,0.31162615504860874
1733751583127566800,6.78256689453125,-0.1206295359402895,0.026289456510543822,0.306819631549716
1733751583137542000,6.7925419921875,-0.10065130840316414,-0.010104629907011985,0.23918635725975035
1733751583147518000,6.80251806640625,-0.1081977782599628,-0.04522504312694072,0.20589900468587874
1733751583157493800,6.81249365234375,-0.09850888954699039,-0.1285024612724781,0.2042664350479841
1733751583167468800,6.82246875,-0.08670213189721107,-0.30431904690563677,0.1929430770009756
1733751583177444900,6.83244482421875,-0.010551935283094643,-0.3806125975131988,0.35397067430317397
1733751583187421000,6.8424208984375,-0.028286329416185616,-0.4453285230517387,0.48181671749353405
1733751583197397000,6.85239697265625,-0.04513049671128392,-0.5132318464547395,0.47597734381556506
1733751583207372000,6.8623720703125,0.06432780300378799,-0.5661240632086992,0.4026309525758028
1733751583217347800,6.872347900390625,0.12249540287740528,-0.5926140107274055,0.3029132717609405
1733751583227323600,6.88232373046875,0.1308645872939378,-0.6570277384489774,0.32325930969715116
1733751583237299000,6.892298828125,0.22021518787331879,-0.6833218711346387,0.4073369383096695
1733751583247274800,6.902274658203125,0.3829974468231201,-0.8313853574454784,0.6075725104063749
1733751583257250800,6.912250732421875,0.3980951357770711,-0.7162655248373746,0.49759062520861624
1733751583267227000,6.922226806640625,0.38724692096114155,-0.23634967252910136,0.2428787820369005
1733751583277202000,6.932201904296875,0.31499015158899124,-0.5689420432388782,0.12183891173005103
1733751583287177700,6.942177734375,0.40052389729395504,-0.49743280429840087,0.14785948817133904
1733751583297154000,6.952154052734375,0.3633768005520105,-0.45108781723082064,0.2569739428848028
1733751583307128800,6.96212890625,0.15877433848269282,-0.6251484991073608,0.4783294598996639
1733751583317105000,6.97210498046875,0.19155136691424995,0.03364215736091137,0.2122013197004795
1733751583327081000,6.9820810546875,-0.03915894802100956,-0.089585578379035,0.0013654431343078613
1733751583337056000,6.992055908203125,-0.3494441367894411,-0.061732525813579554,-0.06579553746879101
1733751583347031800,7.00203173828125,-0.38758718576617535,0.06510404807329177,0.09232114082276821
1733751583357008000,7.0120078125,-0.32033023397531357,-0.022711598023772237,0.21669921564161776
1733751583366984000,7.02198388671875,-0.12056290044486521,-0.09847206466794013,0.2565168467670679
1733751583376958700,7.031958740234375,0.1819032120704651,-0.11491934159994124,0.31258535546958444
1733751583386935000,7.04193505859375,0.37667350449860093,-0.1214396832793951,0.38096740230023857
1733751583396910800,7.051910888671875,0.4114940579891205,-0.0895849938571453,0.3989543098896742
1733751583406886000,7.061885986328125,0.27214754661917684,-0.040751112583279604,0.3585176700830459
1733751583416861700,7.07186181640625,0.04050740348789841,-0.023769582644104958,0.26046938378512857
1733751583426838000,7.081838134765625,-0.16749591653347015,0.023370938715338706,0.27409049738049507
1733751583436813800,7.091813720703125,-0.40837855631709097,0.2268926928758621,0.4159533754855394
1733751583446788900,7.101788818359375,-0.618482611477375,0.299307356223464,0.6188087746918202
1733751583456765000,7.111764892578125,-0.5651192700803279,0.14979425562620163,0.6697673930346966
1733751583466740700,7.12174072265625,-0.2867132475882768,0.035270050823688504,0.5036304898947477
1733751583476715800,7.1317158203125,-0.058491351935267444,-0.03434592171609401,0.1773719983816147
1733751583486691800,7.14169189453125,0.028031918546988163,-0.11940379353761672,-0.07261690792143344
1733751583496668000,7.15166796875,0.07981412594914436,-0.18921967256367206,-0.1691886919260025
1733751583506643700,7.161643798828125,0.16539163773059845,-0.2711602891474962,-0.12858370981514453
1733751583516619000,7.171618896484375,0.27102701815664765,-0.3868617210358381,-0.010948094993829727
1733751583526594800,7.1815947265625,0.27339783894121644,-0.44001638811826704,0.1161065055578947
1733751583536571000,7.19157080078125,0.18578209933042525,-0.3830290110051632,0.2115209362208843
1733751583546546000,7.2015458984375,0.07432312731742859,-0.32654549176096914,0.2458247723609209
1733751583556522000,7.21152197265625,0.04243278205990791,-0.2671785260349512,0.2530266665637493
1733751583566497800,7.221497802734375,0.007976381140085868,-0.10857669457495212,0.2812123120844364
1733751583576473900,7.231473876953125,-0.09480827233023009,-0.016046294915676117,0.28521804059445854
1733751583586449000,7.241448974609375,-0.10497427703565917,0.017098434317111968,0.15641805768013
1733751583596424700,7.2514248046875,-0.17406477352976799,0.028769582888484,0.03478022148013115
1733751583606401000,7.261401123046875,-0.22180267626047134,-0.0173234752446413,0.17763620227575302
1733751583616375800,7.271375732421875,-0.2917734535872936,-0.15866788243353366,0.3568511981755495
1733751583626351900,7.281351806640625,-0.32491935186386106,0.1724076539725065,0.04995148712694645
1733751583636328000,7.291327880859375,-0.22526538393497467,0.15618366440236567,-0.0432698174059391
1733751583646303000,7.301302978515625,-0.00802665915575344,0.12678805857002734,-0.1334258891493082
1733751583656278800,7.31127880859375,0.15299509749412535,0.21626491587758062,-0.0641927784472704
1733751583666255000,7.321255126953125,0.18931261154413223,0.03711830903887749,0.15507190376818178
1733751583676231000,7.33123095703125,0.14923663087659514,-0.05858838256895542,0.2099918269574642
1733751583686206000,7.3412060546875,0.06233925953507423,-0.016097148320078847,0.2366699905246496
1733751583696181800,7.351181640625,-0.09901450098156929,0.01608136622905731,0.1779845773220062
1733751583706157800,7.36115771484375,-0.2752841093455441,0.1082639753639698,0.13914894297122954
1733751583716132900,7.3711328125,-0.5285083260416984,0.22819909929931162,0.05335924974381923
1733751583726108700,7.381108642578125,-0.6393886213839054,0.3348948024332523,-0.059871992638707155
1733751583736085000,7.3910849609375,-0.40953941679000855,0.23646248525381086,0.00848667331635952
1733751583746060800,7.401060791015625,-0.1742226127062924,-0.006532616639137268,-0.07548866396546364
1733751583756035800,7.411035888671875,0.14409987990949302,-0.03777180451154709,-0.11074176365435123
1733751583766012000,7.421011962890625,0.2995464622089639,-0.400672219723463,0.11930500933825969
1733751583775988000,7.430988037109375,0.3918763708600774,-0.6078934129238128,0.35841654779613014
1733751583785962800,7.440962646484375,0.28406824950482695,-0.6318289997845887,0.4883604400485754
1733751583795939000,7.45093896484375,0.05675006122589111,-0.4637140745699405,0.39009763421714305
1733751583805915000,7.460914794921875,-0.26864041528105737,-0.1458347043454647,0.29354923108816144
1733751583815890700,7.470890625,-0.5534265307316556,0.12105448335409164,0.18597382251024244
1733751583825866000,7.480865966796875,-0.7985609462082386,0.3392448143362999,0.1025391679763794
1733751583835841800,7.490841796875,-0.8053986832737923,0.39372166993319985,0.08285130168795585
1733751583845817900,7.50081787109375,-0.5526806442677974,0.2767816361606121,0.19466098683476446
1733751583855793000,7.51079296875,-0.3537479714632034,0.09442541962563991,0.004327215549349785
1733751583865769000,7.52076904296875,0.018846081702038643,0.022930209210515022,-0.11628478473424911
1733751583875744800,7.530744873046875,0.22264672586917875,-0.17906302020847797,-0.15116145232617853
1733751583885719800,7.5407197265625,0.3237023042242974,-0.30169688170850273,-0.25143735154569147
1733751583895696000,7.55069580078125,0.3932709304910153,-0.3429717259049415,-0.15479600943624972
1733751583905672000,7.560671875,0.3880208279430866,-0.356660059517622,-0.14588964940309523
1733751583915647700,7.570647705078125,0.3381797423880547,-0.29500059894025327,-0.15617080492079258
1733751583925622800,7.580622802734375,0.1967161657989025,-0.2431447394967079,-0.1529313846081495
1733751583935598600,7.5905986328125,0.04044540763497352,-0.24195816006064413,-0.05982581540942192
1733751583945574700,7.60057470703125,0.013177388415858148,-0.23001871594190595,0.07926876702606678
1733751583955549700,7.6105498046875,-0.06086743341684341,-0.17382219694554804,0.12518296146094798
1733751583965525500,7.620525390625,-0.16137020019479095,-0.13754618394970894,0.13830781597197056
1733751583975501800,7.630501708984375,-0.11615260972194373,-0.1264279930859804,0.16101532234251498
1733751583985477600,7.6404775390625,0.0011094225466251372,-0.13305237966179848,0.15558219137787818
1733751583995452700,7.65045263671875,0.12589198651313782,-0.16953355984091759,0.17841069377958774
1733751584005428700,7.6604287109375,0.17810498883128165,-0.17880173892378806,0.26349428456425666
1733751584015404800,7.67040478515625,0.16920388949513435,-0.16921207280158995,0.36227205418050284
1733751584025379600,7.680379638671875,0.1483494636453688,-0.13703531181812287,0.4376093269765377
1733751584035355600,7.690355712890625,0.02692074015140533,-0.0765618461549282,0.4348959763646126
1733751584045331700,7.700331787109375,-0.020435908176749944,-0.11268822154700756,0.35756665296852586
1733751584055307500,7.7103076171875,-0.050286418169736856,-0.12564064210057257,0.2563888364732265
1733751584065282600,7.720282470703125,-0.19978139858841895,-0.08995499621331692,0.25007015484571454
1733751584075258600,7.730258544921875,-0.3229775701463222,-0.03337736894488334,0.2963274636298418
1733751584085234700,7.740234619140625,-0.19294716865420342,0.02550269004702568,0.39715632055699823
1733751584095209500,7.75020947265625,0.06599588234648109,0.035820378182828426,0.4791390227168798
1733751584105185800,7.760185791015625,0.23343115473389625,-0.006315174496173858,0.44173254438638687
1733751584115161600,7.77016162109375,0.2565478264272213,-0.07727467059940099,0.4378630094766617
1733751584125137700,7.7801376953125,0.10349778387546539,-0.08612900818437337,0.45053310595750806
1733751584135112700,7.79011279296875,-0.02902618799805641,-0.07184533902704715,0.4286971217244863
1733751584145088800,7.8000888671875,-0.024379238975048064,-0.07801993600875139,0.2840489968150854
1733751584155064600,7.810064697265625,0.06603241496458649,-0.07088759991079568,0.1635363652527332
1733751584165039900,7.820039794921875,0.06699906803965568,-0.07094809792637824,0.15590601650476454
1733751584175015700,7.830015625,-0.011897431607916951,-0.11590192289650439,0.1669622480481863
1733751584184991500,7.839991455078125,-0.014756985757499933,-0.20748072091937064,0.29022388605773447
1733751584194966500,7.849966552734375,-0.005921352872997522,-0.2617617616832256,0.4216892887890339
1733751584204942600,7.859942626953125,-0.09521167463250457,-0.29311639262884853,0.4297527682572603
1733751584214918700,7.869918701171875,-0.06981529450416564,-0.2106473682567477,0.2963707182496786
1733751584224894700,7.879894775390625,0.047602439782768485,-0.06559592324346304,0.21511516132056713
1733751584234869800,7.889869873046875,0.14375862872377038,-0.016727847439050675,0.13137947801351546
1733751584244845600,7.899845458984375,0.2781855116091668,0.012045242580771446,0.1068698906570673
1733751584254822000,7.90982177734375,0.31133024084195493,-0.05184621483236551,0.03731003221869469
1733751584264796700,7.919796630859375,0.2655575007043779,-0.1881453213304281,-0.032386604341864585
1733751584274772700,7.929772705078125,0.12625555912852288,-0.3180789844498038,-0.01878945614397526
1733751584284748500,7.93974853515625,-0.1813106530047953,-0.38106034128069877,0.04146247572302818
1733751584294724600,7.949724609375,-0.34519290908575057,-0.3191132959336042,0.1611801575154066
1733751584304699600,7.95969970703125,-0.35969708912596104,-0.261184838578105,0.16914602182805538
1733751584314675500,7.969675537109375,-0.19055413603782653,-0.25105653553456064,0.09615151276588439
1733751584324651800,7.97965185546875,0.1579728859066963,-0.23098873001784084,-0.01676467231810093
1733751584334626600,7.98962646484375,0.3832230722725391,-0.2427814591422677,-0.10911328566968441
1733751584344602600,7.9996025390625,0.4391292300201952,-0.2636485983431339,-0.15126608174443243
1733751584354578700,8.00957861328125,0.42075303085222837,-0.36285569928735495,-0.027630349725484848
1733751584364553700,8.0195537109375,0.3055332450009882,-0.4503174173802137,0.08841887268722057
1733751584374529500,8.029529541015625,0.08249591237902641,-0.48655368288755413,0.11640519624352455
1733751584384505900,8.039505859375,-0.16043036206141112,-0.46274113788455723,0.042031800043582916
1733751584394481700,8.049481689453126,-0.33140886001363395,-0.39318303301185364,-0.01096796873807907
1733751584404456700,8.059456787109376,-0.3494799387551844,-0.31947131559103725,-0.028044191223382947
1733751584414432800,8.069432861328124,-0.23110475761294363,-0.29233605590611694,-0.006384148079156876
1733751584424408600,8.07940869140625,-0.028733927053213117,-0.2482294954150915,-0.0030465280890464783
1733751584434383600,8.089383544921875,0.11248889958262442,-0.13435235634446144,0.034844518887996674
1733751584444359700,8.099359619140625,0.15545578851923345,-0.07425736860483885,0.14277473225295542
1733751584454335700,8.109335693359375,0.16245032358169556,-0.09911357744187116,0.2600029353171587
1733751584464310500,8.119310546875,0.14511325820311904,-0.17483020494431256,0.29728491048514843
1733751584474286600,8.12928662109375,0.05153013462051749,-0.25321955878734587,0.30363866342604157
1733751584484262700,8.1392626953125,-0.08272153782844544,-0.24663404291719196,0.2321042900443077
1733751584494238700,8.14923876953125,-0.20183906177058814,-0.2156853624239564,0.16570084981024263
1733751584504213500,8.159213623046876,-0.21266192294955252,-0.16204934156537054,0.19885376234948635
1733751584514189800,8.16918994140625,-0.1874937986191362,-0.10828472589105367,0.22676117545068264
1733751584524165600,8.17916552734375,-0.05327332502603531,-0.095572251573205,0.3396148166924715
1733751584534140700,8.189140625,0.07530965413674712,-0.10305734663158654,0.3435059789121151
1733751584544116700,8.19911669921875,0.10889160574302077,0.043342298120260234,0.18665362146794795
1733751584554092500,8.209092529296875,0.08442344637550413,0.1527902225717902,0.0006745382606983184
1733751584564068600,8.219068603515625,0.045270051312446595,0.19060820431262254,-0.04512099823057651
1733751584574043600,8.229043701171875,0.006615618747472763,0.19594167429506779,0.011221066716313361
1733751584584019700,8.239019775390625,-0.03675225220546126,0.12808628168702124,0.059123220098018646
1733751584593995500,8.24899560546875,-0.13071312305927277,0.06890051774680614,-0.003394318613409996
1733751584603970800,8.258970703125,-0.3030615941904485,0.14414660512804983,-0.1820242081016302
1733751584613946600,8.268946533203126,-0.31535657374858855,0.04822276363819837,-0.14041151025295256
1733751584623922700,8.278922607421874,-0.2176864731132984,-0.03629004152119159,0.07141454639434815
1733751584633898800,8.288898681640624,-0.017556553348153828,-0.0984434230953455,0.2874894926577806
1733751584643873800,8.298873779296875,0.1462531489532441,-0.10090133764147757,0.25212942546308037
1733751584653849600,8.308849609375,0.1308921328879893,-0.013815174862742424,0.06643032824099064
1733751584663825700,8.31882568359375,-0.05404145985431969,0.0742678899988532,-0.09075111502707003
1733751584673800700,8.32880078125,-0.0909608122549951,0.06557780306488276,-0.039408465802669525
1733751584683776500,8.338776611328125,-0.06260682443007827,0.04190875818580389,0.024076456636190412
1733751584693752800,8.3487529296875,-0.008731587988138199,0.07638064436912537,0.0033580782562494275
1733751584703728600,8.358728759765626,0.06043254913091659,0.05888561194986105,-0.16143442453742027
1733751584713703700,8.36870361328125,0.008927987343072891,0.00044511341899633407,-0.1932008511543274
1733751584723679700,8.3786796875,-0.06680836777314543,-0.09005494945645331,0.006004793372750282
1733751584733655800,8.38865576171875,-0.08099822116717696,-0.19633768787533043,0.19165011458098888
1733751584743630600,8.398630615234374,-0.012930866308882832,-0.20269787055701016,0.30158816063702104
1733751584753606700,8.408606689453125,0.03627988545335829,-0.15492840364426375,0.2585854697346687
1733751584763582700,8.418582763671875,0.021330299733206628,-0.06937544178217649,0.08914309530854225
1733751584773557800,8.428557861328125,0.05321268087998032,-0.041568566446006296,0.051337388527393335
1733751584783533600,8.438533447265625,0.06651289195790887,-0.08292290561944246,0.12450199345946311
1733751584793509600,8.448509521484375,0.06578662350997329,-0.13194091128855942,0.18302958575189113
1733751584803485700,8.458485595703126,0.0770762254178524,-0.16185352673232553,0.2541869425147772
1733751584813460500,8.46846044921875,0.061643605421110984,-0.2438070027977228,0.3023275808274746
1733751584823436800,8.478436767578126,0.04424377700462937,-0.31158406947255135,0.3871744402468204
1733751584833412600,8.48841259765625,0.007720365118980407,-0.2569619601860642,0.38784664041996
1733751584843387600,8.4983876953125,-0.10866386140175163,-0.1630561805203557,0.25104689092338084
1733751584853363700,8.50836376953125,-0.16628960948362945,-0.05612696089148521,0.186830731600523
1733751584863339800,8.51833984375,-0.14786182625889777,-0.008475859661400317,0.18155659058988094
1733751584873315600,8.528315673828125,-0.11933262799754737,-0.005919160915911197,0.2635749485850334
1733751584883291000,8.538290771484375,-0.2577542796075344,-0.03918985461592674,0.18666355834007262
1733751584893266700,8.5482666015625,-0.2261304763317108,-0.06594312924593687,0.19677812511920928
1733751584903242500,8.558242431640625,-0.18179682908654213,-0.1612476697936654,0.0807277336627245
1733751584913217800,8.5682177734375,-0.10083119501471519,-0.19286504332870244,-0.020956863310933112
1733751584923193300,8.578193359375,0.05311082794070243,-0.22180501434803007,-0.12313596580326557
1733751584933169400,8.58816943359375,0.22224325963482258,-0.2675122880339622,-0.20650047771036623
1733751584943144400,8.59814453125,0.3819487414877861,-0.22694471532404423,-0.2668026784598827
1733751584953120300,8.608120361328124,0.3834242939330637,-0.14760989732444285,-0.26920798603594304
1733751584963096000,8.618095947265624,0.3163081753849983,-0.08699293153733015,-0.1709784979522228
1733751584973072400,8.628072265625,0.1316424397986382,-0.0564259438380599,-0.09342997884750366
1733751584983047200,8.638047119140625,-0.09411021619662642,0.01668576186299324,-0.08969254588484764
1733751584993023200,8.648023193359375,-0.22263605834469197,0.08579933783859015,-0.021706804895401
1733751585002999300,8.657999267578125,-0.26746326126046477,0.11175590913295745,0.046866380593180657
1733751585012974300,8.667974365234375,-0.23390227937698363,0.11549772600978613,0.05527063632309436
1733751585022950100,8.6779501953125,-0.033687165546417236,0.08993541473001242,0.045828854238986964
1733751585032926200,8.68792626953125,0.1652630429148674,0.038407472066581246,0.027815643164515493
1733751585042902300,8.69790234375,0.20602175428271294,0.010445113907754421,0.07981587951481342
1733751585052877300,8.707877197265624,0.07735796496868133,0.030356559818983078,0.18307167132794855
1733751585062853400,8.717853271484374,-0.028393589182943105,0.055286418414115905,0.23395839347839353
1733751585072829200,8.7278291015625,-0.1095534306526184,0.05291822797805071,0.25222762514054775
1733751585082804200,8.73780419921875,-0.18652341921702026,0.08729688291996716,0.27286183236837386
1733751585092780300,8.7477802734375,-0.2116343334674835,0.09084522305130958,0.28606442829072476
1733751585102756400,8.75775634765625,-0.13767485183067618,0.15110300013720987,0.27370354388952256
1733751585112732200,8.767732177734375,-0.06177461138963699,0.0995715503424406,0.2463338909268379
1733751585122707500,8.77770751953125,-0.07239069795012473,0.0980728362172842,0.13786767098903654
1733751585132683300,8.787683349609376,-0.12273198811225593,0.08371288695335388,0.09179682468771934
1733751585142659000,8.7976591796875,-0.07079846032261848,0.06930792950391769,0.10444938551187515
1733751585152634000,8.807634033203126,0.0026140549559146163,0.054713002440333364,0.13616028254926205
1733751585162610200,8.817610107421874,0.054953167871758336,0.046267245656251905,0.10454057092666626
1733751585172586200,8.827586181640624,-0.006314078517630696,0.11620178262591362,-0.062384267720580096
1733751585182561300,8.837561279296875,-0.08155592811517418,0.14280395834743975,-0.08641103999614715
1733751585192537300,8.847537353515625,-0.043685923926159734,0.07775017915666103,-0.020167174237966535
1733751585202513200,8.85751318359375,0.03860409061722457,-0.005250175613164902,0.04946224230527878
1733751585212489500,8.867489501953125,0.052951764921471474,-0.05897416701614856,0.08370178103744984
1733751585222464300,8.87746435546875,-0.00007598784565925598,-0.06178162565231323,-0.0047439796566963194
1733751585232440300,8.8874404296875,-0.07925641900114715,-0.014542904615402221,-0.11037468390762806
1733751585242416000,8.897416015625,-0.15766893452405928,0.00538227756023407,-0.07645546317100524
1733751585252391400,8.907391357421876,-0.10131751722693443,-0.001070259580016136,0.08677344356775284
1733751585262367200,8.9173671875,-0.0015689298171550035,0.003960720324516296,0.1953437084019184
1733751585272343000,8.927343017578124,-0.009994155269861221,-0.004454056799411773,0.11914894199371337
1733751585282319400,8.9373193359375,-0.00973579659461975,0.014644026902318,0.03397241222858429
1733751585292294100,8.947294189453125,-0.019756766806170344,-0.03060439710021019,0.07027648227512837
1733751585302270200,8.957270263671875,-0.010240750442072748,-0.09552139816880226,0.1453852070122957
1733751585312246300,8.967246337890625,-0.0014203881919384001,-0.1435731891542673,0.2288806518226862
1733751585322221300,8.97722119140625,0.04200147797055542,-0.20735329514741896,0.2652572025835514
1733751585332197000,8.987197021484375,0.05659925457835197,-0.23778934994339943,0.2732780119538307
1733751585342173400,8.99717333984375,0.05082184022068977,-0.2616512870460749,0.2677262230455875
1733751585352148200,9.007148193359376,0.039282282139733435,-0.2385270165681839,0.302759542503953
1733751585362124300,9.017124267578126,-0.008903437423706055,-0.22545418450534344,0.3345733153939247
1733751585372100400,9.027100341796874,-0.03917933322191238,-0.21463994502425193,0.32032793242037294
1733751585382076200,9.037076171875,-0.03576923251748085,-0.21949264575242994,0.2896919711381197
1733751585392051200,9.04705126953125,-0.0007494301278144121,-0.23082535614967345,0.24780454800128934
1733751585402027300,9.05702734375,0.06324402635507285,-0.2639402747660875,0.167227620986104
1733751585412003300,9.06700341796875,0.16934636670574546,-0.24679040252268314,0.11630056682527065
1733751585421978000,9.07697802734375,0.11547814452648163,-0.24730828891694545,-0.024902970588207243
1733751585431954200,9.0869541015625,0.03410327206663787,-0.20390110886693,-0.08249357429146766
1733751585441930200,9.09693017578125,0.00023256664685904977,-0.14725918419063092,-0.06999649628996849
1733751585451906300,9.10690625,-0.03369651789665222,-0.077250412940979,-0.0946568902939558
1733751585461881000,9.116881103515626,-0.10683891099691391,-0.008022562935948371,-0.08467734807133674
1733751585471857400,9.126857421875,-0.10245265873670577,0.024454057776927947,-0.05502572165131569
1733751585481833200,9.136833251953124,0.0022270283997058867,0.06990355730950831,-0.05620820943415165
1733751585491808300,9.146808349609374,0.08163206209130584,0.07145429388284683,-0.08642389947772025
1733751585501784300,9.156784423828125,0.13845219287872312,0.0657692339837551,-0.0806312875509262
1733751585511760100,9.166760009765625,0.142912167962268,0.027494156125187873,-0.036085458859801293
1733751585521735200,9.176735107421875,0.07615859911628067,-0.01640168422460556,0.05503156687021255
1733751585531711200,9.186711181640625,-0.009462167285010217,-0.04618775067925453,0.1372866562306881
1733751585541687300,9.196687255859375,-0.09999174851588905,-0.05286649779081344,0.15036825612187385
1733751585551663000,9.2066630859375,-0.1447884101629257,-0.04567863211333752,0.1132090305507183
1733751585561638400,9.216638427734376,-0.19373269300870596,-0.027024785047769544,0.1488105052858591
1733751585571614200,9.2266142578125,-0.1886988635599613,0.018839725026488303,0.16982991243898868
1733751585581590300,9.23659033203125,-0.11691599530987441,0.04533844037353992,0.17824585860669612
1733751585591565300,9.2465654296875,-0.02697100903391838,0.04368950412273407,0.18547756342589855
1733751585601541400,9.256541259765624,0.06465403928346931,0.02414893735051155,0.1704477520763874
1733751585611517200,9.26651708984375,0.0539936021246016,0.04895604634881019,0.0770411541044712
1733751585621493200,9.2764931640625,-0.003937339448928833,0.0861824919372797,-0.014156535646319388
1733751585631468300,9.28646826171875,-0.12178984842393546,0.13363631702959536,0.008656769186258316
1733751585641444000,9.296444091796875,-0.22044183623604474,0.16840660163760185,0.0728103846669197
1733751585651420400,9.30642041015625,-0.26848843958973884,0.19613281295299528,0.040787937462329865
1733751585661395200,9.316395263671875,-0.20820790268275885,0.19596154803931712,-0.030664602854847907
1733751585671371300,9.326371337890626,-0.1369102241337299,0.20445114396512507,-0.06412380486428737
1733751585681347300,9.336347412109374,-0.07270644936840981,0.1496902107298374,-0.05707914704978466
1733751585691323400,9.346323486328124,0.010497940073534846,0.038809330865740774,0.09502806169390678
1733751585701298200,9.356298095703124,0.11767718894071877,-0.09025427142083645,0.28200492376685143
1733751585711274200,9.366274169921875,0.1674422135848552,-0.19577683912217617,0.3753139065831899
1733751585721250300,9.376250244140625,0.07448920459933578,-0.19388065011203287,0.3320388284802437
1733751585731225300,9.386225341796875,-0.08520685183815657,-0.14611293676495551,0.18808628461956978
1733751585741201200,9.396201171875,-0.19265724579691887,-0.1265542498141527,0.17599135767817498
1733751585751177200,9.40617724609375,-0.12235683465693145,-0.1434329039007425,0.24480595070719718
1733751585761152300,9.41615234375,-0.01271448361184448,-0.1262146425962448,0.26200726087689397
1733751585771128000,9.426128173828126,0.04381345929596573,-0.06398176604509354,0.10771218670010566
1733751585781104400,9.4361044921875,0.13102295619342474,-0.019212065470218656,-0.038485505738854404
1733751585791080200,9.446080078125,0.17658760653827338,-0.024380408018827435,-0.042788171368837356
1733751585801055200,9.45605517578125,0.15746902803778648,-0.05019347918927669,0.018853169029951093
1733751585811031300,9.46603125,0.061934733854793006,-0.09275427154302597,0.042813890331983566
1733751585821007400,9.47600732421875,-0.005357764173485338,-0.06644435676634311,0.023432313513755798
1733751585830982100,9.485982177734375,-0.06989014983866364,-0.037384266498684884,0.04821604163646698
1733751585840958500,9.49595849609375,-0.06779054721090942,-0.02516366735100746,0.06296469795703888
1733751585850934300,9.505934326171875,-0.09017185383439064,0.008806991311907767,0.06394318760037422
1733751585860910000,9.51591015625,-0.12030629533529281,0.03766892865896225,0.0007288987964391708
1733751585870885400,9.525885498046875,-0.11346267651822417,0.0615910715162754,-0.01132569613456726
1733751585880861200,9.535861083984376,-0.07028875723481177,0.06164952370524406,0.03366787632405758
1733751585890837200,9.545837158203126,0.056442602711915965,-0.013605331504344939,0.09355565105378627
1733751585900812000,9.55581201171875,0.16741170884873718,-0.10076280595362186,0.21221534822583196
1733751585910788400,9.565788330078124,0.20778346672561018,-0.20033786342740056,0.3472784831881523
1733751585920764700,9.5757646484375,0.11061959857940673,-0.21869477337300777,0.4336602970898151
1733751585930739700,9.58573974609375,0.01003269718196243,-0.19514146382808684,0.4686567916691303
1733751585940715800,9.5957158203125,-0.09213939104769378,-0.18705752609372137,0.4096966531783342
1733751585950691600,9.605691650390625,-0.20693481400702146,-0.18214812674224376,0.2967220159053802
1733751585960667600,9.615667724609375,-0.29603231660816814,-0.2284919447660446,0.10753741465508937
1733751585970642700,9.625642578125,-0.3309223916709423,-0.3028928134948015,-0.015681553256511688
1733751585980618800,9.63561865234375,-0.28089319966528564,-0.2784802567720413,-0.04312485597729682
1733751585990594600,9.645594482421876,-0.19170681320428848,-0.2735743645519018,0.03804945240914821
1733751586000569600,9.655569580078126,-0.02288165736105293,-0.2665162627339363,0.09029752604067325
1733751586010545700,9.665545654296874,0.18945755470646544,-0.23231880957782267,0.04780862987935543
1733751586020521700,9.675521728515625,0.3369078958213329,-0.2674357156664133,-0.09634849664270877
1733751586030497800,9.685497802734375,0.4060638496339321,-0.21851532515287397,-0.1744037962257862
1733751586040472800,9.695472900390625,0.3040858044053428,-0.16757950316369533,-0.19635083961784838
1733751586050448600,9.70544873046875,0.18978609254108741,-0.10241174220442771,-0.09886953955292702
1733751586060424400,9.715424560546875,0.050015200012922284,-0.06930734498202801,-0.04603285237848759
1733751586070399700,9.725399658203125,-0.04191023775683716,-0.028131869506835935,0.006553659427165985
1733751586080375600,9.73537548828125,-0.0481669417977333,0.00016600421667099,0.04209668197333812
1733751586090351600,9.7453515625,-0.10803602096014656,-0.048231823727488514,0.08159165701568126
1733751586100327700,9.75532763671875,-0.11478957774043083,-0.1320271282672882,0.20105682535171507
1733751586110302700,9.765302734375,-0.0600911792141851,-0.20254443356096744,0.3147060008853674
1733751586120278500,9.775278564453124,-0.0070399770728079595,-0.23856851762235162,0.33954292050004004
1733751586130254800,9.7852548828125,0.07799158669710159,-0.26727731023430823,0.35026889717578885
1733751586140229600,9.795229736328125,0.13873393242955206,-0.2525122873008251,0.3724047411382198
1733751586150205700,9.805205810546875,0.09876491013467312,-0.24224457578659056,0.34460546458661556
1733751586160181800,9.815181640625,0.049335401055216783,-0.18665946668684483,0.29462065971195694
1733751586170156800,9.82515673828125,-0.003061145702865906,-0.08594985222518443,0.23207564847171305
1733751586180132600,9.835132568359375,-0.10359833077364601,-0.03199029850065708,0.15001988107562064
1733751586190108700,9.845108642578126,-0.16266835024654863,0.032194881162047384,0.13922609986066817
1733751586200084700,9.855084716796876,-0.12508650621599518,0.07862345485985278,0.1235878012239933
1733751586210059500,9.8650595703125,-0.055621933978796,0.11266542519330977,0.06999649628996849
1733751586220035800,9.875035888671874,0.0506768787920475,0.11625205150842666,0.06682020434141159
1733751586230011600,9.88501171875,0.1033662664502859,0.07089724452197552,0.08218202412426472
1733751586239986700,9.894986572265625,0.08950549888014793,0.06773205848932266,0.0391524452149868
1733751586249962500,9.90496240234375,-0.006471844628918915,0.10382453161180019,0.00696866996884346
1733751586259938800,9.914938720703125,-0.10989069978296756,0.1465799697548151,0.012560790887475012
1733751586269914600,9.92491455078125,-0.1735082904244773,0.14234569318592546,-0.011761164942383766
1733751586279889700,9.9348896484375,-0.20415596041083334,0.10274375063776969,0.01919803694486618
1733751586289865700,9.94486572265625,-0.17955168050825596,0.16167700112164018,0.04648994849622249
1733751586299841500,9.954841552734376,-0.1772702915728092,0.23894845685064792,0.01747135928273201
1733751586309816600,9.964816650390626,-0.09008589258398861,0.25250878016948697,0.008377952244877815
1733751586319792600,9.974792724609374,0.0606587591022253,0.2226893959671259,0.12380407432317733
1733751586329768700,9.984768798828124,0.19020926812291145,0.12089432435631751,0.24057751935720442
1733751586339743500,9.994743408203124,0.270498610368371,0.004992401459813118,0.33935879610478875
1733751586349719800,10.0047197265625,0.2918506104767322,-0.07739245176017284,0.37097441607415677
1733751586359695600,10.014695556640625,0.21730594936311243,-0.14725275444984434,0.3472960188448429
1733751586369671700,10.024671630859375,0.04578154449854046,-0.1582037720531225,0.3585252688676119
1733751586379646700,10.034646728515625,-0.1376735731890425,-0.16556407168805598,0.32409166886806484
1733751586389622800,10.044622802734375,-0.24516539513673632,-0.1442699392467737,0.30751813520789145
1733751586399598600,10.0545986328125,-0.2829430813997984,-0.1669885515332222,0.2735392932385206
1733751586409573600,10.06457373046875,-0.22151567601263522,-0.18018004153966902,0.20451368780732154
1733751586419549700,10.0745498046875,-0.03923778541088104,-0.14869944612681865,0.12466624411046505
1733751586429525500,10.084525390625,0.12639401775114237,-0.09603168577849865,0.07520224823951721
1733751586439501800,10.094501708984374,0.2409130349218845,-0.0965560019135475,0.05715688846111297
1733751586449476600,10.1044765625,0.2866740846216678,-0.1471633226007223,0.13807576078176498
1733751586459452700,10.11445263671875,0.30111696292869744,-0.1645090096771717,0.23179157083332538
1733751586469428700,10.1244287109375,0.25586101320683957,-0.2237614091128111,0.3042319531440735
1733751586479403800,10.13440380859375,0.17564364021904766,-0.2561597038924694,0.28069617925584317
1733751586489379600,10.144379638671875,0.09163615423329174,-0.30592648210227485,0.2735655967235565
1733751586499355600,10.154355712890625,-0.022138839637115597,-0.3254910142719745,0.22263561995327472
1733751586509330700,10.16433056640625,-0.21375724390558898,-0.2625157949209213,0.11760755777060986
1733751586519306800,10.174306640625,-0.3940465910386294,-0.17665362097918985,-0.031689854249358176
1733751586529282600,10.184282470703126,-0.3654600365668535,-0.09341887293159962,-0.0329740488409996
1733751586539258600,10.194258544921874,-0.2446872927635908,-0.08937748858630656,0.10645663368105887
1733751586549233700,10.204233642578124,-0.08836334310770035,-0.10236731854081153,0.1839203971117735
1733751586559209500,10.21420947265625,0.07167356265671551,-0.12223112591803073,0.1874491557598114
1733751586569185800,10.224185791015625,0.24376959339678286,-0.13947569070756435,0.155302789914608
1733751586579160600,10.23416064453125,0.3923866950023919,-0.12935118705630302,0.11770809553563594
1733751586589136600,10.24413671875,0.40810909172594545,-0.129233698156476,0.07476677943170071
1733751586599112700,10.25411279296875,0.2658762112647295,-0.11078034209907055,0.02180617361664772
1733751586609088800,10.2640888671875,0.09982172571122645,-0.004203881430625916,-0.017394786915183067
1733751586619063600,10.2740634765625,0.0062860214669257395,0.09989712903499602,-0.03504968607127666
1733751586629039900,10.284039794921876,-0.07800488457009196,0.12846212926208972,-0.011812602868676185
1733751586639015700,10.294015625,-0.13046046347245574,0.12296528541147708,0.03138122669160366
1733751586648990700,10.30399072265625,-0.1942616122536361,0.09144728059768677,0.02964870381057262
1733751586658966800,10.313966796875,-0.1701634552422911,0.048750294643640515,0.05235094948410988
1733751586668942600,10.323942626953125,-0.07358363406173885,0.0008761983126401901,0.05696224267184734
1733751586678917600,10.333917724609375,0.05699556041955948,-0.09260521846115588,0.14965280132889747
1733751586688893400,10.3438935546875,0.18597031537890432,-0.19072656999528406,0.3416705801784992
1733751586698869800,10.353869873046875,0.2669862913984805,-0.2388052489876747,0.5125239904463291
1733751586708845600,10.363845458984375,0.2754793213903904,-0.2567559162199497,0.5712187559992075
1733751586718820600,10.373820556640625,0.2105757643252611,-0.14041969355940817,0.49320612651407714
1733751586728796700,10.383796630859376,0.11436579937040806,0.005195230555534363,0.2962041295111179
1733751586738772700,10.393772705078124,0.04762158287465572,0.14451953009366988,0.10837503452301024
1733751586748747500,10.40374755859375,-0.07762918312549591,0.2742442266374826,-0.08757716116607189
1733751586758723800,10.413723876953124,-0.402972751750797,0.3824327986776829,-0.29123160179555413
1733751586768699600,10.42369970703125,-0.6360474211972207,0.4695458494633436,-0.3924731311768293
1733751586778675500,10.433675537109375,-0.632569004496932,0.42626434161961074,-0.3635492345094681
1733751586788650800,10.443650634765625,-0.5719102453947067,0.3657639879494905,-0.3038993601888418
1733751586798626600,10.45362646484375,-0.4896230073302984,0.242159820112586,-0.23283552692830561
1733751586808602600,10.4636025390625,-0.417436892041564,0.08701660467386245,-0.04056581914424896
1733751586818577700,10.47357763671875,-0.22988661399483679,-0.06113105278909206,0.13836743720471859
1733751586828553700,10.4835537109375,0.03292275704517961,-0.15515139874517916,0.23514731100201605
1733751586838529500,10.493529541015626,0.20369199616089462,-0.26249767474234104,0.25337737969756124
1733751586848504800,10.5035048828125,0.29496684280112384,-0.3206839062511921,0.2398293313384056
1733751586858480600,10.513480712890624,0.27584362465813755,-0.3099550069659948,0.2500987964183092
1733751586868456700,10.523456787109374,0.19798750090897083,-0.3011895167082548,0.29005495923161506
1733751586878432800,10.533432861328125,0.1518241540186107,-0.36122809808552264,0.32773382476270196
1733751586888407800,10.54340771484375,0.1047906001649797,-0.40461891152262686,0.33999884757399557
1733751586898383600,10.553383544921875,0.08722630190178751,-0.39677287419736385,0.36603695967197414
1733751586908359700,10.563359619140625,0.0879107770346105,-0.4181201981306076,0.3298936331450939
1733751586918334200,10.573334228515625,0.07336860307157039,-0.40965690568983554,0.30804888108372686
1733751586928310300,10.583310302734375,0.09829729262292385,-0.36664310887157914,0.26960253831148145
1733751586938286000,10.5932861328125,0.0973613269470632,-0.30989187860190864,0.25496669471561906
1733751586948262100,10.60326220703125,0.17025544437468051,-0.2571101364850998,0.2539449504524469
1733751586958237200,10.6132373046875,0.26320728431642054,-0.21950959688723087,0.24191958161592483
1733751586968213000,10.623212890625,0.35859658053815363,-0.2094955678731203,0.14377543372809887
1733751586978189300,10.633189208984374,0.415980263492465,-0.19924480749368667,0.12502864768207073
1733751586988164000,10.6431640625,0.38865328062772747,-0.16162965484857558,0.09312427389919757
1733751586998140200,10.65314013671875,0.178809337708354,-0.12868717018961906,0.1652367394298315
1733751587008116200,10.6631162109375,-0.057015726424753665,-0.07331891871094703,0.24932547395825386
1733751587018092000,10.673092041015625,-0.13342033619135618,-0.002595277190208435,0.28520050493776794
1733751587028067000,10.683067138671875,-0.19930793585777282,0.031089550268650054,0.3110883949100971
1733751587038043100,10.693043212890625,-0.19342998373508452,0.07862462390363216,0.29154022935330864
1733751587048019200,10.703019287109376,-0.18151742762327194,0.10141162525117396,0.1563666197538376
1733751587057994200,10.712994140625,-0.146892542835325,0.08994622838497161,0.1343237147718668
1733751587067970000,10.722969970703126,-0.002644377028942108,0.09515607198774814,0.12400924150645733
1733751587077946000,10.732946044921874,0.09460793658569455,0.10458090293705463,0.08573883982300758
1733751587087921200,10.742921142578124,0.14326280803084374,0.08912731321752071,0.05517945090830326
1733751587097897000,10.75289697265625,0.13588000430315733,0.06077858608961105,0.007592939347028732
1733751587107873300,10.762873291015625,0.11404197424352168,0.04641220708489418,-0.04520341581702232
1733751587117849000,10.77284912109375,0.159088738194108,0.08958791646659374,-0.1698018553882837
1733751587127824100,10.78282421875,0.1793110036201775,0.05812427218854427,-0.2813070046305656
1733751587137800200,10.79280029296875,0.03277677270323038,0.11402502310872077,-0.3697352296680212
1733751587147776000,10.80277587890625,-0.31291619485914707,0.20096680898070335,-0.3710825526237488
1733751587157751000,10.8127509765625,-0.7286573888987302,0.28429391148686406,-0.40487084045708177
1733751587167727000,10.82272705078125,-1.0388909205451606,0.337614582785964,-0.3102262251228094
1733751587177703200,10.832703125,-1.1000058989822863,0.3810574186712503,-0.15300795697569847
1733751587187678200,10.84267822265625,-0.9093313514351844,0.32378654844164845,-0.09261573985517024
1733751587197654300,10.852654296875,-0.5468398092851042,0.20553309398293493,-0.1274257719516754
1733751587207630000,10.862630126953125,-0.0670876231059432,0.07797171295285224,-0.15022913991212844
1733751587217606100,10.872606201171875,0.4182803571283817,-0.09402969830632209,-0.12556874590814113
1733751587227581000,10.882580810546875,0.7540832143172621,-0.26250878065824507,-0.07672434324026108
1733751587237557200,10.89255712890625,0.8393883388981223,-0.27824001827538014,0.11733400152623653
1733751587247533000,10.902532958984375,0.7582683910474181,-0.2658610136955976,0.302231719237566
1733751587257508000,10.912508056640625,0.5451055328384041,-0.2418769115179777,0.44465983000993725
1733751587267484200,10.922484130859376,0.21164719294905662,-0.20221300964951514,0.4532902957111597
1733751587277460200,10.932460205078126,-0.09800210906863212,-0.06045008478760719,0.44805531766712664
1733751587287436300,10.942436279296874,-0.3942196825832128,0.019265256962180136,0.39329555347561834
1733751587297411300,10.952411376953124,-0.6075882924973964,0.005780336967110633,0.32111645244956016
1733751587307387100,10.96238720703125,-0.6093371819913387,0.04573299264907837,0.2869108159869909
1733751587317363000,10.972363037109375,-0.3867831028416753,0.012111878076195716,0.2540197692543268
1733751587327338200,10.982338134765625,-0.051800622124969956,-0.07514847222566604,0.19590309585034846
1733751587337314000,10.99231396484375,0.2099862739995122,-0.1341045190632343,0.16467618293762207
1733751587347290000,11.0022900390625,0.4263958590447902,-0.18157061911523342,0.11374211451411247
1733751587357266200,11.01226611328125,0.5318617281228304,-0.1825982085973024,0.08113105376660823
1733751587367241200,11.0222412109375,0.4613058443844318,-0.14417700026631355,0.03194353674948215
1733751587377217000,11.032217041015626,0.2705056246310472,-0.10512450829446315,-0.08297346676290035
1733751587387193000,11.042193115234374,-0.03307634017169475,-0.07040799970030784,-0.1604647027224302
1733751587397168000,11.052168212890624,-0.2815422746911645,-0.06548398730158805,-0.17196107924878595
1733751587407144200,11.062144287109374,-0.3384969185784459,-0.007011924588680267,-0.13243395550251005
1733751587417120300,11.072120361328125,-0.37060879763215776,0.07310206108987331,-0.09921937590390444
1733751587427095300,11.08209521484375,-0.32742870433628557,0.09818272633254528,-0.010780044950544833
1733751587437071000,11.092071044921875,-0.25903876646012064,0.15342121395170688,0.03194762840270996
1733751587447047200,11.102047119140625,-0.21557722587436437,0.2201964101076126,0.0253840321034193
1733751587457023200,11.112023193359375,-0.22463263898938893,0.22820786712765692,-0.04344312814623117
1733751587466998000,11.121998046875,-0.17283669303953647,0.1746311752408743,-0.10231997226774692
1733751587476974300,11.131974365234376,-0.09537555995732545,0.14496201316416263,-0.16126842032074928
1733751587486950100,11.1419501953125,-0.08437164312303065,0.14121815046072006,-0.24343992305099962
1733751587496925200,11.15192529296875,-0.1692752011656761,0.18090075702965258,-0.19143588730841873
1733751587506901000,11.16190087890625,-0.23118454485088585,0.18658523240685462,-0.09362374785393476
1733751587516877000,11.171876953125,-0.21464403667747972,0.15783844587206838,-0.049077042379975316
1733751587526853000,11.18185302734375,-0.17217881365269422,0.17527239575386047,-0.07075491344183683
1733751587536828200,11.191828125,-0.19073855269402265,0.15122107355892658,-0.0995762265175581
1733751587546804200,11.20180419921875,-0.1717953672930598,0.13764730623662472,-0.0902978183016181
1733751587556780000,11.211780029296875,-0.11101531989872455,0.10578092637658118,-0.08455138360410928
1733751587566755000,11.221755126953125,-0.04171148204803467,0.05305120670795441,-0.03796557351797819
1733751587576731100,11.231731201171876,0.035910686814785,0.01733399663865566,0.027815935425460337
1733751587586707200,11.241707275390626,-0.011964578559994696,0.05672258869707584,0.1498264043301344
1733751587596683000,11.25168310546875,-0.0812894591987133,0.03175648974478244,0.20740239498615265
1733751587606658300,11.261658203125,-0.009188684105873108,0.020692659416794774,0.18608371262550352
1733751587616634000,11.271634033203124,0.06946750397980213,0.00806581755578518,0.12000760464966297
1733751587626610000,11.28160986328125,0.12066782212406396,0.007528641939163207,0.07767273000627756
1733751587636585200,11.291585205078125,0.11157003117203712,-0.004262333619594574,0.015334931775927542
1733751587646561000,11.30156103515625,0.09195435333698987,0.04660159217715263,-0.030218904913961887
1733751587656537000,11.311537109375,0.030839374899864196,0.1338783090919256,0.021387948204576967
1733751587666512100,11.32151220703125,-0.016805004328489304,0.21023907971680164,0.12262158654034137
1733751587676488200,11.33148828125,-0.1195771042779088,0.2645452549219131,0.1498170519798994
1733751587686464000,11.341464111328126,-0.20017185921072958,0.2976858925014734,0.1067106084421277
1733751587696440300,11.3514404296875,-0.27355302950292826,0.30449323442876336,0.009966975001990794
1733751587706415000,11.3614150390625,-0.25535394046753646,0.3250748346865177,-0.07221271103471517
1733751587716391200,11.37139111328125,-0.2802276849612593,0.2902121956199407,-0.05348229160159826
1733751587726367200,11.3813671875,-0.09693360305428504,0.2904980268239975,-0.019221710081398485
1733751587736342300,11.39134228515625,-0.036538755585253234,0.25696342149078844,-0.04571984090656042
1733751587746318000,11.401318115234375,-0.013452186769247055,0.26311142272651195,-0.05621580821871757
1733751587756294100,11.411294189453125,-0.009804770177602767,0.25755963381826874,-0.11106675782501697
1733751587766270200,11.421270263671875,0.005203998383879661,0.21718261524438856,-0.1433887724980712
1733751587776245000,11.431244873046875,0.03907411928176879,0.2395370703935623,-0.09996844070553779
1733751587786221000,11.441220947265625,0.04439093039035797,0.2775701561897993,-0.05386076952517032
1733751587796197000,11.451197021484376,-0.009331891968846321,0.1790004763662815,-0.035736207030713556
1733751587806172200,11.461172119140626,0.02681669525504112,0.1517073957711458,0.05815817445814609
1733751587816148000,11.47114794921875,0.024906477719545364,0.12699264123141765,0.0420870373621583
1733751587826124300,11.481124267578124,-0.00530512067079544,0.16028759258985517,0.0020879121899604796
1733751587836099000,11.49109912109375,-0.08959288490265607,0.13845277740061282,-0.01856441521644592
1733751587846075100,11.5010751953125,-0.08406769174039364,0.0968698901683092,0.05212152464240789
1733751587856051200,11.51105126953125,0.013300503338873386,0.04659808504581451,0.13541355583518744
1733751587866027000,11.521027099609375,0.07919745535552501,-0.014113865548372267,0.1927729811310768
1733751587876002000,11.531001953125,0.1421487093091011,-0.06172258894145488,0.20986907736063
1733751587885978000,11.54097802734375,0.1697942566037178,-0.08085282134711742,0.2253326039522886
1733751587895954200,11.5509541015625,0.11368132423758506,-0.05098433730602264,0.23211218108981846
1733751587905929200,11.56092919921875,0.061653615358471865,-0.021981530183553696,0.25719576894193885
1733751587915905300,11.5709052734375,0.009019172757863998,0.03876782981157303,0.30412381659448146
1733751587925881600,11.580881591796874,-0.03740209441632032,0.05355155744552612,0.3203384538143873
1733751587935857400,11.590857421875,-0.10901420920938253,0.10371288793087005,0.17755758408159017
1733751587945832400,11.60083251953125,-0.15774433784782885,0.18132511992156505,-0.054072074188292026
1733751587955808500,11.61080859375,-0.16310323453247547,0.23425299251079557,-0.2079246652945876
1733751587965784600,11.62078466796875,-0.15803309166133403,0.21488778230547903,-0.2433344168499112
1733751587975759600,11.630759521484375,-0.13756196604073045,0.21802841841876505,-0.2173360522404313
1733751587985735400,11.6407353515625,-0.12984335448741913,0.2007546275347471,-0.1762576073989272
1733751587995711500,11.65071142578125,-0.07659808651208877,0.14721242243945598,-0.039786066943407056
1733751588005686500,11.6606865234375,0.011921908462047576,0.116594581335783,0.025438684900104997
1733751588015662300,11.670662353515626,0.07830547495186328,0.11998714638352394,-0.0016235095486044882
1733751588025638700,11.680638671875,0.13597615815401076,0.122894558262825,-0.008010287976264954
1733751588035614500,11.690614501953124,0.10519406639933586,0.053369771137833595,-0.004239537265896797
1733751588045589500,11.700589599609375,-0.02174772142767906,0.018256956702470777,-0.004557517173886299
1733751588055565600,11.710565673828125,-0.1660112309336662,0.026695699223875997,0.026535247965157032
1733751588065541600,11.720541748046875,-0.16407237182557582,0.030748774006962774,0.05581394941955804
1733751588075516400,11.730516357421875,-0.08437690382003783,-0.035523733323812486,0.03509966269284487
1733751588085492700,11.74049267578125,0.009569207856059074,-0.0972100819081068,0.07657704372406006
1733751588095468500,11.750468505859375,0.015603227323293684,-0.10659399632513522,0.06539777032285929
1733751588105444400,11.7604443359375,0.007522212198376655,-0.09247487007975577,0.05793488709628582
1733751588115419400,11.77041943359375,-0.03316109584569931,-0.019160627543926237,0.0744791946619749
1733751588125395500,11.7803955078125,-0.0020616087049245835,-0.013149404430389403,0.06890168679058552
1733751588135371500,11.79037158203125,0.021471827095746993,-0.017325228810310362,0.062078855033218854
1733751588145346300,11.80034619140625,0.0269745161652565,-0.027892215532064436,0.008919511775672436
1733751588155322600,11.810322509765625,-0.011311083087325095,-0.028498364731669425,-0.06114771166294813
1733751588165298400,11.82029833984375,-0.027669512692093848,0.012822656694054602,-0.09193126472234725
1733751588175274500,11.8302744140625,-0.05494271954298019,0.018771335965394972,-0.09961334365755319
1733751588185249500,11.84024951171875,-0.055929392492771145,0.0031412206351757047,-0.04753799624443054
1733751588195225600,11.8502255859375,-0.052902153626084324,-0.004165887507796288,0.012650661128014325
1733751588205201700,11.86020166015625,-0.1291290687382221,0.021800328397750854,0.008630611831694841
1733751588215176700,11.8701767578125,-0.23875614914894103,0.053180970567464826,-0.019525369203090667
1733751588225152500,11.880152587890626,-0.33990707763731476,0.08335574407875537,-0.03946691799163818
1733751588235128300,11.89012841796875,-0.28221242903769017,0.09437456622123717,-0.023036299933493137
1733751588245103600,11.900103515625,-0.09798924958705901,0.08073825505673884,0.016288286978006362
1733751588255079400,11.910079345703124,0.02981704611480236,0.04536065220534801,0.07095189731866121
1733751588265055500,11.920055419921875,0.07182195815145968,0.01664426080882549,0.11879442946761846
1733751588275031600,11.930031494140625,0.0904126768529415,-0.014340075519680976,0.1056453172981739
1733751588285006600,11.940006591796875,0.08995265812575817,0.012077391284704208,0.07533844183981418
1733751588294982400,11.949982421875,0.03444587495923042,0.019459318229556082,-0.004263648793846369
1733751588304958500,11.95995849609375,-0.054047232007980346,-0.005772738182544708,-0.14721213017851115
1733751588314933500,11.96993359375,-0.1610445484369993,-0.004944470664858818,-0.17637348886355755
1733751588324909600,11.97990966796875,-0.16515315279960632,-0.0338280353218317,-0.07882116938903927
1733751588334885600,11.9898857421875,-0.14121990402638912,-0.0015998364120721816,-0.004096621663868427
1733751588344861400,11.999861328125,-0.08763619787693024,0.03210544931292534,-0.007688508675992489
1733751588354836500,12.00983642578125,0.08997837708890438,0.07724807485342025,0.03161649675220251
1733751588364812500,12.0198125,0.22993454478979108,0.08313128767311573,0.10078107226267456
1733751588374788600,12.02978857421875,0.2624590962976217,0.06919628582298755,0.1898363431572914
1733751588384763400,12.039763427734375,0.2748480377495289,0.1409112764686346,0.198939248675853
1733751588394739500,12.049739501953125,0.23931378303170203,0.21723171508312225,0.18133505679368972
1733751588404715500,12.059715576171875,0.1045031615257263,0.23629648103713988,0.08208250927254557
1733751588414690600,12.069690673828125,0.04586743268370628,0.20632453662157058,0.038479806650429965
1733751588424666400,12.079666259765625,0.01939794343113899,0.0970318027317524,0.057216655824333426
1733751588434642400,12.089642333984376,-0.01834931116104126,0.0019400281518697738,0.08275003327056765
1733751588444618500,12.099618408203124,-0.08129764250516891,-0.029532383954524993,0.15808657541424034
1733751588454593500,12.109593505859374,-0.12513561518788338,-0.07683423335552216,0.23026903744116425
1733751588464569600,12.119569580078124,-0.08872574667930602,-0.09155307905972003,0.26061843686699865
1733751588474545400,12.12954541015625,-0.04727320782840252,-0.10587328083515167,0.26638357626497744
1733751588484520400,12.1395205078125,0.024631460170447823,-0.04085457295775413,0.25501418711915613
1733751588494496500,12.14949658203125,0.06217325531840324,0.02505786888897419,0.25573300291299816
1733751588504472600,12.15947265625,0.056872226300835604,0.11399521249234676,0.21230419555306435
1733751588514448400,12.169448486328125,0.06260200212448835,0.17060148133337497,0.15542042494490743
1733751588524423700,12.179423583984375,0.05240589454174041,0.20826573381721972,0.08301452942565082
1733751588534399500,12.1893994140625,0.01324585054218769,0.21470248886644838,0.00819470463246107
1733751588544375300,12.199375244140626,-0.0494306781232357,0.12320961556136607,-0.007333703888952731
