time,seconds_elapsed,z,y,x
1733751576364029400,0.019029541015625,0.08694514632225037,0.23783601820468903,0.24190253019332886
1733751576374004500,0.02900439453125,0.04786078259348869,0.23972637951374054,0.23314225673675537
1733751576383980300,0.038980224609375,0.025530708953738213,0.23804406821727753,0.21839499473571777
1733751576393956400,0.048956298828125,0.02879096008837223,0.22516891360282898,0.1896628439426422
1733751576403931400,0.058931396484375,0.044934242963790894,0.1482408344745636,0.17423515021800995
1733751576413907200,0.0689072265625,0.06112188100814819,0.10866572707891464,0.16311615705490112
1733751576423883500,0.078883544921875,0.0925823375582695,0.14076827466487885,0.16276594996452332
1733751576433859300,0.088859375,0.11844424158334732,0.18840311467647552,0.1906982660293579
1733751576443834400,0.09883447265625,0.1345001757144928,0.24241681396961212,0.22758810222148895
1733751576453810400,0.108810546875,0.15632140636444092,0.2858791947364807,0.25041747093200684
1733751576463786200,0.1187861328125,0.16803984344005585,0.3032533824443817,0.25345295667648315
1733751576473762300,0.12876220703125,0.1747351586818695,0.3248797655105591,0.24806901812553406
1733751576483737300,0.1387373046875,0.1683955043554306,0.34267446398735046,0.22815842926502228
1733751576493713400,0.14871337890625,0.15508383512496948,0.3234202563762665,0.1999908983707428
1733751576503689200,0.158689208984375,0.14216110110282898,0.2827777564525604,0.1755547970533371
1733751576513664500,0.16866455078125,0.1434612274169922,0.2268846035003662,0.14022186398506165
1733751576523640300,0.178640380859375,0.15196789801120758,0.18697874248027802,0.0943012535572052
1733751576533616400,0.188616455078125,0.16707052290439606,0.2003273069858551,0.060588326305150986
1733751576543592400,0.198592529296875,0.16867348551750183,0.21914227306842804,0.04037866368889809
1733751576553567500,0.2085673828125,0.15220122039318085,0.19344832003116608,0.029757536947727203
1733751576563543300,0.218543212890625,0.1488155573606491,0.1260293424129486,0.027339652180671692
1733751576573519400,0.228519287109375,0.15735258162021637,0.08775704354047775,0.03649480268359184
1733751576583495400,0.238495361328125,0.1498938649892807,0.08201047033071518,0.063050776720047
1733751576593470200,0.24847021484375,0.1110750287771225,0.08553752303123474,0.11913464963436127
1733751576603446500,0.258446533203125,0.1147422045469284,0.08778975903987885,0.20703627169132233
1733751576613422300,0.26842236328125,0.14099806547164917,0.09589916467666626,0.25974908471107483
1733751576623398400,0.2783984375,0.15948013961315155,0.11842204630374908,0.2943158447742462
1733751576633373400,0.28837353515625,0.18190859258174896,0.1227257177233696,0.31422433257102966
1733751576643349500,0.298349609375,0.18628843128681183,0.10072188824415207,0.3066641688346863
1733751576653325300,0.3083251953125,0.1870853304862976,0.07265424728393555,0.28081077337265015
1733751576663300400,0.31830029296875,0.1924571841955185,0.03254837542772293,0.24944299459457397
1733751576673276400,0.3282763671875,0.18107745051383972,-0.010809620842337608,0.21493560075759888
1733751576683252200,0.338252197265625,0.1716325432062149,-0.01900390163064003,0.18577958643436432
1733751576693228500,0.348228515625,0.1558152735233307,-0.042489636689424515,0.1410697102546692
1733751576703203300,0.358203369140625,0.14306218922138214,-0.039418745785951614,0.12566038966178894
1733751576713179400,0.368179443359375,0.1466783583164215,-0.05876714736223221,0.13805310428142548
1733751576723155500,0.378155517578125,0.15401910245418549,-0.04034419730305672,0.1586737036705017
1733751576733131500,0.388131591796875,0.14817991852760315,0.007603755686432123,0.15918584167957306
1733751576743106300,0.398106201171875,0.12403463572263718,0.016902981325984,0.15022483468055725
1733751576753082400,0.408082275390625,0.09240061789751053,0.003182857995852828,0.12284708023071289
1733751576763058400,0.418058349609375,0.07995833456516266,-0.015996694564819336,0.0654040277004242
1733751576773033500,0.428033447265625,0.0819341316819191,-0.034112315624952316,0.002584050642326474
1733751576783009300,0.43800927734375,0.08764554560184479,-0.04959433525800705,-0.03687947243452072
1733751576792985300,0.4479853515625,0.08872499316930771,-0.0742540955543518,-0.046215806156396866
1733751576802961400,0.45796142578125,0.05865604430437088,-0.04451324790716171,-0.02169528231024742
1733751576812936200,0.467936279296875,0.013349399901926517,-0.0133124440908432,0.011881082318723202
1733751576822912500,0.47791259765625,-0.028343982994556427,0.007720668334513903,0.036537960171699524
1733751576832888300,0.487888427734375,-0.03464747220277786,0.027792148292064667,0.06770054996013641
1733751576842864400,0.497864501953125,-0.03812023252248764,0.011575363576412201,0.059629037976264954
1733751576852839400,0.50783935546875,-0.04166173189878464,0.008764678612351418,0.04299606382846832
1733751576862815500,0.5178154296875,-0.0558268204331398,0.010570568032562733,0.054496657103300095
1733751576872791300,0.527791259765625,-0.05471789091825485,0.03439263626933098,0.07588966935873032
1733751576882767400,0.537767333984375,-0.024818314239382744,0.06698546558618546,0.049103595316410065
1733751576892742400,0.547742431640625,-0.018632492050528526,0.04764721542596817,-0.02369619533419609
1733751576902718200,0.55771826171875,-0.030973579734563828,0.026632213965058327,-0.07451117783784866
1733751576912694300,0.5676943359375,-0.0438215397298336,-0.008006232790648937,-0.11891502887010574
1733751576922669300,0.57766943359375,-0.045031677931547165,-0.04757947474718094,-0.14199985563755035
1733751576932645400,0.587645263671875,-0.03308405354619026,-0.08822651207447052,-0.0981847494840622
1733751576942621200,0.59762109375,-0.0359693244099617,-0.11229030042886734,-0.009862075559794903
1733751576952597500,0.607597412109375,-0.0515451580286026,-0.10867803543806076,0.07188641279935837
1733751576962572300,0.617572265625,-0.09917153418064117,-0.10204410552978516,0.08036884665489197
1733751576972548400,0.62754833984375,-0.161423921585083,-0.09476883709430695,0.05848342552781105
1733751576982524400,0.6375244140625,-0.20545822381973267,-0.08012677729129791,0.0237579345703125
1733751576992500200,0.647500244140625,-0.23406842350959778,-0.08112750202417374,-0.03158220648765564
1733751577002475300,0.657475341796875,-0.28478407859802246,-0.11182842403650284,-0.09861663728952408
1733751577012451300,0.667451416015625,-0.316830039024353,-0.20151932537555695,-0.17688865959644318
1733751577022427400,0.677427490234375,-0.3180553615093231,-0.2765253782272339,-0.27388206124305725
1733751577032402200,0.687402099609375,-0.3415040075778961,-0.3045082688331604,-0.33588215708732605
1733751577042378200,0.697378173828125,-0.3607320487499237,-0.2508942782878876,-0.29217249155044556
1733751577052354300,0.707354248046875,-0.4173072874546051,-0.1812850385904312,-0.17553555965423584
1733751577062330400,0.717330322265625,-0.45374733209609985,-0.10190819203853607,-0.0248405858874321
1733751577072305200,0.72730517578125,-0.4484543204307556,-0.040383923798799515,0.10485930740833282
1733751577082281500,0.737281494140625,-0.41709399223327637,0.003972622100263834,0.18523457646369934
1733751577092257300,0.74725732421875,-0.38094964623451233,0.009431260637938976,0.22859811782836914
1733751577102233300,0.7572333984375,-0.3520740568637848,-0.0051311710849404335,0.23785527050495148
1733751577112208400,0.76720849609375,-0.3280189335346222,-0.025720499455928802,0.2153056263923645
1733751577122184200,0.77718408203125,-0.25479957461357117,-0.15742073953151703,0.06021830067038536
1733751577132160300,0.78716015625,-0.2336168885231018,-0.32319027185440063,-0.1929842233657837
1733751577142136300,0.79713623046875,-0.3421438932418823,-0.4122660756111145,-0.22804421186447144
1733751577152111400,0.807111328125,-0.4556275010108948,-0.3184851408004761,0.00467826658859849
1733751577162087200,0.817087158203125,-0.42556068301200867,-0.18545839190483093,0.1305917352437973
1733751577172063200,0.827063232421875,-0.30559784173965454,-0.08453193306922913,0.15198639035224915
1733751577182038300,0.837038330078125,-0.21511030197143555,-0.10386248677968979,0.15093150734901428
1733751577192014300,0.847014404296875,-0.1917038857936859,-0.12924569845199585,0.12921355664730072
1733751577201990400,0.856990478515625,-0.18726280331611633,-0.12374228239059448,0.06902825832366943
1733751577211966200,0.86696630859375,-0.17882958054542542,-0.11763675510883331,-0.024454696103930473
1733751577221941200,0.876941162109375,-0.1803651601076126,-0.13314807415008545,-0.11031314730644226
1733751577231917300,0.886917236328125,-0.18842299282550812,-0.17064136266708374,-0.16343216598033905
1733751577241893400,0.896893310546875,-0.20598067343235016,-0.1976623237133026,-0.19044780731201172
1733751577251869200,0.906869140625,-0.2142273336648941,-0.21048231422901154,-0.1840040385723114
1733751577261844500,0.916844482421875,-0.21307790279388428,-0.2009921371936798,-0.15058323740959167
1733751577271820300,0.9268203125,-0.1996980607509613,-0.19693230092525482,-0.09983468055725098
1733751577281796000,0.936796142578125,-0.17756877839565277,-0.1557348072528839,-0.04264143481850624
1733751577291771400,0.946771484375,-0.15718741714954376,-0.08011086285114288,0.01326163299381733
1733751577301747200,0.956747314453125,-0.15491734445095062,-0.017545482143759727,0.07105009257793427
1733751577311723300,0.96672314453125,-0.1679626703262329,0.012092644348740578,0.11864852905273438
1733751577321699300,0.97669921875,-0.19136066734790802,0.0408630408346653,0.14073997735977173
1733751577331674400,0.98667431640625,-0.21301409602165222,0.02620282769203186,0.1464373767375946
1733751577341650200,0.996650146484375,-0.23952798545360565,-0.027666263282299042,0.1263938993215561
1733751577351626500,1.00662646484375,-0.27136391401290894,-0.08328571170568466,0.10334824025630951
1733751577361602300,1.016602294921875,-0.2970764636993408,-0.120860256254673,0.08429518342018127
1733751577371577300,1.026577392578125,-0.3261227607727051,-0.13470682501792908,0.07292375713586807
1733751577381553400,1.036553466796875,-0.35180121660232544,-0.11119937151670456,0.08302219212055206
1733751577391529200,1.046529296875,-0.3686908185482025,-0.04792356491088867,0.10384291410446167
1733751577401505300,1.05650537109375,-0.3610243797302246,0.03480486944317818,0.13718196749687195
1733751577411480000,1.06647998046875,-0.3389902710914612,0.09052953124046326,0.19281624257564545
1733751577421456400,1.076456298828125,-0.3260619342327118,0.12005333602428436,0.2544894516468048
1733751577431432200,1.08643212890625,-0.3337104916572571,0.10682599246501923,0.3004129230976105
1733751577441407200,1.0964072265625,-0.35774603486061096,0.049895595759153366,0.3268865942955017
1733751577451383300,1.10638330078125,-0.3856748044490814,-0.02108454704284668,0.3218109905719757
1733751577461359400,1.116359375,-0.40505728125572205,-0.09461095929145813,0.2875920236110687
1733751577471335400,1.12633544921875,-0.39736294746398926,-0.14241890609264374,0.23121125996112823
1733751577481310500,1.136310546875,-0.3667011559009552,-0.19849203526973724,0.18366211652755737
1733751577491286300,1.146286376953125,-0.33634287118911743,-0.25654885172843933,0.1520555019378662
1733751577501262000,1.156261962890625,-0.31779077649116516,-0.2930392026901245,0.15598633885383606
1733751577511238400,1.16623828125,-0.326244056224823,-0.3084924817085266,0.1915292590856552
1733751577521213200,1.176213134765625,-0.34364327788352966,-0.32862862944602966,0.2661110758781433
1733751577531189200,1.186189208984375,-0.35512664914131165,-0.3586345911026001,0.35738426446914673
1733751577541165300,1.196165283203125,-0.35042378306388855,-0.4051264524459839,0.4272613525390625
1733751577551140400,1.206140380859375,-0.3251669704914093,-0.44550061225891113,0.47292402386665344
1733751577561116200,1.2161162109375,-0.29632866382598877,-0.47881731390953064,0.49982330203056335
1733751577571092500,1.226092529296875,-0.28279605507850647,-0.564140796661377,0.5157493352890015
1733751577581068300,1.236068359375,-0.297809898853302,-0.6462894678115845,0.52459317445755
1733751577591043300,1.246043212890625,-0.33265358209609985,-0.7239950299263,0.5279956459999084
1733751577601019400,1.256019287109375,-0.3798953890800476,-0.7853249311447144,0.5139336585998535
1733751577610995200,1.2659951171875,-0.4174385368824005,-0.8032731413841248,0.46044889092445374
1733751577620971300,1.27597119140625,-0.43876537680625916,-0.7873154282569885,0.3836475908756256
1733751577630946300,1.2859462890625,-0.4568004608154297,-0.7629286050796509,0.3027871251106262
1733751577640922400,1.29592236328125,-0.4641917943954468,-0.764423668384552,0.24049286544322968
1733751577650898200,1.305898193359375,-0.4946017563343048,-0.791108250617981,0.1951262503862381
1733751577660873500,1.31587353515625,-0.5046792030334473,-0.8502192497253418,0.15729045867919922
1733751577670849300,1.325849365234375,-0.4440634846687317,-0.9684259295463562,0.14014454185962677
1733751577680825300,1.335825439453125,-0.45095786452293396,-1.032749056816101,0.13351726531982422
1733751577690801400,1.345801513671875,-0.4777807891368866,-1.0880898237228394,0.164979949593544
1733751577700776400,1.3557763671875,-0.5184621810913086,-1.1391170024871826,0.21811960637569427
1733751577710752300,1.365752197265625,-0.5596028566360474,-1.1801650524139404,0.23142419755458832
1733751577720728300,1.375728271484375,-0.5903381109237671,-1.231895089149475,0.1995813101530075
1733751577730704400,1.385704345703125,-0.5849500298500061,-1.2888171672821045,0.12092986702919006
1733751577740679200,1.39567919921875,-0.5434877872467041,-1.3459116220474243,0.012470767833292484
1733751577750655500,1.405655517578125,-0.47880205512046814,-1.3324863910675049,-0.07226992398500443
1733751577760631300,1.41563134765625,-0.3982619345188141,-1.264206886291504,-0.10002139210700989
1733751577770606300,1.4256064453125,-0.3434329926967621,-1.107508897781372,-0.010517025366425514
1733751577780582100,1.43558203125,-0.31529751420021057,-0.8968448638916016,0.1718892604112625
1733751577790558500,1.445558349609375,-0.3691931664943695,-0.7014775276184082,0.4220361113548279
1733751577800534300,1.4555341796875,-0.4501687288284302,-0.49602022767066956,0.6766883730888367
1733751577810509300,1.46550927734375,-0.5342093110084534,-0.3654867112636566,0.8853886127471924
1733751577820485400,1.4754853515625,-0.5869449377059937,-0.18689382076263428,1.0115801095962524
1733751577830461200,1.485461181640625,-0.6070605516433716,-0.13222147524356842,1.0730068683624268
1733751577840436200,1.495436279296875,-0.5974129438400269,-0.014839458279311657,1.0495084524154663
1733751577850412300,1.505412353515625,-0.5428956151008606,-0.002784882904961705,0.9341018795967102
1733751577860388400,1.515388427734375,-0.47713443636894226,-0.011943760327994823,0.7406392097473145
1733751577870364200,1.5253642578125,-0.4099980592727661,-0.10191212594509125,0.5411881804466248
1733751577880339500,1.53533935546875,-0.36203402280807495,-0.2478562742471695,0.3928123116493225
1733751577890315300,1.545315185546875,-0.3835938274860382,-0.31945088505744934,0.312591552734375
1733751577900291300,1.555291259765625,-0.41101986169815063,-0.5092746019363403,0.3045259118080139
1733751577910267400,1.565267333984375,-0.46677035093307495,-0.6368893980979919,0.3646469712257385
1733751577920242400,1.575242431640625,-0.49760523438453674,-0.7594539523124695,0.4640670418739319
1733751577930218200,1.58521826171875,-0.49480822682380676,-0.6093796491622925,0.5148389339447021
1733751577940194300,1.5951943359375,-0.4499656558036804,-0.44124895334243774,0.5395189523696899
1733751577950169300,1.60516943359375,-0.41731882095336914,-0.27402061223983765,0.5441181063652039
1733751577960145200,1.615145263671875,-0.3677094578742981,-0.13808673620224,0.5181043744087219
1733751577970121500,1.62512158203125,-0.3551695942878723,0.03156791627407074,0.4460984468460083
1733751577980097300,1.63509716796875,-0.3562558889389038,-0.007928093895316124,0.41226726770401
1733751577990072300,1.645072265625,-0.384163498878479,-0.14030784368515015,0.3466099500656128
1733751578000048400,1.65504833984375,-0.49748870730400085,-0.16065998375415802,0.2767230272293091
1733751578010024200,1.665024169921875,-0.5916212201118469,-0.32008054852485657,0.24737867712974548
1733751578020000300,1.675000244140625,-0.648770272731781,-0.39623361825942993,0.1540157049894333
1733751578029975300,1.684975341796875,-0.6954521536827087,-0.4080384373664856,0.07036153227090836
1733751578039951400,1.694951416015625,-0.7092036604881287,-0.4176199734210968,0.031066853553056717
1733751578049927200,1.70492724609375,-0.6829196810722351,-0.3559625446796417,0.0012781916884705424
1733751578059902200,1.714902099609375,-0.6234773993492126,-0.2963261306285858,-0.01075077336281538
1733751578069878300,1.724878173828125,-0.5442447662353516,-0.29187634587287903,-0.015123825520277023
1733751578079854300,1.734854248046875,-0.4825851321220398,-0.299164354801178,-0.00805979035794735
1733751578089830400,1.744830322265625,-0.4713444113731384,-0.3305639326572418,-0.00196719984523952
1733751578099805400,1.754805419921875,-0.4546149671077728,-0.34595832228660583,-0.020349137485027313
1733751578109781200,1.76478125,-0.4155529737472534,-0.3107393980026245,-0.08761918544769287
1733751578119757300,1.77475732421875,-0.4166414141654968,-0.31867748498916626,-0.14215460419654846
1733751578129732400,1.784732421875,-0.41976475715637207,-0.24421881139278412,-0.1707538664340973
1733751578139708200,1.794708251953125,-0.40503188967704773,-0.16895654797554016,-0.1502523124217987
1733751578149684200,1.804684326171875,-0.3888007402420044,-0.1110839918255806,-0.11944012343883514
1733751578159660300,1.814660400390625,-0.3807979226112366,-0.06529360264539719,-0.09598220884799957
1733751578169635300,1.82463525390625,-0.36450281739234924,-0.05770956724882126,-0.09069254249334335
1733751578179611100,1.834611083984375,-0.35873734951019287,-0.0642995536327362,-0.11336030066013336
1733751578189587500,1.84458740234375,-0.3830101490020752,-0.09622617810964584,-0.15382055938243866
1733751578199563300,1.854563232421875,-0.37477993965148926,-0.11711414903402328,-0.20154866576194763
1733751578209538300,1.864538330078125,-0.3948136568069458,-0.19968876242637634,-0.2116595059633255
1733751578219514400,1.874514404296875,-0.40853720903396606,-0.19205747544765472,-0.2123471200466156
1733751578229490200,1.884490234375,-0.41073745489120483,-0.1751563549041748,-0.2144877016544342
1733751578239465200,1.89446533203125,-0.41555219888687134,-0.16962577402591705,-0.22627060115337372
1733751578249441300,1.904441162109375,-0.4252482056617737,-0.16810166835784912,-0.22174087166786194
1733751578259417300,1.914417236328125,-0.429928183555603,-0.1568940281867981,-0.21607686579227448
1733751578269393200,1.92439306640625,-0.4264976978302002,-0.1637887954711914,-0.18988068401813507
1733751578279368400,1.934368408203125,-0.4060094654560089,-0.1508847177028656,-0.14893245697021484
1733751578289344300,1.94434423828125,-0.3749663233757019,-0.13500554859638214,-0.0949607715010643
1733751578299320300,1.9543203125,-0.3448246717453003,-0.12974953651428223,-0.04856078326702118
1733751578309295400,1.96429541015625,-0.3207393288612366,-0.13178737461566925,-0.014159338548779488
1733751578319271400,1.974271484375,-0.3105492889881134,-0.13467556238174438,0.006650868337601423
1733751578329247200,1.984247314453125,-0.3204719126224518,-0.12867432832717896,0.017758160829544067
1733751578339223300,1.994223388671875,-0.35076484084129333,-0.11139360070228577,0.017745910212397575
1733751578349198300,2.0041982421875,-0.38854411244392395,-0.1193137988448143,0.0016403510235249996
1733751578359174100,2.014174072265625,-0.4079311192035675,-0.1449379324913025,-0.028165215626358986
1733751578369150500,2.024150390625,-0.4096774160861969,-0.16598723828792572,-0.05706243962049484
1733751578379125200,2.034125244140625,-0.3965222239494324,-0.17469897866249084,-0.07174098491668701
1733751578389101300,2.044101318359375,-0.3766045868396759,-0.1812106817960739,-0.06168971210718155
1733751578399077400,2.054077392578125,-0.35759440064430237,-0.18742942810058594,-0.04423056170344353
1733751578409053400,2.064053466796875,-0.3250041604042053,-0.19271503388881683,-0.03503986820578575
1733751578419028200,2.0740283203125,-0.29403799772262573,-0.1919317990541458,-0.03435570374131203
1733751578429004300,2.08400439453125,-0.27584120631217957,-0.19413737952709198,-0.045756224542856216
1733751578438980400,2.09398046875,-0.28481927514076233,-0.1729077249765396,-0.05926670879125595
1733751578448956200,2.1039560546875,-0.30591991543769836,-0.1415039747953415,-0.06515883654356003
1733751578458931200,2.11393115234375,-0.33017653226852417,-0.09714636206626892,-0.06625872105360031
1733751578468907300,2.1239072265625,-0.34000012278556824,-0.05593494698405266,-0.061309538781642914
1733751578478883300,2.13388330078125,-0.3451772928237915,-0.00359025108627975,-0.057343292981386185
1733751578488858000,2.143858154296875,-0.33693259954452515,0.03931988403201103,-0.046837326139211655
1733751578498834400,2.15383447265625,-0.3116525411605835,0.058085847645998,-0.02743460237979889
1733751578508810200,2.163810302734375,-0.2943463921546936,0.03783472254872322,-0.014892365783452988
1733751578518786300,2.173786376953125,-0.283402681350708,0.011724292300641537,-0.020545722916722298
1733751578528761300,2.18376123046875,-0.27270859479904175,-0.014993252232670784,-0.03858909383416176
1733751578538737400,2.1937373046875,-0.27715128660202026,-0.0417388454079628,-0.07406160235404968
1733751578548713200,2.203713134765625,-0.2800693213939667,-0.0784202441573143,-0.10568135976791382
1733751578558688500,2.2136884765625,-0.2891690731048584,-0.10578501969575882,-0.13656045496463776
1733751578568664300,2.223664306640625,-0.2921063303947449,-0.11539313197135925,-0.16305983066558838
1733751578578640100,2.23364013671875,-0.2796754837036133,-0.1121363565325737,-0.1747409850358963
1733751578588616400,2.243616455078125,-0.26661548018455505,-0.10200151801109314,-0.17736320197582245
1733751578598591200,2.25359130859375,-0.2404043972492218,-0.08690405637025833,-0.17850063741207123
1733751578608567300,2.2635673828125,-0.21854110062122345,-0.07265796512365341,-0.17123669385910034
1733751578618543400,2.27354345703125,-0.19931760430335999,-0.0750952884554863,-0.15565267205238342
1733751578628519400,2.28351953125,-0.19212710857391357,-0.1006712093949318,-0.14884105324745178
1733751578638494200,2.293494140625,-0.18334878981113434,-0.14770609140396118,-0.15005332231521606
1733751578648470500,2.303470458984375,-0.18315015733242035,-0.18945199251174927,-0.17964580655097961
1733751578658446300,2.3134462890625,-0.1830420345067978,-0.22487762570381165,-0.21247485280036926
1733751578668421400,2.32342138671875,-0.17161977291107178,-0.22773553431034088,-0.22240041196346283
1733751578678397400,2.3333974609375,-0.14912459254264832,-0.1625080704689026,-0.1896888166666031
1733751578688373200,2.343373291015625,-0.11789219081401825,-0.049115218222141266,-0.11950211226940155
1733751578698349300,2.353349365234375,-0.08626022934913635,0.043147068470716476,-0.03580988198518753
1733751578708324000,2.363323974609375,-0.05821913853287697,0.08895725011825562,0.013084501959383488
1733751578718300400,2.373300537109375,-0.037149008363485336,0.0984029471874237,0.016961798071861267
1733751578728276200,2.383276123046875,-0.02885035052895546,0.07936420291662216,-0.003434868063777685
1733751578738251300,2.393251220703125,-0.03769950196146965,0.035632967948913574,-0.045573268085718155
1733751578748227300,2.403227294921875,-0.03667563572525978,-0.011566512286663055,-0.09197275340557098
1733751578758203400,2.413203369140625,-0.03721173107624054,-0.04867180436849594,-0.1255917102098465
1733751578768179500,2.423179443359375,-0.03886101394891739,-0.0691731721162796,-0.13262468576431274
1733751578778154500,2.433154541015625,-0.04638391360640526,-0.07382571697235107,-0.1204385906457901
1733751578788130300,2.44313037109375,-0.05573774129152298,-0.07673752307891846,-0.10524594783782959
1733751578798106000,2.453106201171875,-0.05664774402976036,-0.07262161374092102,-0.09212082624435425
1733751578808081400,2.463081298828125,-0.053150489926338196,-0.051997728645801544,-0.07166630774736404
1733751578818057200,2.47305712890625,-0.045695770531892776,-0.020295727998018265,-0.04828907921910286
1733751578828033300,2.483033203125,-0.03786887973546982,0.0011170662473887205,-0.03814224898815155
1733751578838009300,2.49300927734375,-0.02192906104028225,0.015469107776880264,-0.03872441500425339
1733751578847984400,2.502984375,-0.012484179809689522,0.017756151035428047,-0.04969162493944168
1733751578857960200,2.512960205078125,-0.01452549360692501,0.002106352476403117,-0.06650096923112869
1733751578867936300,2.522936279296875,-0.01789901778101921,-0.016873126849532127,-0.08533801883459091
1733751578877912300,2.532912353515625,-0.015109356492757797,-0.0064913262613117695,-0.08693352341651917
1733751578887887400,2.542887451171875,-0.007563161663711071,0.016390468925237656,-0.06020531803369522
1733751578897863400,2.552863525390625,0.004493501503020525,0.04362555220723152,-0.025151457637548447
1733751578907839200,2.562839111328125,0.024711094796657562,0.07128393650054932,0.017004234716296196
1733751578917814300,2.572814208984375,0.047068867832422256,0.0891372337937355,0.044390853494405746
1733751578927790000,2.5827900390625,0.06725726276636124,0.08073022961616516,0.06690358370542526
1733751578937766100,2.59276611328125,0.07034040242433548,0.07015401870012283,0.0790390819311142
1733751578947742200,2.6027421875,0.0567808598279953,0.07846507430076599,0.0917937383055687
1733751578957717200,2.61271728515625,0.03568223491311073,0.08568970113992691,0.1028599739074707
1733751578967693000,2.622693115234375,0.01499075535684824,0.07801076769828796,0.11167304962873459
1733751578977669000,2.632669189453125,0.006062507629394531,0.07290282845497131,0.10924024879932404
1733751578987644200,2.64264404296875,0.013513963669538498,0.056143246591091156,0.11161641776561737
1733751578997620200,2.6526201171875,0.02316419407725334,0.052049703896045685,0.10997990518808365
1733751579007596300,2.66259619140625,0.03566499426960945,0.060983866453170776,0.1167149767279625
1733751579017572000,2.672572021484375,0.03109154663980007,0.09063150733709335,0.13094183802604675
1733751579027547100,2.682547119140625,0.02526036836206913,0.10868848860263824,0.14665350317955017
1733751579037523200,2.692523193359375,0.007013719994574785,0.08844845741987228,0.16131073236465454
1733751579047499300,2.702499267578125,-0.015665434300899506,0.04170612618327141,0.1419610232114792
1733751579057474000,2.71247412109375,-0.03679575398564339,-0.010512072592973709,0.10100479423999786
1733751579067450400,2.722450439453125,-0.05425319820642471,-0.04676495119929314,0.05014535039663315
1733751579077426200,2.73242626953125,-0.059616804122924805,-0.09124559909105301,0.0065504685044288635
1733751579087402000,2.742402099609375,-0.04756210371851921,-0.09219025075435638,-0.032164547592401505
1733751579097377000,2.752376953125,-0.02259310521185398,-0.08019058406352997,-0.026313582435250282
1733751579107353000,2.76235302734375,0.00675945682451129,-0.03600287809967995,0.007565821520984173
1733751579117329200,2.7723291015625,0.03288799524307251,0.013393431901931763,0.05974513664841652
1733751579127304200,2.78230419921875,0.04305693134665489,0.0780438482761383,0.11435665190219879
1733751579137280300,2.7922802734375,0.047821059823036194,0.11190887540578842,0.13658392429351807
1733751579147256000,2.802256103515625,0.03077320009469986,0.12524175643920898,0.11242703348398209
1733751579157232400,2.812232421875,0.05283855274319649,0.13695086538791656,0.07187055796384811
1733751579167207200,2.822207275390625,0.04370071366429329,0.08780729025602341,0.056222885847091675
1733751579177183200,2.832183349609375,0.029018975794315338,0.07353008538484573,0.027425594627857208
1733751579187159000,2.842158935546875,0.041803184896707535,0.054983846843242645,0.03114129975438118
1733751579197135000,2.852135009765625,0.07303301244974136,0.054310865700244904,0.04359796643257141
1733751579207110100,2.862110107421875,0.10115209966897964,0.058478549122810364,0.060699861496686935
1733751579217086000,2.8720859375,0.09816855937242508,0.06321285665035248,0.07527826726436615
1733751579227062300,2.882062255859375,0.07837852835655212,0.08124775439500809,0.06997529417276382
1733751579237037000,2.892037109375,0.05976755544543266,0.09050676971673965,0.05165940150618553
1733751579247013000,2.90201318359375,0.09146095812320709,0.1245526671409607,0.04305306822061539
1733751579256989200,2.9119892578125,0.1185210719704628,0.1066700741648674,0.06136150285601616
1733751579266965200,2.92196533203125,0.12013901025056839,0.1302819699048996,0.07230939716100693
1733751579276940000,2.93193994140625,0.11915870010852814,0.16781656444072723,0.11516524851322174
1733751579286916400,2.941916259765625,0.11189700663089752,0.1857946217060089,0.1449681520462036
1733751579296892200,2.95189208984375,0.102045439183712,0.16472262144088745,0.1509978026151657
1733751579306867200,2.9618671875,0.08229325711727142,0.11630646884441376,0.13685046136379242
1733751579316843300,2.97184326171875,0.05242804437875748,0.06681348383426666,0.10592663288116455
1733751579326819000,2.981819091796875,0.021566573530435562,0.021570798009634018,0.05827878415584564
1733751579336795100,2.991795166015625,0.01027290616184473,-0.019421907141804695,0.014724116772413254
1733751579346770200,3.001770263671875,0.020045079290866852,-0.03646212816238403,-0.01135402824729681
1733751579356746200,3.011746337890625,0.038298916071653366,-0.034319885075092316,-0.008940671570599079
1733751579366722000,3.02172216796875,0.06875038892030716,-0.021374136209487915,0.010111270472407341
1733751579376697000,3.031697021484375,0.09550344198942184,0.00004646787419915199,0.0388084277510643
1733751579386673200,3.041673095703125,0.11167271435260773,0.02462015300989151,0.07913254201412201
1733751579396649200,3.051649169921875,0.1095120906829834,0.031805895268917084,0.10958019644021988
1733751579406625300,3.061625244140625,0.10267557203769684,0.01798713393509388,0.11487236618995667
1733751579416600300,3.071600341796875,0.09166659414768219,0.002354911295697093,0.10124177485704422
1733751579426576100,3.081576171875,0.08232557773590088,-0.008578884415328503,0.08337120711803436
1733751579436552200,3.09155224609375,0.08139027655124664,-0.004643797408789396,0.07133612036705017
1733751579446527200,3.10152734375,0.08863665908575058,0.017086848616600037,0.07146468758583069
1733751579456503000,3.1115029296875,0.10718771070241928,0.05205122381448746,0.07973220199346542
1733751579466479000,3.12147900390625,0.13186036050319672,0.08166525512933731,0.09908119589090347
1733751579476455200,3.131455078125,0.1572011411190033,0.09553686529397964,0.11829058080911636
1733751579486430200,3.14143017578125,0.1735145002603531,0.10553248226642609,0.13903836905956268
1733751579496406000,3.151406005859375,0.18140864372253418,0.1165289357304573,0.1576211005449295
1733751579506382300,3.16138232421875,0.1902066022157669,0.12484700232744217,0.16418960690498352
1733751579516357000,3.171357177734375,0.19989731907844543,0.11522474139928818,0.156362846493721
1733751579526333200,3.181333251953125,0.20019908249378204,0.0998375192284584,0.13823170959949493
1733751579536309200,3.191309326171875,0.20934517681598663,0.08387479931116104,0.12486398965120316
1733751579546285000,3.20128515625,0.21483826637268066,0.07783141732215881,0.11569739133119583
1733751579556260000,3.211260009765625,0.22059814631938934,0.0764300599694252,0.11585904657840729
1733751579566236200,3.221236083984375,0.23405180871486664,0.07063792645931244,0.11293479055166245
1733751579576212200,3.231212158203125,0.24759238958358765,0.06174803152680397,0.11553296446800232
1733751579586187000,3.24118701171875,0.2540123760700226,0.057614609599113464,0.13047730922698975
1733751579596163300,3.251163330078125,0.25633278489112854,0.05898560583591461,0.1430029571056366
1733751579606139100,3.26113916015625,0.2548602223396301,0.05363235995173454,0.15462514758110046
1733751579616115200,3.271115234375,0.25721660256385803,0.05191222205758095,0.16357284784317017
1733751579626090200,3.28109033203125,0.2612629532814026,0.05719144269824028,0.1663575917482376
1733751579636066300,3.29106640625,0.26442572474479675,0.048186227679252625,0.15960487723350525
1733751579646042000,3.3010419921875,0.26240259408950806,0.032119233161211014,0.14063672721385956
1733751579656017200,3.31101708984375,0.26716408133506775,0.019494784995913506,0.11282213777303696
1733751579665993200,3.3209931640625,0.26766303181648254,0.012894227169454098,0.09667440503835678
1733751579675969000,3.330968994140625,0.27709195017814636,0.019158780574798584,0.10040336847305298
1733751579685945300,3.3409453125,0.294365793466568,0.04667549952864647,0.12887470424175262
1733751579695920000,3.350920166015625,0.31508493423461914,0.09663373976945877,0.1694202572107315
1733751579705896200,3.360896240234375,0.32877862453460693,0.14074863493442535,0.21471519768238068
1733751579715872300,3.370872314453125,0.3334341049194336,0.1697579175233841,0.23920269310474396
1733751579725848300,3.380848388671875,0.34447431564331055,0.16670207679271698,0.23940910398960114
1733751579735823000,3.390822998046875,0.3549482524394989,0.15095773339271545,0.21651896834373474
1733751579745799200,3.400799072265625,0.35925933718681335,0.13586445152759552,0.1964394897222519
1733751579755775200,3.410775146484375,0.35628512501716614,0.11594001948833466,0.16832342743873596
1733751579765750300,3.420750244140625,0.35348638892173767,0.09466786682605743,0.1555018424987793
1733751579775726000,3.43072607421875,0.35246559977531433,0.09685938060283661,0.15142346918582916
1733751579785702100,3.4407021484375,0.35758909583091736,0.11033018678426743,0.1668304204940796
1733751579795678200,3.45067822265625,0.365725576877594,0.12724126875400543,0.19845493137836456
1733751579805653000,3.460653076171875,0.3780234158039093,0.1489860564470291,0.23920589685440063
1733751579815629300,3.47062939453125,0.39300742745399475,0.16061608493328094,0.2818087637424469
1733751579825605000,3.480605224609375,0.40058496594429016,0.16037210822105408,0.3097800612449646
1733751579835580200,3.490580078125,0.3979082405567169,0.14962145686149597,0.31328558921813965
1733751579845556200,3.50055615234375,0.39231356978416443,0.1286279410123825,0.3112649619579315
1733751579855532300,3.5105322265625,0.39265260100364685,0.12353624403476715,0.29558345675468445
1733751579865508000,3.520508056640625,0.39360514283180237,0.1304439753293991,0.2835245430469513
1733751579875483400,3.5304833984375,0.3938482999801636,0.14830712974071503,0.2810747027397156
1733751579885459200,3.540459228515625,0.3930012583732605,0.17448772490024567,0.28439533710479736
1733751579895435000,3.55043505859375,0.40159872174263,0.20287542045116425,0.3016608655452728
1733751579905410300,3.560410400390625,0.44140008091926575,0.247248575091362,0.3160689175128937
1733751579915386400,3.570386474609375,0.4640289545059204,0.22897101938724518,0.347124308347702
1733751579925362400,3.580362548828125,0.4616026282310486,0.20044924318790436,0.3396163582801819
1733751579935338500,3.59033837890625,0.460457980632782,0.18360288441181183,0.31928980350494385
1733751579945313500,3.6003134765625,0.4609731137752533,0.1609845906496048,0.28489983081817627
1733751579955289300,3.610289306640625,0.47112855315208435,0.13057155907154083,0.23228934407234192
1733751579965265200,3.62026513671875,0.48174163699150085,0.10845037549734116,0.18335257470607758
1733751579975240400,3.630240478515625,0.4924278259277344,0.09831199049949646,0.15615104138851166
1733751579985216300,3.64021630859375,0.5488523840904236,0.14550316333770752,0.15252685546875
1733751579995192300,3.6501923828125,0.5407835841178894,0.13234767317771912,0.17183609306812286
1733751580005168400,3.66016845703125,0.4897119104862213,0.13239534199237823,0.18726052343845367
1733751580015143400,3.670143310546875,0.45201513171195984,0.15841202437877655,0.23409247398376465
1733751580025119200,3.680119140625,0.44415631890296936,0.19709767401218414,0.269126832485199
1733751580035095600,3.690095458984375,0.4511742889881134,0.21156662702560425,0.2922199070453644
1733751580045070300,3.7000703125,0.46617284417152405,0.19711647927761078,0.30634012818336487
1733751580055046400,3.71004638671875,0.47048822045326233,0.1720809042453766,0.2920040488243103
1733751580065022500,3.7200224609375,0.4763420522212982,0.13169144093990326,0.2564406096935272
1733751580074998300,3.729998291015625,0.47699612379074097,0.09346789121627808,0.21492992341518402
1733751580084973300,3.739973388671875,0.48604071140289307,0.05908402055501938,0.16913075745105743
1733751580094949400,3.749949462890625,0.4906759560108185,0.025229118764400482,0.12103485316038132
1733751580104925400,3.759925537109375,0.4977658689022064,0.006293574348092079,0.0922095850110054
1733751580114900200,3.769900146484375,0.49473997950553894,0.009913343004882336,0.07347584515810013
1733751580124876500,3.77987646484375,0.4794633984565735,0.009632308036088943,0.07043103873729706
1733751580134852400,3.789852294921875,0.45394179224967957,0.00365537591278553,0.06521577388048172
1733751580144828400,3.799828369140625,0.44140785932540894,-0.009546770714223385,0.05390056222677231
1733751580154803200,3.80980322265625,0.4404882788658142,-0.014020615257322788,0.05329975485801697
1733751580164779500,3.819779541015625,0.45115378499031067,0.003971991129219532,0.06630432605743408
1733751580174755300,3.82975537109375,0.47061216831207275,0.033575158566236496,0.09885668009519577
1733751580184730400,3.83973046875,0.4876193404197693,0.05143212527036667,0.14195464551448822
1733751580194706400,3.84970654296875,0.49326229095458984,0.0729837566614151,0.18666380643844604
1733751580204682200,3.85968212890625,0.4982750415802002,0.09867864102125168,0.22492827475070953
1733751580214658600,3.869658447265625,0.4979565441608429,0.1098436787724495,0.24831774830818176
1733751580224633300,3.87963330078125,0.49177950620651245,0.11336515098810196,0.24828942120075226
1733751580234609400,3.889609375,0.47959235310554504,0.10383210331201553,0.2303631454706192
1733751580244585200,3.899585205078125,0.46190983057022095,0.0795804113149643,0.19636252522468567
1733751580254560500,3.909560546875,0.44734740257263184,0.05141802132129669,0.1521519124507904
1733751580264536300,3.919536376953125,0.4448120594024658,0.015711873769760132,0.100340336561203
1733751580274512400,3.929512451171875,0.45261138677597046,0.00335400877520442,0.055540911853313446
1733751580284488400,3.939488525390625,0.4525339901447296,0.002339104888960719,0.027060111984610558
1733751580294463500,3.94946337890625,0.44021686911582947,0.022216672077775,0.029287846758961678
1733751580304439300,3.959439208984375,0.42098042368888855,0.048128627240657806,0.058834269642829895
1733751580314415400,3.969415283203125,0.3953211307525635,0.07764630019664764,0.10561029613018036
1733751580324390400,3.979390380859375,0.3795824646949768,0.09687081724405289,0.14623555541038513
1733751580334366200,3.9893662109375,0.36604881286621094,0.1075170636177063,0.16897734999656677
1733751580344342500,3.999342529296875,0.3562241196632385,0.0969458594918251,0.18949677050113678
1733751580364293400,4.01929345703125,0.2943226397037506,0.07097214460372925,0.18045490980148315
1733751580374269400,4.02926953125,0.2684260606765747,0.04985779896378517,0.14926423132419586
1733751580384245500,4.03924560546875,0.2576315701007843,0.018679117783904076,0.1105850487947464
1733751580394220300,4.04922021484375,0.26627299189567566,-0.010038547217845917,0.06646952033042908
1733751580404196600,4.059196533203125,0.28393852710723877,-0.039476484060287476,0.03958296775817871
1733751580414172400,4.06917236328125,0.2883223593235016,-0.04885027930140495,0.04500969126820564
1733751580424148200,4.079148193359375,0.27441203594207764,-0.018015960231423378,0.1037469282746315
1733751580434123300,4.089123291015625,0.2619614899158478,0.03595379739999771,0.17665337026119232
1733751580444099300,4.099099365234375,0.27072763442993164,0.10268571972846985,0.2434556782245636
1733751580454075400,4.109075439453125,0.2820042669773102,0.1496250033378601,0.29200321435928345
1733751580464050200,4.11905029296875,0.28740227222442627,0.15947173535823822,0.3120841085910797
1733751580474026500,4.129026611328125,0.30333223938941956,0.15085294842720032,0.29778507351875305
1733751580484002300,4.139002197265625,0.32089683413505554,0.12647545337677002,0.26483970880508423
1733751580493978600,4.148978515625,0.3306455910205841,0.09398408979177475,0.22765611112117767
1733751580503953400,4.158953369140625,0.3307206332683563,0.05925722420215607,0.20040541887283325
1733751580513929500,4.168929443359375,0.32337111234664917,0.04171418026089668,0.17204169929027557
1733751580523905300,4.1789052734375,0.31681668758392334,0.04470241069793701,0.1483873575925827
1733751580533880600,4.188880615234375,0.32168975472450256,0.05986059457063675,0.12426790595054626
1733751580543856400,4.1988564453125,0.3251962959766388,0.08192642033100128,0.1037895604968071
1733751580553832200,4.208832275390625,0.33253729343414307,0.08867806196212769,0.08799941092729568
1733751580563808500,4.21880859375,0.32839205861091614,0.08937103301286697,0.06915654242038727
1733751580573783300,4.228783203125,0.3227698504924774,0.08264069259166718,0.05179512873291969
1733751580583759400,4.23875927734375,0.33143481612205505,0.0722997635602951,0.03456523269414902
1733751580593735400,4.2487353515625,0.3399297595024109,0.05872110277414322,0.02180975303053856
1733751580603710500,4.25871044921875,0.3353895843029022,0.043774206191301346,0.010476780124008656
1733751580613686300,4.268686279296875,0.3269766569137573,0.0426572747528553,0.0068913670256733894
1733751580623662600,4.27866259765625,0.3297973871231079,0.06504441052675247,0.018901420757174492
1733751580633638400,4.288638427734375,0.3377453088760376,0.11049231886863708,0.04939701035618782
1733751580643613400,4.298613525390625,0.34666913747787476,0.1595117151737213,0.09364721924066544
1733751580653589500,4.308589599609375,0.352435439825058,0.19115832448005676,0.13206544518470764
1733751580663565300,4.3185654296875,0.35591456294059753,0.2058020830154419,0.17688025534152985
1733751580673540400,4.328540283203125,0.35351425409317017,0.20115593075752258,0.20857852697372437
1733751580683516200,4.33851611328125,0.34707406163215637,0.1851462572813034,0.23162543773651123
1733751580693492500,4.348492431640625,0.3399226665496826,0.17072923481464386,0.22535821795463562
1733751580703468300,4.35846826171875,0.3263421654701233,0.15394963324069977,0.2107890248298645
1733751580713443300,4.368443359375,0.32037562131881714,0.13401374220848083,0.18173979222774506
1733751580723419400,4.37841943359375,0.3162131607532501,0.1133480817079544,0.14731290936470032
1733751580733395500,4.3883955078125,0.3163015842437744,0.08805657923221588,0.11385508626699448
1733751580743370200,4.398370361328125,0.3208198547363281,0.07705304026603699,0.08639220893383026
1733751580753346600,4.4083466796875,0.3256753385066986,0.07954762130975723,0.08267176896333694
1733751580763322400,4.418322265625,0.3311885595321655,0.0886947363615036,0.09427312016487122
1733751580773298200,4.428298095703125,0.32801511883735657,0.10191227495670319,0.11812039464712143
1733751580783273500,4.4382734375,0.3170197904109955,0.11398762464523315,0.1363096982240677
1733751580793249300,4.448249267578125,0.30113059282302856,0.11899063736200333,0.14963801205158234
1733751580803225300,4.458225341796875,0.2816006541252136,0.10522603988647461,0.15143145620822906
1733751580813200400,4.468200439453125,0.25723138451576233,0.07401139289140701,0.14046189188957214
1733751580823176400,4.478176513671875,0.2326083928346634,0.04647275060415268,0.12808983027935028
1733751580833152300,4.48815234375,0.21259286999702454,0.026821818202733994,0.1153402030467987
1733751580843128300,4.49812841796875,0.2007705271244049,0.027223458513617516,0.1204775795340538
1733751580853103400,4.508103271484375,0.20155882835388184,0.03529256954789162,0.14291365444660187
1733751580863079400,4.518079345703125,0.2107563614845276,0.05717093497514725,0.1838500201702118
1733751580873055500,4.528055419921875,0.22856572270393372,0.08998321741819382,0.23049288988113403
1733751580883030500,4.538030517578125,0.23842087388038635,0.10986495018005371,0.27348077297210693
1733751580893006300,4.54800634765625,0.24318580329418182,0.11953675746917725,0.29458844661712646
1733751580902982400,4.557982421875,0.23996086418628693,0.13175320625305176,0.2989429533481598
1733751580912958000,4.5679580078125,0.2431204468011856,0.14310838282108307,0.29313433170318604
1733751580922933000,4.57793310546875,0.25547680258750916,0.14571216702461243,0.26771557331085205
1733751580932909000,4.587908935546875,0.2668977677822113,0.1339857280254364,0.23702660202980042
1733751580942884900,4.597884765625,0.27522584795951843,0.1237739697098732,0.21043570339679718
1733751580952860200,4.607860107421875,0.28489232063293457,0.11950092762708664,0.18971657752990723
1733751580962836000,4.6178359375,0.29779085516929626,0.11040326952934265,0.17085354030132294
1733751580972812000,4.62781201171875,0.3151072561740875,0.10998408496379852,0.1677570790052414
1733751580982788000,4.6377880859375,0.3224608302116394,0.12033060193061829,0.17383016645908356
1733751580992763100,4.64776318359375,0.3300734758377075,0.1274590939283371,0.17460115253925323
1733751581002739000,4.657739013671875,0.3328496515750885,0.12510719895362854,0.1741332858800888
1733751581012715000,4.667715087890625,0.3250037133693695,0.13587088882923126,0.19078950583934784
1733751581022690000,4.67768994140625,0.31871330738067627,0.1513347327709198,0.19868864119052887
1733751581032665900,4.687665771484375,0.3181186318397522,0.15344475209712982,0.20380298793315887
1733751581042642200,4.69764208984375,0.3225301206111908,0.1522156149148941,0.20589594542980194
1733751581052618000,4.707617919921875,0.31840142607688904,0.1432301104068756,0.20387913286685944
1733751581062593000,4.717593017578125,0.3155866861343384,0.12926773726940155,0.19585354626178741
1733751581072568800,4.72756884765625,0.31747326254844666,0.11169406026601791,0.17312480509281158
1733751581082545200,4.737545166015625,0.31999748945236206,0.08970262110233307,0.14174026250839233
1733751581092520000,4.74752001953125,0.3448373079299927,0.06780530512332916,0.11468707025051117
1733751581102496000,4.75749609375,0.37086817622184753,0.05426308140158653,0.10990409553050995
1733751581112472000,4.76747216796875,0.3917052745819092,0.07070037722587585,0.1304226815700531
1733751581122448000,4.77744775390625,0.39190077781677246,0.12824222445487976,0.17890360951423645
1733751581132423000,4.7874228515625,0.3877808749675751,0.19027841091156006,0.248291477560997
1733751581142399000,4.79739892578125,0.39237648248672485,0.24043600261211395,0.3159371316432953
1733751581152375000,4.807375,0.41001594066619873,0.27936556935310364,0.3796290159225464
1733751581162349800,4.817349853515625,0.4321513772010803,0.30171898007392883,0.41388487815856934
1733751581172326100,4.827326171875,0.4515090882778168,0.3080764710903168,0.42344242334365845
1733751581182302000,4.837302001953125,0.4541054368019104,0.30264610052108765,0.3996523916721344
1733751581192278000,4.847278076171875,0.44745898246765137,0.27526161074638367,0.35781651735305786
1733751581202253000,4.857253173828125,0.4329109191894531,0.25388404726982117,0.306924968957901
1733751581212229000,4.86722900390625,0.42084628343582153,0.23400993645191193,0.259999543428421
1733751581222205000,4.877204833984375,0.4100697934627533,0.2418193817138672,0.22085720300674438
1733751581232180200,4.88718017578125,0.4045266807079315,0.26333215832710266,0.20196287333965302
1733751581242156000,4.897156005859375,0.3941420912742615,0.28679946064949036,0.20657236874103546
1733751581252131800,4.9071318359375,0.390283465385437,0.30732816457748413,0.22401820123195648
1733751581262108200,4.917108154296875,0.38660934567451477,0.3199731111526489,0.24366754293441772
1733751581272083000,4.9270830078125,0.3831981122493744,0.3266211748123169,0.2604345381259918
1733751581282059000,4.93705908203125,0.3726448118686676,0.3095426857471466,0.26434361934661865
1733751581292035000,4.94703515625,0.3578040599822998,0.2773085832595825,0.25353196263313293
1733751581302010000,4.957010009765625,0.3367125988006592,0.25293266773223877,0.23402945697307587
1733751581311986000,4.96698583984375,0.3183367848396301,0.24546359479427338,0.20724338293075562
1733751581321962200,4.976962158203125,0.30918630957603455,0.2604714632034302,0.1870809942483902
1733751581331938000,4.98693798828125,0.30418702960014343,0.27844542264938354,0.16669368743896484
1733751581341913000,4.9969130859375,0.3043997585773468,0.30692341923713684,0.13976739346981049
1733751581351889000,5.006888916015625,0.3037661910057068,0.3238648474216461,0.11683173477649689
1733751581361865000,5.016864990234375,0.2984876036643982,0.3200486898422241,0.10532103478908539
1733751581371840000,5.026840087890625,0.29457888007164,0.3028870224952698,0.09330511838197708
1733751581381815800,5.03681591796875,0.2906975746154785,0.2870631217956543,0.08094975352287292
1733751581391792000,5.046792236328125,0.2846687138080597,0.28008726239204407,0.06142931431531906
1733751581401767000,5.056766845703125,0.28315988183021545,0.2782514691352844,0.039353638887405396
1733751581411743000,5.066742919921875,0.28255507349967957,0.2885989248752594,0.028697798028588295
1733751581421719000,5.076718994140625,0.28163039684295654,0.30112704634666443,0.028374865651130676
1733751581431695000,5.086695068359375,0.2865857183933258,0.3268153667449951,0.03357868269085884
1733751581441670000,5.096669921875,0.2891964316368103,0.3558265268802643,0.040351368486881256
1733751581451646200,5.106646240234375,0.2953837513923645,0.38135984539985657,0.048105426132678986
1733751581461622000,5.1166220703125,0.2990853786468506,0.39735355973243713,0.0552317351102829
1733751581471597800,5.126597900390625,0.3077009618282318,0.3979074954986572,0.06759652495384216
1733751581481573000,5.136572998046875,0.31321442127227783,0.39262527227401733,0.08640594035387039
1733751581491549000,5.146548828125,0.3176775872707367,0.38887447118759155,0.11061380803585052
1733751581501525000,5.15652490234375,0.322767049074173,0.37872010469436646,0.13420991599559784
1733751581511500000,5.1665,0.32298436760902405,0.36598700284957886,0.1449856013059616
1733751581521476000,5.17647607421875,0.3231663107872009,0.3358224928379059,0.14467930793762207
1733751581531452000,5.186451904296875,0.3174509108066559,0.30963483452796936,0.13727013766765594
1733751581541427000,5.196427001953125,0.3028606176376343,0.2878398299217224,0.1264631301164627
1733751581551403000,5.206403076171875,0.2841668128967285,0.26396432518959045,0.11591488867998123
1733751581561379000,5.216379150390625,0.262452632188797,0.23538519442081451,0.09896832704544067
1733751581571355100,5.226355224609375,0.25052353739738464,0.230960875749588,0.06836967170238495
1733751581581330200,5.236330078125,0.25290098786354065,0.23335617780685425,0.0398317351937294
1733751581591306000,5.246305908203125,0.2591035068035126,0.22285160422325134,0.016274746507406235
1733751581601282000,5.256281982421875,0.2705676257610321,0.20692332088947296,-0.0048014628700912
1733751581611257000,5.266257080078125,0.2855745255947113,0.17910580337047577,-0.014433050528168678
1733751581621233000,5.27623291015625,0.29925912618637085,0.14732912182807922,-0.01843147538602352
1733751581631209000,5.286208984375,0.2937024235725403,0.11736669391393661,-0.014051108621060848
1733751581641185000,5.29618505859375,0.28641387820243835,0.07828189432621002,-0.008229357190430164
1733751581651160000,5.30616015625,0.2732376158237457,0.04242376238107681,0.004266194999217987
1733751581661136000,5.316135986328125,0.26847755908966064,0.02732160873711109,0.011540226638317108
1733751581671112000,5.32611181640625,0.271960973739624,0.02617644891142845,0.03296482563018799
1733751581681087000,5.3360869140625,0.2792454957962036,0.031521447002887726,0.05028963088989258
1733751581691063000,5.34606298828125,0.2837318480014801,0.05285976082086563,0.07272995263338089
1733751581701039000,5.3560390625,0.2932358980178833,0.07011594623327255,0.09358395636081696
1733751581711015000,5.366014892578125,0.2972716689109802,0.08259312063455582,0.11061247438192368
1733751581720990000,5.375989990234375,0.29611489176750183,0.1102084293961525,0.12264595925807953
1733751581730966000,5.385966064453125,0.2877192795276642,0.1501917988061905,0.12936696410179138
1733751581740942000,5.395942138671875,0.2821994423866272,0.163136288523674,0.12780556082725525
1733751581750916900,5.405916748046875,0.26260656118392944,0.14900396764278412,0.1197923868894577
1733751581760893200,5.41589306640625,0.2403457909822464,0.1028602346777916,0.10971814393997192
1733751581770869000,5.425868896484375,0.2136491984128952,0.05321731045842171,0.09274688363075256
1733751581780844800,5.4358447265625,0.19820773601531982,0.02272486314177513,0.06651507318019867
1733751581790820000,5.445820068359375,0.1856812834739685,0.024081477895379066,0.041403863579034805
1733751581800796000,5.4557958984375,0.16791373491287231,0.041629936546087265,0.030009105801582336
1733751581810772000,5.46577197265625,0.15089985728263855,0.06069311127066612,0.02443963661789894
1733751581820747000,5.4757470703125,0.13240493834018707,0.07600428909063339,0.03108260966837406
1733751581830723000,5.48572314453125,0.10106407105922699,0.06767791509628296,0.04649698734283447
1733751581840699000,5.495698974609375,0.05067100003361702,0.017915021628141403,0.0690036490559578
1733751581850675200,5.50567529296875,-0.02610607258975506,-0.05610674247145653,0.08487315475940704
1733751581860650000,5.51564990234375,-0.09732179343700409,-0.14378857612609863,0.08342792838811874
1733751581870626000,5.5256259765625,-0.13379883766174316,-0.21459908783435822,0.06458420306444168
1733751581880602000,5.53560205078125,-0.13263821601867676,-0.23598234355449677,0.03317093476653099
1733751581890577200,5.5455771484375,-0.09098237752914429,-0.21994371712207794,-0.00708433985710144
1733751581900553000,5.555552978515625,-0.02973928488790989,-0.18136310577392578,-0.043390728533267975
1733751581910529000,5.565529052734375,0.027878470718860626,-0.1445491760969162,-0.06502439081668854
1733751581920505000,5.575505126953125,0.07033713161945343,-0.11184316128492355,-0.07170894742012024
1733751581930480000,5.585480224609375,0.09280994534492493,-0.07715495675802231,-0.06210479140281677
1733751581940456200,5.595456298828125,0.09453941881656647,-0.030238673090934753,-0.02697913907468319
1733751581950432000,5.605431884765625,0.09330929815769196,0.01163234282284975,0.024191370233893394
1733751581960407000,5.615406982421875,0.08235491812229156,0.042444851249456406,0.09386526048183441
1733751581970383000,5.625383056640625,0.06822365522384644,0.06869855523109436,0.1683189868927002
1733751581980359200,5.635359130859375,0.059290219098329544,0.10537169873714447,0.24128007888793945
1733751581990335000,5.6453349609375,0.05835944414138794,0.14212040603160858,0.30070799589157104
1733751582000310000,5.65531005859375,0.06811118125915527,0.17692051827907562,0.3420679271221161
1733751582010286000,5.6652861328125,0.08009035140275955,0.20328021049499512,0.3484269976615906
1733751582020262000,5.675261962890625,0.09082421660423279,0.2111855447292328,0.32333096861839294
1733751582030237000,5.68523681640625,0.0969657376408577,0.2023928463459015,0.2723439633846283
1733751582040213000,5.695212890625,0.0951479971408844,0.15841004252433777,0.20896613597869873
1733751582050189000,5.70518896484375,0.08118051290512085,0.08792094886302948,0.1379348337650299
1733751582060165000,5.7151650390625,0.06587648391723633,-0.0017374387243762612,0.05956808105111122
1733751582070140200,5.72514013671875,0.057182326912879944,-0.0793781727552414,-0.018149085342884064
1733751582080116000,5.735115966796875,0.051657646894454956,-0.1298736184835434,-0.08069676160812378
1733751582090092000,5.745092041015625,0.05306433141231537,-0.14305758476257324,-0.12109532207250595
1733751582100067000,5.755067138671875,0.05720437318086624,-0.13582800328731537,-0.13680118322372437
1733751582110043100,5.765043212890625,0.06403005123138428,-0.1033097356557846,-0.12965644896030426
1733751582120019000,5.77501904296875,0.05903305858373642,-0.07149075716733932,-0.09609583020210266
1733751582129995000,5.7849951171875,0.048425689339637756,-0.052121855318546295,-0.054485537111759186
1733751582139970000,5.794969970703125,0.040684930980205536,-0.04403373971581459,-0.022875837981700897
1733751582149945900,5.80494580078125,0.0357130765914917,-0.04866977035999298,0.007840794511139393
1733751582159922200,5.814922119140625,0.029331650584936142,-0.039692096412181854,0.03723100572824478
1733751582169897000,5.82489697265625,0.025800032541155815,-0.020515739917755127,0.06413852423429489
1733751582179873000,5.834873046875,0.029657740145921707,0.009741506539285183,0.08919329941272736
1733751582189849000,5.84484912109375,0.03794043883681297,0.028909342363476753,0.10467132925987244
1733751582199824100,5.85482421875,0.05032872036099434,0.039311252534389496,0.11620815843343735
1733751582209800000,5.864800048828125,0.060533687472343445,0.04657928645610809,0.12592841684818268
1733751582219776300,5.8747763671875,0.07488968968391418,0.06879398226737976,0.14225763082504272
1733751582229752000,5.884751953125,0.08071774989366531,0.08513673394918442,0.15961983799934387
1733751582239727000,5.89472705078125,0.07522449642419815,0.08947952091693878,0.174499049782753
1733751582249703000,5.904702880859375,0.06368395686149597,0.08801344782114029,0.1848164051771164
1733751582259679000,5.914678955078125,0.06252001225948334,0.09237641841173172,0.19250354170799255
1733751582269654000,5.924654052734375,0.061780717223882675,0.0916254073381424,0.2009420394897461
1733751582279629800,5.9346298828125,0.06547432392835617,0.10374683141708374,0.20627865195274353
1733751582289606100,5.944606201171875,0.06470999866724014,0.12715761363506317,0.2089649885892868
1733751582299582000,5.95458203125,0.068309485912323,0.14916777610778809,0.20400327444076538
1733751582309557000,5.964556884765625,0.0696951299905777,0.1596691608428955,0.18664053082466125
1733751582319533000,5.974532958984375,0.06928113847970963,0.14894212782382965,0.1609678417444229
1733751582329509000,5.984509033203125,0.07075147330760956,0.1290653645992279,0.12680748105049133
1733751582339484000,5.99448388671875,0.07224738597869873,0.10750971734523773,0.09384492039680481
1733751582349460200,6.004460205078125,0.06316041946411133,0.09284715354442596,0.07141125202178955
1733751582369411800,6.024411865234375,0.038072794675827026,0.07454127073287964,0.056453999131917953
1733751582379387100,6.03438720703125,0.02762366645038128,0.08419280499219894,0.06641807407140732
1733751582389363000,6.044363037109375,0.015106809325516224,0.09712724387645721,0.07228821516036987
1733751582399339000,6.054339111328125,0.012243121862411499,0.10141084343194962,0.0754636600613594
1733751582409314000,6.06431396484375,0.015511087141931057,0.09570076316595078,0.0666659027338028
1733751582419290000,6.0742900390625,0.010438612662255764,0.08113882690668106,0.034135252237319946
1733751582429266000,6.084265869140625,0.0011226087808609009,0.04214056208729744,-0.020681126043200493
1733751582439242200,6.0942421875,-0.009360291995108128,0.004875240847468376,-0.08548078685998917
1733751582449217000,6.104217041015625,-0.016953762620687485,-0.026735415682196617,-0.14758676290512085
1733751582459193000,6.114193115234375,-0.025647269561886787,-0.052040230482816696,-0.19141091406345367
1733751582469169200,6.124169189453125,-0.03366684541106224,-0.061963435262441635,-0.2201930284500122
1733751582479144200,6.134144287109375,-0.048464491963386536,-0.07402928918600082,-0.23593764007091522
1733751582489120000,6.1441201171875,-0.05970143526792526,-0.09451299905776978,-0.23655790090560913
1733751582499096000,6.154095947265625,-0.07058112323284149,-0.09710343927145004,-0.2197730392217636
1733751582509072100,6.164072021484375,-0.0754789486527443,-0.08261584490537643,-0.19632071256637573
1733751582519047000,6.174046875,-0.07190811634063721,-0.06450603902339935,-0.16844123601913452
1733751582529023000,6.18402294921875,-0.06430239230394363,-0.043463338166475296,-0.15624475479125977
1733751582538999000,6.1939990234375,-0.04999840632081032,-0.021882954984903336,-0.14739003777503967
1733751582548974000,6.20397412109375,-0.040824614465236664,-0.014592552557587624,-0.1423255056142807
1733751582558950000,6.213949951171875,-0.03648382052779198,-0.027407847344875336,-0.15169596672058105
1733751582568926200,6.22392626953125,-0.032621704041957855,-0.05662884935736656,-0.16262957453727722
1733751582578901000,6.23390087890625,-0.03270439803600311,-0.08445843309164047,-0.17322370409965515
1733751582588877000,6.243876953125,-0.03328976035118103,-0.11166741698980331,-0.17792950570583344
1733751582598853000,6.25385302734375,-0.04867522045969963,-0.1277194619178772,-0.16995693743228912
1733751582608829000,6.263828857421875,-0.06514660269021988,-0.13007022440433502,-0.158647820353508
1733751582618804000,6.273803955078125,-0.0791952908039093,-0.12892313301563263,-0.13964612782001495
1733751582628780000,6.283780029296875,-0.07976148277521133,-0.1012483537197113,-0.10686501115560532
1733751582638756000,6.293756103515625,-0.06924121081829071,-0.04817163571715355,-0.061489854007959366
1733751582648732000,6.30373193359375,-0.06391782313585281,-0.025690563023090363,-0.026338793337345123
1733751582658707200,6.313707275390625,-0.061535779386758804,-0.026594603434205055,-0.008022230118513107
1733751582668683000,6.32368310546875,-0.06006864458322525,-0.050176095217466354,-0.023635810241103172
1733751582678659000,6.3336591796875,-0.06420211493968964,-0.08738410472869873,-0.05648638308048248
1733751582688634000,6.343634033203125,-0.06479733437299728,-0.10488400608301163,-0.08531536906957626
1733751582698610200,6.353610107421875,-0.07543769478797913,-0.10149906575679779,-0.09878407418727875
1733751582708586000,6.3635859375,-0.09756643325090408,-0.11005926132202148,-0.10548379272222519
1733751582718561000,6.37356103515625,-0.13575045764446259,-0.13789895176887512,-0.10363449156284332
1733751582728537000,6.383537109375,-0.17569521069526672,-0.16304771602153778,-0.09500850737094879
1733751582738513000,6.393512939453125,-0.22326825559139252,-0.1767471432685852,-0.0831342563033104
1733751582748489200,6.4034892578125,-0.26642346382141113,-0.1776571422815323,-0.06544261425733566
1733751582758464000,6.413464111328125,-0.3182874619960785,-0.16654643416404724,-0.06453554332256317
1733751582768440000,6.423440185546875,-0.36964890360832214,-0.1661943644285202,-0.06953801959753036
1733751582778416000,6.433416015625,-0.42169806361198425,-0.1765294373035431,-0.08633619546890259
1733751582788391200,6.44339111328125,-0.47261103987693787,-0.20442046225070953,-0.12014742195606232
1733751582798367000,6.453366943359375,-0.5241292119026184,-0.23120449483394623,-0.17065274715423584
1733751582808343000,6.463343017578125,-0.5734030604362488,-0.25351300835609436,-0.23618249595165253
1733751582818319000,6.473319091796875,-0.6115424036979675,-0.27312642335891724,-0.3112368881702423
1733751582828294100,6.483294189453125,-0.6515164375305176,-0.29376164078712463,-0.365395188331604
1733751582838270000,6.49327001953125,-0.6716659665107727,-0.35543158650398254,-0.38602128624916077
1733751582848246000,6.50324609375,-0.7254130840301514,-0.36331719160079956,-0.4125056266784668
1733751582858221000,6.513220947265625,-0.7807380557060242,-0.3988954424858093,-0.4368499219417572
1733751582868196900,6.52319677734375,-0.8086407780647278,-0.4322323501110077,-0.4298447370529175
1733751582878173200,6.533173095703125,-0.8275035619735718,-0.4350065588951111,-0.418532133102417
1733751582888149000,6.54314892578125,-0.8442522287368774,-0.42119380831718445,-0.39037880301475525
1733751582898124000,6.5531240234375,-0.8503996133804321,-0.39680027961730957,-0.34776800870895386
1733751582908100000,6.56310009765625,-0.8615790605545044,-0.3740267753601074,-0.31486091017723083
1733751582918077000,6.573076904296875,-0.8873311281204224,-0.36476218700408936,-0.2925031781196594
1733751582928052000,6.583052001953125,-0.9298290610313416,-0.36872366070747375,-0.28695181012153625
1733751582938027800,6.59302783203125,-0.9393094778060913,-0.4382420480251312,-0.289124071598053
1733751582948003800,6.60300390625,-0.9761625528335571,-0.46225282549858093,-0.3191773295402527
1733751582957979000,6.612978759765625,-1.040771484375,-0.5146751999855042,-0.37477055191993713
1733751582967955000,6.622954833984375,-1.095477819442749,-0.5691142082214355,-0.40344345569610596
1733751582977930800,6.6329306640625,-1.1498379707336426,-0.6001336574554443,-0.43706026673316956
1733751582987906800,6.64290673828125,-1.1855475902557373,-0.6333387494087219,-0.4439011216163635
1733751582997881900,6.6528818359375,-1.1928508281707764,-0.629340648651123,-0.43728870153427124
1733751583007858000,6.66285791015625,-1.1796774864196777,-0.617234468460083,-0.42523521184921265
1733751583017834000,6.672833984375,-1.162864327430725,-0.6159459352493286,-0.4114982485771179
1733751583027809000,6.68280908203125,-1.1392263174057007,-0.6149477958679199,-0.3999531865119934
1733751583037784800,6.692784912109375,-1.1186896562576294,-0.6144384741783142,-0.39413440227508545
1733751583047761000,6.702760986328125,-1.118729591369629,-0.6334121823310852,-0.39419060945510864
1733751583057737000,6.712737060546875,-1.134684681892395,-0.6478801369667053,-0.405968576669693
1733751583067711700,6.722711669921875,-1.1640892028808594,-0.644977331161499,-0.4142344892024994
1733751583077688000,6.73268798828125,-1.1810013055801392,-0.6034775376319885,-0.40450385212898254
1733751583087663900,6.742663818359375,-1.185356855392456,-0.5571329593658447,-0.3818483352661133
1733751583097639000,6.752638916015625,-1.1722795963287354,-0.5315314531326294,-0.36147528886795044
1733751583107615000,6.762614990234375,-1.1522612571716309,-0.5185296535491943,-0.3438246548175812
1733751583117590800,6.7725908203125,-1.122972011566162,-0.5125155448913574,-0.3286598324775696
1733751583127566800,6.78256689453125,-1.1052218675613403,-0.5147757530212402,-0.3272757828235626
1733751583137542000,6.7925419921875,-1.0966331958770752,-0.537177324295044,-0.3373144268989563
1733751583147518000,6.80251806640625,-1.0950703620910645,-0.580055296421051,-0.35388273000717163
1733751583157493800,6.81249365234375,-1.0992132425308228,-0.6082269549369812,-0.3737984895706177
1733751583167468800,6.82246875,-1.0823040008544922,-0.6171043515205383,-0.3791826069355011
1733751583177444900,6.83244482421875,-1.0500913858413696,-0.6038946509361267,-0.35127878189086914
1733751583187421000,6.8424208984375,-1.0025874376296997,-0.5495477914810181,-0.2866966128349304
1733751583197397000,6.85239697265625,-0.9514955878257751,-0.4803779125213623,-0.2141702026128769
1733751583207372000,6.8623720703125,-0.9082090854644775,-0.38848716020584106,-0.14677731692790985
1733751583217347800,6.872347900390625,-0.8612752556800842,-0.3178572952747345,-0.10214003175497055
1733751583227323600,6.88232373046875,-0.8217657208442688,-0.28124043345451355,-0.09217262268066406
1733751583237299000,6.892298828125,-0.7565693855285645,-0.2464406043291092,-0.11637608706951141
1733751583247274800,6.902274658203125,-0.6895144581794739,-0.2561904489994049,-0.11204418540000916
1733751583257250800,6.912250732421875,-0.7051298022270203,-0.29925256967544556,-0.13858290016651154
1733751583267227000,6.922226806640625,-0.7115773558616638,-0.3074159622192383,-0.13415645062923431
1733751583277202000,6.932201904296875,-0.713718056678772,-0.29517441987991333,-0.12564559280872345
1733751583287177700,6.942177734375,-0.7119894027709961,-0.30079102516174316,-0.12650686502456665
1733751583297154000,6.952154052734375,-0.6521844267845154,-0.32183945178985596,-0.12855778634548187
1733751583307128800,6.96212890625,-0.6619755625724792,-0.3559974133968353,-0.17480596899986267
1733751583317105000,6.97210498046875,-0.6683583855628967,-0.3743714392185211,-0.19464841485023499
1733751583327081000,6.9820810546875,-0.6721318364143372,-0.3174373209476471,-0.14752325415611267
1733751583337056000,6.992055908203125,-0.6612875461578369,-0.22602635622024536,-0.07299994677305222
1733751583347031800,7.00203173828125,-0.6440584659576416,-0.15682226419448853,0.012812432833015919
1733751583357008000,7.0120078125,-0.6435118913650513,-0.11870362609624863,0.06847359985113144
1733751583366984000,7.02198388671875,-0.6415318250656128,-0.1464734673500061,0.052430976182222366
1733751583376958700,7.031958740234375,-0.6475074887275696,-0.20802041888237,-0.019417770206928253
1733751583386935000,7.04193505859375,-0.6489935517311096,-0.28624919056892395,-0.10414809733629227
1733751583396910800,7.051910888671875,-0.6569527983665466,-0.36616402864456177,-0.19389337301254272
1733751583406886000,7.061885986328125,-0.6645662784576416,-0.4163140058517456,-0.2750830352306366
1733751583416861700,7.07186181640625,-0.6817023158073425,-0.4421476423740387,-0.33932390809059143
1733751583426838000,7.081838134765625,-0.7130706310272217,-0.4609769880771637,-0.3778145909309387
1733751583436813800,7.091813720703125,-0.7259349822998047,-0.48518240451812744,-0.3742968738079071
1733751583446788900,7.101788818359375,-0.6976223587989807,-0.48378852009773254,-0.32125547528266907
1733751583456765000,7.111764892578125,-0.6562219262123108,-0.4274923801422119,-0.2446683794260025
1733751583466740700,7.12174072265625,-0.6238000988960266,-0.33530598878860474,-0.16007199883460999
1733751583476715800,7.1317158203125,-0.6065667867660522,-0.24028563499450684,-0.06709747016429901
1733751583486691800,7.14169189453125,-0.5973221659660339,-0.16312533617019653,0.0037972088903188705
1733751583496668000,7.15166796875,-0.5971969366073608,-0.11661377549171448,0.03330257534980774
1733751583506643700,7.161643798828125,-0.5907287001609802,-0.11086161434650421,0.027302207425236702
1733751583516619000,7.171618896484375,-0.572544515132904,-0.12432122230529785,-0.007847226224839687
1733751583526594800,7.1815947265625,-0.5510674118995667,-0.1396583616733551,-0.051256220787763596
1733751583536571000,7.19157080078125,-0.5242128968238831,-0.1495465189218521,-0.07514674216508865
1733751583546546000,7.2015458984375,-0.49538445472717285,-0.1361207216978073,-0.07173922657966614
1733751583556522000,7.21152197265625,-0.4644525349140167,-0.12312446534633636,-0.05464271456003189
1733751583566497800,7.221497802734375,-0.4368544816970825,-0.1262395679950714,-0.019777674227952957
1733751583576473900,7.231473876953125,-0.41930505633354187,-0.12719129025936127,0.01910937950015068
1733751583586449000,7.241448974609375,-0.41424745321273804,-0.11249011009931564,0.05308492109179497
1733751583596424700,7.2514248046875,-0.3982947766780853,-0.06108937785029411,0.0730481967329979
1733751583606401000,7.261401123046875,-0.3395582139492035,-0.008652268908917904,0.11400468647480011
1733751583616375800,7.271375732421875,-0.34463417530059814,-0.03318203613162041,0.14859281480312347
1733751583626351900,7.281351806640625,-0.36995017528533936,-0.03423664718866348,0.16127504408359528
1733751583636328000,7.291327880859375,-0.40310928225517273,-0.05420427396893501,0.153965562582016
1733751583646303000,7.301302978515625,-0.4418627917766571,-0.10619024187326431,0.12080707401037216
1733751583656278800,7.31127880859375,-0.45851221680641174,-0.16210313141345978,0.06828439980745316
1733751583666255000,7.321255126953125,-0.46328991651535034,-0.23293069005012512,0.0030444120056927204
1733751583676231000,7.33123095703125,-0.4610607326030731,-0.2993137240409851,-0.05918910354375839
1733751583686206000,7.3412060546875,-0.46032464504241943,-0.34351205825805664,-0.11420468240976334
1733751583696181800,7.351181640625,-0.4492231011390686,-0.36665743589401245,-0.15367606282234192
1733751583706157800,7.36115771484375,-0.4442821443080902,-0.36789020895957947,-0.15087281167507172
1733751583716132900,7.3711328125,-0.4604404866695404,-0.3538215160369873,-0.0894206166267395
1733751583726108700,7.381108642578125,-0.4746047854423523,-0.28080084919929504,-0.010875742882490158
1733751583736085000,7.3910849609375,-0.4746788740158081,-0.23041297495365143,0.08594953268766403
1733751583746060800,7.401060791015625,-0.5143168568611145,-0.22316305339336395,0.1307164877653122
1733751583756035800,7.411035888671875,-0.5350098609924316,-0.2339845448732376,0.12795105576515198
1733751583766012000,7.421011962890625,-0.526534914970398,-0.28366848826408386,0.07752835005521774
1733751583775988000,7.430988037109375,-0.5019739270210266,-0.3467883765697479,-0.024538855999708176
1733751583785962800,7.440962646484375,-0.48886823654174805,-0.4198974668979645,-0.16692981123924255
1733751583795939000,7.45093896484375,-0.4817572236061096,-0.48471322655677795,-0.31590887904167175
1733751583805915000,7.460914794921875,-0.46218618750572205,-0.5348890423774719,-0.43581104278564453
1733751583815890700,7.470890625,-0.4428709149360657,-0.5404548048973083,-0.45721784234046936
1733751583825866000,7.480865966796875,-0.41713014245033264,-0.48506689071655273,-0.3862326145172119
1733751583835841800,7.490841796875,-0.36621251702308655,-0.3426460921764374,-0.2672063112258911
1733751583845817900,7.50081787109375,-0.3204687237739563,-0.22606170177459717,-0.11214297264814377
1733751583855793000,7.51079296875,-0.318004310131073,-0.14194881916046143,-0.0023379300255328417
1733751583865769000,7.52076904296875,-0.31683358550071716,-0.09576640278100967,0.034482404589653015
1733751583875744800,7.530744873046875,-0.3244468569755554,-0.12408433854579926,0.011661744676530361
1733751583885719800,7.5407197265625,-0.32994282245635986,-0.17044144868850708,-0.04214395955204964
1733751583895696000,7.55069580078125,-0.32652848958969116,-0.2196158617734909,-0.10778135806322098
1733751583905672000,7.560671875,-0.3092283308506012,-0.22757579386234283,-0.15876305103302002
1733751583915647700,7.570647705078125,-0.2902200222015381,-0.2090444415807724,-0.17323699593544006
1733751583925622800,7.580622802734375,-0.27105778455734253,-0.17770622670650482,-0.14946456253528595
1733751583935598600,7.5905986328125,-0.24961920082569122,-0.14684844017028809,-0.12016289681196213
1733751583945574700,7.60057470703125,-0.2315445840358734,-0.12230315804481506,-0.09090834110975266
1733751583955549700,7.6105498046875,-0.21482765674591064,-0.08850950747728348,-0.0596470907330513
1733751583965525500,7.620525390625,-0.2077750712633133,-0.07135236263275146,-0.0249924398958683
1733751583975501800,7.630501708984375,-0.20299755036830902,-0.05351073294878006,-0.003605486126616597
1733751583985477600,7.6404775390625,-0.19673460721969604,-0.05237782374024391,0.0043009063228964806
1733751583995452700,7.65045263671875,-0.19248780608177185,-0.06773316860198975,0.0037245196290314198
1733751584005428700,7.6604287109375,-0.17916055023670197,-0.08683709055185318,-0.008915375918149948
1733751584015404800,7.67040478515625,-0.16356785595417023,-0.11250054836273193,-0.03335139900445938
1733751584025379600,7.680379638671875,-0.15161745250225067,-0.14009729027748108,-0.06421051174402237
1733751584035355600,7.690355712890625,-0.14273516833782196,-0.16391535103321075,-0.09771901369094849
1733751584045331700,7.700331787109375,-0.13365964591503143,-0.15718980133533478,-0.12093379348516464
1733751584055307500,7.7103076171875,-0.13333961367607117,-0.11685138940811157,-0.12017858028411865
1733751584065282600,7.720282470703125,-0.13214890658855438,-0.0884714126586914,-0.09458000957965851
1733751584075258600,7.730258544921875,-0.13696421682834625,-0.06884584575891495,-0.06861282140016556
1733751584085234700,7.740234619140625,-0.13303151726722717,-0.06295706331729889,-0.04209359735250473
1733751584095209500,7.75020947265625,-0.1382395625114441,-0.07775431871414185,-0.02599588967859745
1733751584105185800,7.760185791015625,-0.14234934747219086,-0.10488873720169067,-0.021940426900982857
1733751584115161600,7.77016162109375,-0.14901933073997498,-0.1370103806257248,-0.030713927000761032
1733751584125137700,7.7801376953125,-0.1579611599445343,-0.1713707447052002,-0.045471832156181335
1733751584135112700,7.79011279296875,-0.16479450464248657,-0.19940757751464844,-0.0660812184214592
1733751584145088800,7.8000888671875,-0.1707858294248581,-0.19837667047977448,-0.09403402358293533
1733751584155064600,7.810064697265625,-0.17959678173065186,-0.17984850704669952,-0.11443381756544113
1733751584165039900,7.820039794921875,-0.1730605810880661,-0.14214880764484406,-0.11236081272363663
1733751584175015700,7.830015625,-0.1632884293794632,-0.09736762195825577,-0.09472403675317764
1733751584184991500,7.839991455078125,-0.13789811730384827,-0.05293970927596092,-0.07010204344987869
1733751584194966500,7.849966552734375,-0.11844194680452347,-0.020267732441425323,-0.03879532217979431
1733751584204942600,7.859942626953125,-0.1163601502776146,-0.012640438973903656,-0.03385995328426361
1733751584214918700,7.869918701171875,-0.12327791750431061,-0.045268017798662186,-0.05842600390315056
1733751584224894700,7.879894775390625,-0.14172883331775665,-0.0991743877530098,-0.10481693595647812
1733751584234869800,7.889869873046875,-0.1534622460603714,-0.1519194096326828,-0.1474926620721817
1733751584244845600,7.899845458984375,-0.1519216150045395,-0.18632398545742035,-0.17212876677513123
1733751584254822000,7.90982177734375,-0.1508243978023529,-0.18832924962043762,-0.1725236028432846
1733751584264796700,7.919796630859375,-0.14061570167541504,-0.144293874502182,-0.16160278022289276
1733751584274772700,7.929772705078125,-0.12196419388055801,-0.06645070761442184,-0.11162199825048447
1733751584284748500,7.93974853515625,-0.09998618811368942,0.00843471847474575,-0.058012835681438446
1733751584294724600,7.949724609375,-0.07758944481611252,0.05603032186627388,-0.012945802882313728
1733751584304699600,7.95969970703125,-0.06013668328523636,0.0671069398522377,0.013786207884550095
1733751584314675500,7.969675537109375,-0.05472921207547188,0.05290791392326355,0.010058382526040077
1733751584324651800,7.97965185546875,-0.05150492489337921,0.02804623730480671,-0.00836483296006918
1733751584334626600,7.98962646484375,-0.049465712159872055,-0.015098415315151215,-0.02644522488117218
1733751584344602600,7.9996025390625,-0.04784837365150452,-0.04770083352923393,-0.02956218831241131
1733751584354578700,8.00957861328125,-0.03931199759244919,-0.06056603789329529,-0.009206879884004593
1733751584374529500,8.029529541015625,-0.04217970743775368,-0.0170881487429142,0.07438676804304123
1733751584384505900,8.039505859375,-0.05297696217894554,0.004673871211707592,0.09416366368532181
1733751584394481700,8.049481689453126,-0.06233631446957588,0.013194791972637177,0.07996370643377304
1733751584404456700,8.059456787109376,-0.06051870808005333,0.010675974190235138,0.05235099047422409
1733751584414432800,8.069432861328124,-0.040815047919750214,0.012831004336476326,0.017649469897150993
1733751584424408600,8.07940869140625,-0.019708162173628807,0.018170908093452454,0.0009320077951997519
1733751584434383600,8.089383544921875,-0.00662218825891614,0.013183340430259705,0.012353506870567799
1733751584444359700,8.099359619140625,-0.005223496351391077,0.007852224633097649,0.04405470937490463
1733751584454335700,8.109335693359375,0.004671122413128614,0.004537002183496952,0.08922009915113449
1733751584464310500,8.119310546875,0.0048791151493787766,0.008178342133760452,0.13268955051898956
1733751584474286600,8.12928662109375,0.007147153373807669,0.02801821194589138,0.1559588760137558
1733751584484262700,8.1392626953125,0.0020900764502584934,0.04698924347758293,0.16496889293193817
1733751584494238700,8.14923876953125,0.008621548302471638,0.06870630383491516,0.15564025938510895
1733751584504213500,8.159213623046876,0.0289960615336895,0.08584587275981903,0.14686541259288788
1733751584514189800,8.16918994140625,0.06723171472549438,0.10929367691278458,0.1407654732465744
1733751584524165600,8.17916552734375,0.11720752716064453,0.1251935511827469,0.13582691550254822
1733751584534140700,8.189140625,0.13719166815280914,0.11224185675382614,0.11599087715148926
1733751584544116700,8.19911669921875,0.1156778633594513,0.07930707931518555,0.09641770273447037
1733751584554092500,8.209092529296875,0.07752641290426254,0.030509576201438904,0.07617498189210892
1733751584564068600,8.219068603515625,0.044723991304636,-0.015498662367463112,0.049983058124780655
1733751584574043600,8.229043701171875,0.033692892640829086,-0.05044970661401749,0.006873756647109985
1733751584584019700,8.239019775390625,0.04966812953352928,-0.05113760009407997,-0.032121047377586365
1733751584593995500,8.24899560546875,0.05222473666071892,-0.002822514623403549,-0.03036809340119362
1733751584603970800,8.258970703125,0.05422317236661911,0.08179330080747604,-0.0002314976300112903
1733751584613946600,8.268946533203126,0.06425728648900986,0.1258269101381302,0.0381259061396122
1733751584623922700,8.278922607421874,0.07886898517608643,0.13800475001335144,0.04889333248138428
1733751584633898800,8.288898681640624,0.08643531054258347,0.10211880505084991,0.024220285937190056
1733751584643873800,8.298873779296875,0.06694097071886063,0.04064213111996651,-0.013886619359254837
1733751584653849600,8.308849609375,0.033907659351825714,-0.01602354645729065,-0.028630144894123077
1733751584663825700,8.31882568359375,0.005974030587822199,-0.05615924671292305,-0.03098464570939541
1733751584673800700,8.32880078125,0.005716492887586355,-0.06907867640256882,-0.028335757553577423
1733751584683776500,8.338776611328125,0.021413695067167282,-0.0740009993314743,-0.03133101388812065
1733751584693752800,8.3487529296875,0.028082262724637985,-0.05026886612176895,-0.028031200170516968
1733751584703728600,8.358728759765626,0.027773069217801094,-0.001983627676963806,-0.0041109537705779076
1733751584713703700,8.36870361328125,0.023357201367616653,0.05813249200582504,0.03816453367471695
1733751584723679700,8.3786796875,0.02134278602898121,0.096073217689991,0.09236465394496918
1733751584733655800,8.38865576171875,0.028710372745990753,0.11045458167791367,0.12220311909914017
1733751584743630600,8.398630615234374,0.028899457305669785,0.08153052628040314,0.12113545835018158
1733751584753606700,8.408606689453125,0.006792893633246422,0.02851289138197899,0.10005324333906174
1733751584763582700,8.418582763671875,-0.017119895666837692,-0.011444911360740662,0.06760981678962708
1733751584773557800,8.428557861328125,-0.02142263762652874,-0.03140432387590408,0.04157281666994095
1733751584783533600,8.438533447265625,-0.006679377518594265,-0.029431454837322235,0.019607063382864
1733751584793509600,8.448509521484375,0.015361465513706207,-0.02580306865274906,0.01059716660529375
1733751584803485700,8.458485595703126,0.03148530796170235,-0.0042663514614105225,0.016741612926125526
1733751584813460500,8.46846044921875,0.045287031680345535,0.0016106090042740107,0.02839147113263607
1733751584823436800,8.478436767578126,0.0522858202457428,-0.0028866708744317293,0.033724717795848846
1733751584833412600,8.48841259765625,0.039023399353027344,-0.01880943588912487,0.04106468707323074
1733751584843387600,8.4983876953125,0.018375908955931664,-0.04903578385710716,0.030845869332551956
1733751584853363700,8.50836376953125,0.0023399987258017063,-0.07825495302677155,0.009562010876834393
1733751584863339800,8.51833984375,0.01011030375957489,-0.07582828402519226,-0.011762985028326511
1733751584873315600,8.528315673828125,0.026747623458504677,-0.10689105093479156,-0.009337328374385834
1733751584883291000,8.538290771484375,0.04450558125972748,-0.07142972946166992,0.01409262977540493
1733751584893266700,8.5482666015625,0.07986044138669968,0.0007718075066804886,0.05827890709042549
1733751584903242500,8.558242431640625,0.10314632207155228,0.08020511269569397,0.12160514295101166
1733751584913217800,8.5682177734375,0.11318212002515793,0.11836594343185425,0.17801807820796967
1733751584923193300,8.578193359375,0.10823823511600494,0.12045279145240784,0.19718538224697113
1733751584933169400,8.58816943359375,0.09186690300703049,0.08522935211658478,0.16653285920619965
1733751584943144400,8.59814453125,0.06911179423332214,0.020528648048639297,0.1076892539858818
1733751584953120300,8.608120361328124,0.057409387081861496,-0.035281214863061905,0.0475151464343071
1733751584963096000,8.618095947265624,0.06313251703977585,-0.04981754720211029,0.01971733383834362
1733751584973072400,8.628072265625,0.08242888003587723,-0.012727274559438229,0.04144033417105675
1733751584983047200,8.638047119140625,0.10864263772964478,0.07536716759204865,0.0972929447889328
1733751584993023200,8.648023193359375,0.13951224088668823,0.15884539484977722,0.15636545419692993
1733751585002999300,8.657999267578125,0.1488354355096817,0.1947818100452423,0.20012518763542175
1733751585012974300,8.667974365234375,0.13994328677654266,0.1870744377374649,0.2056151181459427
1733751585022950100,8.6779501953125,0.12972687184810638,0.14233386516571045,0.16761526465415955
1733751585032926200,8.68792626953125,0.10684029012918472,0.09364669024944305,0.10800251364707947
1733751585042902300,8.69790234375,0.09487204253673553,0.04810343682765961,0.053643934428691864
1733751585052877300,8.707877197265624,0.0845424234867096,0.013297272846102715,0.015073457732796669
1733751585062853400,8.717853271484374,0.09064479172229767,-0.002049192786216736,-0.009257448837161064
1733751585072829200,8.7278291015625,0.10000227391719818,0.01610393635928631,-0.010433140210807323
1733751585082804200,8.73780419921875,0.11454392969608307,0.04928452521562576,0.01034910324960947
1733751585092780300,8.7477802734375,0.11447080969810486,0.05758187919855118,0.026888694614171982
1733751585102756400,8.75775634765625,0.11009203642606735,0.0509151890873909,0.024666287004947662
1733751585112732200,8.767732177734375,0.09841994941234589,0.04798055812716484,0.02197105996310711
1733751585122707500,8.77770751953125,0.08195069432258606,0.048234354704618454,0.023978816345334053
1733751585132683300,8.787683349609376,0.06452269852161407,0.04054767265915871,0.020545735955238342
1733751585142659000,8.7976591796875,0.05810527876019478,0.028386883437633514,0.011705905199050903
1733751585152634000,8.807634033203126,0.06291788816452026,0.014787621796131134,-0.013034171424806118
1733751585162610200,8.817610107421874,0.05749888718128204,0.001350908074527979,-0.021591439843177795
1733751585172586200,8.827586181640624,0.04412281885743141,0.001539777498692274,-0.004938225727528334
1733751585182561300,8.837561279296875,0.03116467408835888,0.003733956255018711,0.018447523936629295
1733751585192537300,8.847537353515625,0.032562803477048874,0.010566579177975655,0.03083927184343338
1733751585202513200,8.85751318359375,0.034256841987371445,0.008944980800151825,0.028871994465589523
1733751585212489500,8.867489501953125,0.036841753870248795,0.01447349600493908,0.033736515790224075
1733751585222464300,8.87746435546875,0.019700851291418076,0.02854990027844906,0.04176328331232071
1733751585232440300,8.8874404296875,0.01261510606855154,0.044624388217926025,0.04649936780333519
1733751585242416000,8.897416015625,0.01041959598660469,0.044607341289520264,0.052905336022377014
1733751585252391400,8.907391357421876,0.022973164916038513,0.02477303147315979,0.03993990644812584
1733751585262367200,8.9173671875,0.03248091787099838,0.016002975404262543,0.027919460088014603
1733751585272343000,8.927343017578124,0.028498247265815735,0.011275717988610268,0.028606513515114784
1733751585282319400,8.9373193359375,0.026018844917416573,0.014817455783486366,0.03915715590119362
1733751585292294100,8.947294189453125,0.03168172016739845,0.03007199987769127,0.04783276468515396
1733751585302270200,8.957270263671875,0.02963215298950672,0.040406662970781326,0.06615158915519714
1733751585312246300,8.967246337890625,0.033097174018621445,0.03613630309700966,0.06931523978710175
1733751585322221300,8.97722119140625,0.03415178507566452,0.030141526833176613,0.0677327886223793
1733751585332197000,8.987197021484375,0.02803599275648594,0.02078617736697197,0.06866355985403061
1733751585342173400,8.99717333984375,0.024386396631598473,0.022442396730184555,0.06348584592342377
1733751585352148200,9.007148193359376,0.027901699766516685,0.020459363237023354,0.061395615339279175
1733751585362124300,9.017124267578126,0.03516227751970291,0.015472859144210815,0.06147550791501999
1733751585372100400,9.027100341796874,0.04766428843140602,0.010480541735887527,0.06332498788833618
1733751585382076200,9.037076171875,0.05921761691570282,-0.0016051492420956492,0.07001777738332748
1733751585392051200,9.04705126953125,0.0664660781621933,-0.0004913297016173601,0.07814661413431168
1733751585402027300,9.05702734375,0.07279374450445175,0.02784896269440651,0.07779907435178757
1733751585412003300,9.06700341796875,0.08020952343940735,0.04537535831332207,0.09231702238321304
1733751585421978000,9.07697802734375,0.0780201405286789,0.05169477313756943,0.10937057435512543
1733751585431954200,9.0869541015625,0.07607436180114746,0.06351926177740097,0.12139388173818588
1733751585441930200,9.09693017578125,0.0818140059709549,0.07654079049825668,0.12909094989299774
1733751585451906300,9.10690625,0.08011763542890549,0.08839642256498337,0.13460412621498108
1733751585461881000,9.116881103515626,0.08720404654741287,0.08762836456298828,0.1431419551372528
1733751585471857400,9.126857421875,0.10235154628753662,0.08827686309814453,0.1450645476579666
1733751585481833200,9.136833251953124,0.10685521364212036,0.08239234238862991,0.13551445305347443
1733751585491808300,9.146808349609374,0.10521043837070465,0.06896514445543289,0.12531505525112152
1733751585501784300,9.156784423828125,0.10296139866113663,0.0626092404127121,0.11936076730489731
1733751585511760100,9.166760009765625,0.10390231013298035,0.07094677537679672,0.11747356504201889
1733751585521735200,9.176735107421875,0.10622166097164154,0.08741123974323273,0.11638113856315613
1733751585531711200,9.186711181640625,0.11350461095571518,0.10388998687267303,0.11082646995782852
1733751585541687300,9.196687255859375,0.11573208123445511,0.11890888214111328,0.10373260825872421
1733751585551663000,9.2066630859375,0.1165306344628334,0.13185591995716095,0.0982937142252922
1733751585561638400,9.216638427734376,0.1169934868812561,0.13406580686569214,0.10276809334754944
1733751585571614200,9.2266142578125,0.11401674896478653,0.12771213054656982,0.10434076935052872
1733751585581590300,9.23659033203125,0.1094539538025856,0.11401176452636719,0.10467445850372314
1733751585591565300,9.2465654296875,0.11248604208230972,0.09063741564750671,0.0917760357260704
1733751585601541400,9.256541259765624,0.11173103749752045,0.06448384374380112,0.06707681715488434
1733751585611517200,9.26651708984375,0.09508892893791199,0.03801771253347397,0.036518484354019165
1733751585621493200,9.2764931640625,0.08762329071760178,0.023306943476200104,0.008824003860354424
1733751585631468300,9.28646826171875,0.09156705439090729,0.02105070650577545,-0.0009215973550453782
1733751585641444000,9.296444091796875,0.09687685966491699,0.033836279064416885,0.009657277725636959
1733751585651420400,9.30642041015625,0.09438391774892807,0.05470273643732071,0.02711213380098343
1733751585661395200,9.316395263671875,0.08233577758073807,0.06928247213363647,0.04799318313598633
1733751585671371300,9.326371337890626,0.06222386658191681,0.06974301487207413,0.05923682823777199
1733751585681347300,9.336347412109374,0.04154602065682411,0.06516450643539429,0.07179203629493713
1733751585691323400,9.346323486328124,0.03809987008571625,0.05698320269584656,0.07576488703489304
1733751585701298200,9.356298095703124,0.050004202872514725,0.04339282587170601,0.06635620445013046
1733751585711274200,9.366274169921875,0.06300801783800125,0.03742609918117523,0.051592253148555756
1733751585721250300,9.376250244140625,0.057021234184503555,0.03536800667643547,0.05157094821333885
1733751585731225300,9.386225341796875,0.049806345254182816,0.041566237807273865,0.06377752125263214
1733751585741201200,9.396201171875,0.05524798482656479,0.051986388862133026,0.07149935513734818
1733751585751177200,9.40617724609375,0.07985499501228333,0.0675051212310791,0.0708022341132164
1733751585761152300,9.41615234375,0.10124284029006958,0.08656296879053116,0.07125630229711533
1733751585771128000,9.426128173828126,0.10563555359840393,0.10255464911460876,0.07492505013942719
1733751585781104400,9.4361044921875,0.10841722786426544,0.109412282705307,0.06897687911987305
1733751585791080200,9.446080078125,0.10891618579626083,0.09628422558307648,0.06081559509038925
1733751585801055200,9.45605517578125,0.1054985523223877,0.07755368202924728,0.04733733832836151
1733751585811031300,9.46603125,0.09902719408273697,0.06253283470869064,0.03833630681037903
1733751585821007400,9.47600732421875,0.09051652997732162,0.049230076372623444,0.03546462208032608
1733751585830982100,9.485982177734375,0.08715615421533585,0.040565747767686844,0.04880386218428612
1733751585840958500,9.49595849609375,0.08026682585477829,0.04907801002264023,0.06042509898543358
1733751585850934300,9.505934326171875,0.07854412496089935,0.06496831774711609,0.07804734259843826
1733751585860910000,9.51591015625,0.08184964209794998,0.0843191146850586,0.09110429137945175
1733751585870885400,9.525885498046875,0.08652590960264206,0.09354845434427261,0.09405568242073059
1733751585880861200,9.535861083984376,0.08484572172164917,0.08999793231487274,0.0897059440612793
1733751585890837200,9.545837158203126,0.08842646330595016,0.0822192057967186,0.07501424103975296
1733751585900812000,9.55581201171875,0.09404493123292923,0.0691465437412262,0.049351755529642105
1733751585910788400,9.565788330078124,0.10927125066518784,0.04845070093870163,0.026867656037211418
1733751585920764700,9.5757646484375,0.11533287167549133,0.022352518513798714,0.015353744849562645
1733751585930739700,9.58573974609375,0.1222580149769783,-0.0012663437519222498,0.0023499829694628716
1733751585940715800,9.5957158203125,0.12761709094047546,-0.01212005689740181,-0.005689833778887987
1733751585950691600,9.605691650390625,0.11706466972827911,-0.013392833061516285,0.0049136062152683735
1733751585960667600,9.615667724609375,0.10429214686155319,0.010203572921454906,0.02978433482348919
1733751585970642700,9.625642578125,0.10862311720848083,0.055872876197099686,0.05152406543493271
1733751585980618800,9.63561865234375,0.11865018308162689,0.0973803699016571,0.0977003425359726
1733751585990594600,9.645594482421876,0.1436266452074051,0.12281399220228195,0.12590472400188446
1733751586000569600,9.655569580078126,0.16932030022144318,0.12917709350585938,0.14551037549972534
1733751586010545700,9.665545654296874,0.1773008406162262,0.12844721972942352,0.15232953429222107
1733751586020521700,9.675521728515625,0.17754104733467102,0.11377054452896118,0.143838033080101
1733751586030497800,9.685497802734375,0.16888338327407837,0.10033489763736725,0.1333819329738617
1733751586040472800,9.695472900390625,0.16700692474842072,0.07938114553689957,0.1188940778374672
1733751586050448600,9.70544873046875,0.1740119904279709,0.06944931298494339,0.11426988989114761
1733751586060424400,9.715424560546875,0.1834222674369812,0.07592451572418213,0.11792055517435074
1733751586070399700,9.725399658203125,0.18444320559501648,0.08584965765476227,0.12960702180862427
1733751586080375600,9.73537548828125,0.18978071212768555,0.11894582211971283,0.1544194370508194
1733751586090351600,9.7453515625,0.2038833349943161,0.157486230134964,0.18003453314304352
1733751586100327700,9.75532763671875,0.2231377214193344,0.1801454722881317,0.19025307893753052
1733751586110302700,9.765302734375,0.24418452382087708,0.19419801235198975,0.19253499805927277
1733751586120278500,9.775278564453124,0.24993562698364258,0.18649961054325104,0.18233829736709595
1733751586130254800,9.7852548828125,0.2574247121810913,0.18096226453781128,0.1601886749267578
1733751586140229600,9.795229736328125,0.2626791298389435,0.16859453916549683,0.14183630049228668
1733751586150205700,9.805205810546875,0.2632850706577301,0.1557978242635727,0.1321854442358017
1733751586160181800,9.815181640625,0.26182541251182556,0.14552894234657288,0.11770770698785782
1733751586170156800,9.82515673828125,0.25372764468193054,0.13686756789684296,0.10872195661067963
1733751586180132600,9.835132568359375,0.24585771560668945,0.13197186589241028,0.1106644719839096
1733751586190108700,9.845108642578126,0.2478620857000351,0.14037205278873444,0.11202418804168701
1733751586200084700,9.855084716796876,0.25220516324043274,0.15601307153701782,0.1265605092048645
1733751586210059500,9.8650595703125,0.2512923777103424,0.17943556606769562,0.14021559059619904
1733751586220035800,9.875035888671874,0.25229665637016296,0.19740816950798035,0.14928844571113586
1733751586230011600,9.88501171875,0.2508811354637146,0.19013643264770508,0.14479556679725647
1733751586239986700,9.894986572265625,0.24304185807704926,0.1656758338212967,0.1283271163702011
1733751586249962500,9.90496240234375,0.23225975036621094,0.14137637615203857,0.11031860113143921
1733751586259938800,9.914938720703125,0.21598677337169647,0.13254401087760925,0.10170887410640717
1733751586269914600,9.92491455078125,0.21523357927799225,0.15053324401378632,0.11521082371473312
1733751586279889700,9.9348896484375,0.21749725937843323,0.17436455190181732,0.13575203716754913
1733751586289865700,9.94486572265625,0.20814958214759827,0.1923445165157318,0.15782900154590607
1733751586299841500,9.954841552734376,0.19347582757472992,0.19451819360256195,0.1792999505996704
1733751586309816600,9.964816650390626,0.1762826144695282,0.18835234642028809,0.18546529114246368
1733751586319792600,9.974792724609374,0.17449963092803955,0.18236902356147766,0.1789647787809372
1733751586329768700,9.984768798828124,0.18298961222171783,0.17948004603385925,0.15766383707523346
1733751586339743500,9.994743408203124,0.19387821853160858,0.17403841018676758,0.12586969137191772
1733751586349719800,10.0047197265625,0.19565999507904053,0.16072304546833038,0.08809054642915726
1733751586359695600,10.014695556640625,0.19580860435962677,0.14711083471775055,0.059675950556993484
1733751586379646700,10.034646728515625,0.19597652554512024,0.1252790242433548,0.04424689710140228
1733751586389622800,10.044622802734375,0.2045249193906784,0.12682558596134186,0.06435342878103256
1733751586399598600,10.0545986328125,0.20647595822811127,0.14703364670276642,0.09065693616867065
1733751586409573600,10.06457373046875,0.21347332000732422,0.1676647663116455,0.11929502338171005
1733751586419549700,10.0745498046875,0.21382778882980347,0.18666136264801025,0.12885470688343048
1733751586429525500,10.084525390625,0.21349896490573883,0.1934068500995636,0.131094828248024
1733751586439501800,10.094501708984374,0.21728703379631042,0.18893885612487793,0.11460694670677185
1733751586449476600,10.1044765625,0.2285020351409912,0.17682331800460815,0.09051240980625153
1733751586459452700,10.11445263671875,0.2518840432167053,0.16073383390903473,0.060605112463235855
1733751586469428700,10.1244287109375,0.2745203375816345,0.1506222039461136,0.03569388762116432
1733751586479403800,10.13440380859375,0.3068862557411194,0.15307150781154633,0.019825443625450134
1733751586489379600,10.144379638671875,0.3279717266559601,0.15122495591640472,0.011601414531469345
1733751586499355600,10.154355712890625,0.34543752670288086,0.1413009613752365,0.027115657925605774
1733751586509330700,10.16433056640625,0.3323657810688019,0.14329735934734344,0.07320712506771088
1733751586519306800,10.174306640625,0.3152616322040558,0.17264379560947418,0.13670168817043304
1733751586529282600,10.184282470703126,0.31761831045150757,0.2020830661058426,0.1987457126379013
1733751586539258600,10.194258544921874,0.32668983936309814,0.22986063361167908,0.24743548035621643
1733751586549233700,10.204233642578124,0.3433418273925781,0.2492217868566513,0.26964154839515686
1733751586559209500,10.21420947265625,0.3560187518596649,0.24468562006950378,0.2607649862766266
1733751586569185800,10.224185791015625,0.35952842235565186,0.23158469796180725,0.21909327805042267
1733751586579160600,10.23416064453125,0.3686351180076599,0.22007717192173004,0.1668574959039688
1733751586589136600,10.24413671875,0.37497150897979736,0.2108331322669983,0.11894530057907104
1733751586599112700,10.25411279296875,0.36759722232818604,0.1919718235731125,0.08446802198886871
1733751586609088800,10.2640888671875,0.35230645537376404,0.1705540120601654,0.06444985419511795
1733751586619063600,10.2740634765625,0.3354896605014801,0.1632537543773651,0.06582750380039215
1733751586629039900,10.284039794921876,0.32504528760910034,0.17598579823970795,0.09728582948446274
1733751586639015700,10.294015625,0.313456267118454,0.20830698311328888,0.14006419479846954
1733751586648990700,10.30399072265625,0.29704368114471436,0.24816416203975677,0.18874186277389526
1733751586658966800,10.313966796875,0.2778526842594147,0.2750176191329956,0.23323076963424683
1733751586668942600,10.323942626953125,0.25830549001693726,0.2955959439277649,0.2552620768547058
1733751586678917600,10.333917724609375,0.25028830766677856,0.29391470551490784,0.24337908625602722
1733751586688893400,10.3438935546875,0.26546019315719604,0.24962542951107025,0.18833279609680176
1733751586698869800,10.353869873046875,0.2946990430355072,0.19551531970500946,0.10614790767431259
1733751586708845600,10.363845458984375,0.32722240686416626,0.1267751157283783,0.014402399770915508
1733751586718820600,10.373820556640625,0.3528521656990051,0.07125700265169144,-0.07917442172765732
1733751586728796700,10.383796630859376,0.36872678995132446,0.02726392075419426,-0.15983538329601288
1733751586738772700,10.393772705078124,0.3816465735435486,-0.02250044047832489,-0.22746342420578003
1733751586748747500,10.40374755859375,0.3612044155597687,-0.07502730190753937,-0.23429816961288452
1733751586758723800,10.413723876953124,0.3124009370803833,-0.0843409076333046,-0.15745878219604492
1733751586768699600,10.42369970703125,0.2797679603099823,-0.03362521901726723,-0.049810439348220825
1733751586778675500,10.433675537109375,0.2541249394416809,0.06519696116447449,0.07607638835906982
1733751586788650800,10.443650634765625,0.23852896690368652,0.15972760319709778,0.19718365371227264
1733751586798626600,10.45362646484375,0.24712830781936646,0.2373315840959549,0.28109318017959595
1733751586808602600,10.4636025390625,0.2668464779853821,0.288025826215744,0.32020750641822815
1733751586818577700,10.47357763671875,0.2945375144481659,0.29122135043144226,0.2987522780895233
1733751586828553700,10.4835537109375,0.3187399208545685,0.25957411527633667,0.2369936853647232
1733751586838529500,10.493529541015626,0.32660797238349915,0.21013732254505157,0.16605719923973083
1733751586848504800,10.5035048828125,0.32133927941322327,0.16040806472301483,0.10428684949874878
1733751586858480600,10.513480712890624,0.31456124782562256,0.12916386127471924,0.08216024190187454
1733751586868456700,10.523456787109374,0.3142830729484558,0.14563284814357758,0.10763952881097794
1733751586878432800,10.533432861328125,0.3186306953430176,0.18865808844566345,0.1481107920408249
1733751586888407800,10.54340771484375,0.33143746852874756,0.24638721346855164,0.19668544828891754
1733751586898383600,10.553383544921875,0.3470363914966583,0.2945749759674072,0.24227291345596313
1733751586908359700,10.563359619140625,0.35720381140708923,0.3211713433265686,0.2692117989063263
1733751586918334200,10.573334228515625,0.3679123818874359,0.32843485474586487,0.2771006226539612
1733751586928310300,10.583310302734375,0.3742794096469879,0.3251197040081024,0.2804759442806244
1733751586938286000,10.5932861328125,0.3833618462085724,0.31665804982185364,0.27462923526763916
1733751586948262100,10.60326220703125,0.3930513858795166,0.3067014515399933,0.26320305466651917
1733751586958237200,10.6132373046875,0.3989873230457306,0.3051064908504486,0.2463867962360382
1733751586968213000,10.623212890625,0.40042611956596375,0.30480054020881653,0.2274775505065918
1733751586978189300,10.633189208984374,0.40540143847465515,0.29753491282463074,0.2087339609861374
1733751586988164000,10.6431640625,0.40700840950012207,0.3069380819797516,0.2126467376947403
1733751586998140200,10.65314013671875,0.4137957692146301,0.32883140444755554,0.24720896780490875
1733751587008116200,10.6631162109375,0.4239186644554138,0.36612674593925476,0.2992846369743347
1733751587018092000,10.673092041015625,0.4368770718574524,0.43119364976882935,0.3638641834259033
1733751587028067000,10.683067138671875,0.44422921538352966,0.49961403012275696,0.41750437021255493
1733751587038043100,10.693043212890625,0.4341925382614136,0.535502016544342,0.4602544903755188
1733751587048019200,10.703019287109376,0.4183798134326935,0.536612331867218,0.46154874563217163
1733751587057994200,10.712994140625,0.4095138907432556,0.4982510507106781,0.4309908449649811
1733751587067970000,10.722969970703126,0.3897758722305298,0.4288158714771271,0.3733648955821991
1733751587077946000,10.732946044921874,0.3715460002422333,0.3429451882839203,0.29729196429252625
1733751587087921200,10.742921142578124,0.34740689396858215,0.25071170926094055,0.22579093277454376
1733751587097897000,10.75289697265625,0.3203164041042328,0.16544663906097412,0.16288119554519653
1733751587107873300,10.762873291015625,0.27493566274642944,0.07509388029575348,0.10832066088914871
1733751587117849000,10.77284912109375,0.22383306920528412,-0.01703098602592945,0.05184965953230858
1733751587127824100,10.78282421875,0.18669241666793823,-0.08112461119890213,0.013651423156261444
1733751587137800200,10.79280029296875,0.15953217446804047,-0.06819363683462143,0.04780566692352295
1733751587147776000,10.80277587890625,0.1474737823009491,0.009929843246936798,0.15695950388908386
1733751587157751000,10.8127509765625,0.14373762905597687,0.13398361206054688,0.3253341317176819
1733751587167727000,10.82272705078125,0.1577390432357788,0.27200594544410706,0.5107282400131226
1733751587177703200,10.832703125,0.1773225963115692,0.3936429023742676,0.6793832778930664
1733751587187678200,10.84267822265625,0.19175392389297485,0.4803192615509033,0.8005213737487793
1733751587197654300,10.852654296875,0.1853378415107727,0.5158956050872803,0.8489909172058105
1733751587207630000,10.862630126953125,0.1687881052494049,0.5080976486206055,0.8175833225250244
1733751587217606100,10.872606201171875,0.15257637202739716,0.4644407331943512,0.7124521136283875
1733751587227581000,10.882580810546875,0.1403428167104721,0.3839071989059448,0.5678737759590149
1733751587237557200,10.89255712890625,0.1341427117586136,0.2895146608352661,0.4203910827636719
1733751587247533000,10.902532958984375,0.1402912139892578,0.21464508771896362,0.29644811153411865
1733751587257508000,10.912508056640625,0.16203005611896515,0.1540115773677826,0.23084326088428497
1733751587267484200,10.922484130859376,0.18593712151050568,0.1313907653093338,0.22523526847362518
1733751587277460200,10.932460205078126,0.2100192904472351,0.1654675155878067,0.26523512601852417
1733751587287436300,10.942436279296874,0.2401832789182663,0.23956485092639923,0.34543389081954956
1733751587297411300,10.952411376953124,0.2696354389190674,0.31821146607398987,0.43765169382095337
1733751587307387100,10.96238720703125,0.2961519956588745,0.3899368643760681,0.5044018030166626
1733751587317363000,10.972363037109375,0.32657915353775024,0.43288832902908325,0.5389161109924316
1733751587327338200,10.982338134765625,0.35582903027534485,0.4444098174571991,0.5250979065895081
1733751587337314000,10.99231396484375,0.3777681589126587,0.42254021763801575,0.4679030478000641
1733751587347290000,11.0022900390625,0.39641714096069336,0.360935777425766,0.37461698055267334
1733751587357266200,11.01226611328125,0.4007793962955475,0.28706637024879456,0.27659693360328674
1733751587367241200,11.0222412109375,0.40109583735466003,0.220668762922287,0.19473077356815338
1733751587377217000,11.032217041015626,0.39877888560295105,0.1837024837732315,0.15995602309703827
1733751587387193000,11.042193115234374,0.39793461561203003,0.1873856782913208,0.17316678166389465
1733751587397168000,11.052168212890624,0.3977058529853821,0.2148633748292923,0.2203952670097351
1733751587407144200,11.062144287109374,0.40385308861732483,0.2604229748249054,0.26824524998664856
1733751587417120300,11.072120361328125,0.40787312388420105,0.29916930198669434,0.305164098739624
1733751587427095300,11.08209521484375,0.41681617498397827,0.30509597063064575,0.3221711218357086
1733751587437071000,11.092071044921875,0.4225424826145172,0.29187896847724915,0.3135017156600952
1733751587447047200,11.102047119140625,0.422966331243515,0.2722090482711792,0.28371554613113403
1733751587457023200,11.112023193359375,0.4136662781238556,0.24804618954658508,0.2547304928302765
1733751587466998000,11.121998046875,0.4057018458843231,0.23226456344127655,0.22116054594516754
1733751587476974300,11.131974365234376,0.3895164728164673,0.23405501246452332,0.17561861872673035
1733751587486950100,11.1419501953125,0.3771747946739197,0.23534704744815826,0.14611689746379852
1733751587496925200,11.15192529296875,0.36763402819633484,0.23398403823375702,0.13619476556777954
1733751587506901000,11.16190087890625,0.36335304379463196,0.2372571974992752,0.13697029650211334
1733751587516877000,11.171876953125,0.35713669657707214,0.2398122251033783,0.14239008724689484
1733751587526853000,11.18185302734375,0.3386647403240204,0.23691383004188538,0.15733565390110016
1733751587536828200,11.191828125,0.3183475136756897,0.2437448352575302,0.18348708748817444
1733751587546804200,11.20180419921875,0.30413079261779785,0.2560235261917114,0.21543532609939575
1733751587556780000,11.211780029296875,0.2983429431915283,0.28469377756118774,0.2514476478099823
1733751587566755000,11.221755126953125,0.30134740471839905,0.3193435072898865,0.28264689445495605
1733751587576731100,11.231731201171876,0.3105393052101135,0.3368993401527405,0.3009020686149597
1733751587586707200,11.241707275390626,0.31923553347587585,0.3350103795528412,0.31396129727363586
1733751587596683000,11.25168310546875,0.32790252566337585,0.3232938051223755,0.3102818727493286
1733751587606658300,11.261658203125,0.334408700466156,0.31626370549201965,0.29048579931259155
1733751587616634000,11.271634033203124,0.3372018337249756,0.309291809797287,0.2675778269767761
1733751587626610000,11.28160986328125,0.33984580636024475,0.3106721341609955,0.26122137904167175
1733751587636585200,11.291585205078125,0.3372790515422821,0.3251328468322754,0.2539088726043701
1733751587646561000,11.30156103515625,0.3345641791820526,0.3492709696292877,0.24197673797607422
1733751587656537000,11.311537109375,0.3405677378177643,0.36140164732933044,0.21363776922225952
1733751587666512100,11.32151220703125,0.36014649271965027,0.3615688383579254,0.1844414919614792
1733751587676488200,11.33148828125,0.38497355580329895,0.3688288927078247,0.15361221134662628
1733751587686464000,11.341464111328126,0.3974526524543762,0.3788079619407654,0.14951711893081665
1733751587696440300,11.3514404296875,0.38947728276252747,0.38418489694595337,0.14928755164146423
1733751587706415000,11.3614150390625,0.38270530104637146,0.40176501870155334,0.15566611289978027
1733751587716391200,11.37139111328125,0.38703852891921997,0.3924410045146942,0.15192145109176636
1733751587726367200,11.3813671875,0.3761390447616577,0.37532904744148254,0.12572188675403595
1733751587736342300,11.39134228515625,0.3617854118347168,0.36202576756477356,0.09100411087274551
1733751587746318000,11.401318115234375,0.3485318124294281,0.3124709725379944,0.05503462627530098
1733751587756294100,11.411294189453125,0.32700228691101074,0.27327829599380493,0.030317828059196472
1733751587766270200,11.421270263671875,0.30680859088897705,0.25390177965164185,0.011068077757954597
1733751587776245000,11.431244873046875,0.2846508324146271,0.2380242645740509,-0.0010793990222737193
1733751587786221000,11.441220947265625,0.27252504229545593,0.21423494815826416,0.0014232768444344401
1733751587796197000,11.451197021484376,0.2740960419178009,0.1985587775707245,0.010416239500045776
1733751587806172200,11.461172119140626,0.26899203658103943,0.18303349614143372,0.02487354353070259
1733751587816148000,11.47114794921875,0.26420125365257263,0.1864311546087265,0.036038849502801895
1733751587826124300,11.481124267578124,0.24830463528633118,0.19635698199272156,0.06218509003520012
1733751587836099000,11.49109912109375,0.2409718781709671,0.2094738483428955,0.09803415834903717
1733751587846075100,11.5010751953125,0.23172618448734283,0.2135869264602661,0.1316377818584442
1733751587856051200,11.51105126953125,0.23514382541179657,0.20524804294109344,0.14206324517726898
1733751587866027000,11.521027099609375,0.23578134179115295,0.18728522956371307,0.14206275343894958
1733751587876002000,11.531001953125,0.2350228726863861,0.17289403080940247,0.12156413495540619
1733751587885978000,11.54097802734375,0.24401172995567322,0.15301238000392914,0.09749434888362885
1733751587895954200,11.5509541015625,0.2487654685974121,0.13108523190021515,0.06618782877922058
1733751587905929200,11.56092919921875,0.26041990518569946,0.08879189193248749,0.03658086434006691
1733751587915905300,11.5709052734375,0.27148187160491943,0.058875538408756256,0.012474463321268559
1733751587925881600,11.580881591796874,0.27688068151474,0.05208834260702133,0.000013281009159982204
1733751587935857400,11.590857421875,0.2550102770328522,0.05615339055657387,0.0049720872193574905
1733751587945832400,11.60083251953125,0.2171471267938614,0.07120145112276077,0.018758222460746765
1733751587955808500,11.61080859375,0.1837199330329895,0.10095695406198502,0.03573800250887871
1733751587965784600,11.62078466796875,0.16172939538955688,0.14066646993160248,0.056533779948949814
1733751587975759600,11.630759521484375,0.14574190974235535,0.19685037434101105,0.08211344480514526
1733751587985735400,11.6407353515625,0.15306101739406586,0.24273614585399628,0.1046157032251358
1733751587995711500,11.65071142578125,0.16891880333423615,0.2581087052822113,0.10891963541507721
1733751588005686500,11.6606865234375,0.1790596842765808,0.24556490778923035,0.09108264744281769
1733751588015662300,11.670662353515626,0.18169967830181122,0.22303776443004608,0.06047386676073074
1733751588025638700,11.680638671875,0.18511033058166504,0.1947140097618103,0.025629743933677673
1733751588035614500,11.690614501953124,0.18808294832706451,0.1695287674665451,-0.010534386150538921
1733751588045589500,11.700589599609375,0.19179704785346985,0.13781152665615082,-0.031056664884090424
1733751588055565600,11.710565673828125,0.19128945469856262,0.10578195750713348,-0.04782046750187874
1733751588065541600,11.720541748046875,0.19046731293201447,0.08275558054447174,-0.05931340903043747
1733751588075516400,11.730516357421875,0.2008669525384903,0.06880860030651093,-0.0679396539926529
1733751588085492700,11.74049267578125,0.22237229347229004,0.06152777001261711,-0.06750508397817612
1733751588095468500,11.750468505859375,0.22775080800056458,0.06340344250202179,-0.06243069842457771
1733751588105444400,11.7604443359375,0.22814559936523438,0.06196214258670807,-0.05564546957612038
1733751588115419400,11.77041943359375,0.22598817944526672,0.05355827137827873,-0.04837663844227791
1733751588125395500,11.7803955078125,0.22944946587085724,0.02964327298104763,-0.047997985035181046
1733751588135371500,11.79037158203125,0.22766780853271484,0.01809554174542427,-0.04205514118075371
1733751588145346300,11.80034619140625,0.22894005477428436,0.007762347813695669,-0.030010180547833443
1733751588155322600,11.810322509765625,0.2277030199766159,0.00758791109547019,-0.01437422912567854
1733751588165298400,11.82029833984375,0.22121788561344147,0.018106289207935333,0.016735313460230827
1733751588175274500,11.8302744140625,0.21629317104816437,0.03865843638777733,0.03617319464683533
1733751588185249500,11.84024951171875,0.2143123894929886,0.06021640822291374,0.03754771500825882
1733751588195225600,11.8502255859375,0.21303406357765198,0.07394606620073318,0.02155143767595291
1733751588205201700,11.86020166015625,0.2085164189338684,0.08313814550638199,-0.008203606121242046
1733751588215176700,11.8701767578125,0.20275519788265228,0.08733848482370377,-0.029468681663274765
1733751588225152500,11.880152587890626,0.19018952548503876,0.07996174693107605,-0.04184695705771446
1733751588235128300,11.89012841796875,0.17463400959968567,0.048899441957473755,-0.06813529133796692
1733751588245103600,11.900103515625,0.1623700112104416,0.017679117619991302,-0.09003107994794846
1733751588255079400,11.910079345703124,0.15294162929058075,-0.0020876626949757338,-0.09822216629981995
1733751588265055500,11.920055419921875,0.14374175667762756,-0.03299001231789589,-0.09793172031641006
1733751588275031600,11.930031494140625,0.13364703953266144,-0.06131485849618912,-0.10691163688898087
1733751588285006600,11.940006591796875,0.1161445900797844,-0.06434516608715057,-0.10486406087875366
1733751588294982400,11.949982421875,0.08979873359203339,-0.03744111955165863,-0.093641497194767
1733751588304958500,11.95995849609375,0.06892037391662598,0.006322058849036694,-0.07196342200040817
1733751588314933500,11.96993359375,0.06365025043487549,0.05302591621875763,-0.05066000297665596
1733751588324909600,11.97990966796875,0.07764726132154465,0.08375082165002823,-0.03840140998363495
1733751588334885600,11.9898857421875,0.08754463493824005,0.10242517292499542,-0.026116248220205307
1733751588344861400,11.999861328125,0.09136275947093964,0.10502951592206955,-0.02048858068883419
1733751588354836500,12.00983642578125,0.10307427495718002,0.10845594108104706,-0.025825554504990578
1733751588364812500,12.0198125,0.12284492701292038,0.10585401952266693,-0.028778765350580215
1733751588384763400,12.039763427734375,0.17031195759773254,0.08459724485874176,-0.030555423349142075
1733751588394739500,12.049739501953125,0.18163199722766876,0.08177349716424942,-0.01602495089173317
1733751588404715500,12.059715576171875,0.1830751746892929,0.09144946932792664,-0.0024993964470922947
1733751588414690600,12.069690673828125,0.1841670721769333,0.10658634454011917,0.017656471580266953
1733751588424666400,12.079666259765625,0.17775990068912506,0.11667831242084503,0.020191723480820656
1733751588434642400,12.089642333984376,0.17334730923175812,0.11784423887729645,0.01125015877187252
1733751588444618500,12.099618408203124,0.16974084079265594,0.10645026713609695,-0.012270238250494003
1733751588454593500,12.109593505859374,0.16901487112045288,0.09424739331007004,-0.05274629220366478
1733751588464569600,12.119569580078124,0.16628819704055786,0.07374220341444016,-0.09204861521720886
1733751588474545400,12.12954541015625,0.16764506697654724,0.04976523667573929,-0.12849611043930054
1733751588484520400,12.1395205078125,0.16998668015003204,0.023177385330200195,-0.1560320407152176
1733751588494496500,12.14949658203125,0.17443761229515076,0.008116943761706352,-0.16159537434577942
1733751588504472600,12.15947265625,0.17921462655067444,0.01425083912909031,-0.14515183866024017
1733751588514448400,12.169448486328125,0.18497717380523682,0.02375885657966137,-0.11948161572217941
1733751588524423700,12.179423583984375,0.1759563386440277,0.031551387161016464,-0.08908300846815109
1733751588534399500,12.1893994140625,0.1636195182800293,0.04249271750450134,-0.0596311129629612
1733751588544375300,12.199375244140626,0.14878271520137787,0.04299059137701988,-0.040098171681165695
1733751588554350600,12.2093505859375,0.13495638966560364,0.03907814249396324,-0.0339135117828846
1733751588564326400,12.219326416015624,0.1238730400800705,0.03572464361786842,-0.03916836902499199
1733751588574302500,12.229302490234375,0.11409178376197815,0.03251899778842926,-0.04658367484807968
1733751588584277500,12.239277587890625,0.10945362597703934,0.02458072640001774,-0.06918509304523468
1733751588594253600,12.249253662109375,0.10774201154708862,0.023177241906523705,-0.08332035690546036
1733751588604229400,12.2592294921875,0.11325710266828537,0.025064311921596527,-0.09097017347812653
1733751588614205700,12.269205810546875,0.12298216670751572,0.03535956144332886,-0.0807335153222084
1733751588624180500,12.279180419921875,0.1318930983543396,0.05481714755296707,-0.06358994543552399
1733751588634156500,12.289156494140625,0.13512670993804932,0.07088586688041687,-0.04505540803074837
1733751588644132600,12.299132568359376,0.12889008224010468,0.08498412370681763,-0.035269029438495636
1733751588654107600,12.309107666015626,0.11371326446533203,0.07960986346006393,-0.036273043602705
