time,seconds_elapsed,z,y,x
1733751860114129200,0.025129150390625,1.0066580454602836,-0.20496815357655285,0.2526607558608055
1733751860124104000,0.03510400390625,1.113921611610055,-0.22835136725157498,0.22627134610712527
1733751860134080300,0.045080322265625,1.0019935607805848,-0.1909346597880125,0.16595862396359443
1733751860144056000,0.05505615234375,0.6954366718202829,-0.15817483821958303,0.34256665223538874
1733751860154031900,0.065031982421875,0.28153379912376403,-0.08387246142923832,0.5727314986497164
1733751860164007200,0.075007080078125,-0.029388883830606935,-0.023470307436585423,0.8085942644447087
1733751860173983000,0.08498291015625,-0.19715338817238806,-0.025893150669336316,0.9184902249246835
1733751860183959000,0.094958984375,-0.1672106698513031,-0.04601911611407995,0.8260416583299637
1733751860193935400,0.104935302734375,-0.027156886994838713,-0.030598844142258167,0.6467389841467142
1733751860203911400,0.114911376953125,0.16746376782953737,-0.023652386005222795,0.4902759182810783
1733751860213886200,0.12488623046875,0.37030221590101714,-0.06092763917148113,0.3554167814582586
1733751860223862500,0.134862548828125,0.5332675032675266,-0.06893675810396671,0.3510077328443527
1733751860233838300,0.14483837890625,0.6247554081365466,-0.07007394544035196,0.3706628659069538
1733751860243814100,0.154814208984375,0.5729769978433847,0.05491495475322008,0.3746545658916235
1733751860253790500,0.16479052734375,0.4087573265016079,0.10771452478766441,0.4468699072748422
1733751860263765200,0.17476513671875,0.14283435348570345,0.12759016873314977,0.6014981589287519
1733751860273741300,0.1847412109375,0.007094342175126075,0.1709425498560071,0.7114554942071437
1733751860283717400,0.19471728515625,-0.05433101738542318,0.17992621290907262,0.6133534318953752
1733751860293693200,0.204693115234375,-0.19452567001730203,0.15631664313226937,0.4482528860658407
1733751860303668200,0.214668212890625,-0.27146014887690545,0.17874825517088175,0.3679074297189712
1733751860313644300,0.224644287109375,-0.33890988329350946,0.2528580319985747,0.3215110047250986
1733751860323620400,0.234620361328125,-0.3025923692435026,0.3280566269762814,0.3360229296803474
1733751860333596200,0.24459619140625,-0.14041414060145616,0.286923675468564,0.45399055293500423
1733751860343572500,0.254572509765625,0.028164018210768697,0.18021774320155381,0.4814695114910602
1733751860353547300,0.26454736328125,0.36046734284609555,0.24355083607956765,0.281651288023591
1733751860363523300,0.2745234375,0.4721779515326023,0.2592186530716717,-0.0657522828489542
1733751860373499400,0.28449951171875,0.5734136356949806,0.21457170209363102,-0.2856833200186491
1733751860383475200,0.29447509765625,0.5902677398622036,0.17091040115207431,-0.30757951000630857
1733751860393450200,0.3044501953125,0.5072662160485982,0.06410451564192772,-0.20869944905936716
1733751860403426300,0.31442626953125,0.28799130470007656,0.021485271099209783,-0.14621055192053317
1733751860413402400,0.32440234375,-0.02373158872127533,0.06007511399537325,0.04481763136982918
1733751860423378200,0.334378173828125,-0.41198067246228454,0.11596329769492149,0.30582419077157974
1733751860433354500,0.3443544921875,-0.578713203407824,0.13672463843375443,0.6298515622317791
1733751860443329300,0.354329345703125,-0.53066871894598,0.1722989329010248,0.6191659175664186
1733751860453305300,0.364305419921875,-0.25847236474901436,0.2313071483172476,0.2566477796703577
1733751860463281400,0.374281494140625,-0.0006119944185018539,0.24973858480378983,-0.20203882212638855
1733751860473257200,0.38425732421875,0.08383417524546384,0.2920411646127701,-0.5380564911097288
1733751860483233300,0.3942333984375,0.0648044806048274,0.3615989772245288,-0.6816752729713916
1733751860493208300,0.404208251953125,-0.03645487669408321,0.3628029461868107,-0.5681336494654416
1733751860503184400,0.414184326171875,-0.18019231649935244,0.13370631352588533,-0.367919120156765
1733751860513160200,0.42416015625,-0.2790884517982602,-0.07500175723135472,-0.19736264700889586
1733751860523136300,0.43413623046875,-0.3500502859890461,-0.26636560221686956,-0.11304828703105449
1733751860533111300,0.444111328125,-0.48386079054176806,-0.2582709969580173,-0.03362462170422077
1733751860543087400,0.45408740234375,-0.751423931980133,-0.2429110768713057,0.26440438514649867
1733751860553063400,0.4640634765625,-0.6492816543668508,-0.16193389849215745,0.6016039573907852
1733751860563039200,0.474039306640625,-0.6138350779324769,-0.31218846510648723,0.5373270077914
1733751860573015300,0.484015380859375,-0.44988779379129407,-0.46593365031555295,0.3359288216561079
1733751860582990300,0.493990234375,-0.22259645698666572,-0.5878279454946518,0.23191432043015955
1733751860592966400,0.50396630859375,-0.19463906726390123,-0.7221426001772284,0.06802431943416595
1733751860602942200,0.513942138671875,0.5445066901624203,-0.8836461444281041,-0.03786357444822788
1733751860612918300,0.523918212890625,0.623691578297317,-0.7943753310866654,-0.00755377638041973
1733751860622893300,0.533893310546875,0.527313563299179,-0.3438255662553012,0.21659984692037104
1733751860632869000,0.543869140625,-0.35218408314734695,-0.6003744155958295,0.35272038198113437
1733751860642845400,0.553845458984375,-0.9903978155329823,-0.7818143940687179,0.47428573746681213
1733751860652821200,0.5638212890625,-1.5826087984174488,-0.6513419478975236,0.37092590075731274
1733751860662797300,0.57379736328125,-1.7501617058351635,-0.4506870544102043,0.253047709351778
1733751860672772400,0.5837724609375,-1.7353659955024718,-0.13317863638997077,0.13432897546887396
1733751860682748400,0.59374853515625,-1.757745585092902,-0.009962225761637092,0.03510696921646595
1733751860692724200,0.60372412109375,-1.862529024864733,-0.41518399854823945,0.08173544940054416
1733751860702700300,0.6137001953125,-1.9586083491772412,-0.7739221064489334,0.4986842656642198
1733751860712676400,0.62367626953125,-1.9923606889143586,-0.9224490455530583,1.0544862568229436
1733751860722651100,0.633651123046875,-2.1223978124082086,-1.0967198630489408,1.33303198004663
1733751860732627500,0.64362744140625,-2.31067669699043,-1.2374804790005087,1.5774363642156124
1733751860742603300,0.653603271484375,-2.0729332320153713,-1.266918754930794,2.0121090532183645
1733751860752579300,0.663579345703125,-1.760825138668716,-1.417895936731249,2.1933669531226156
1733751860762555400,0.673555419921875,-1.4809502126678824,-1.6509434989750384,2.001418147855997
1733751860772530400,0.683530517578125,-1.2210308639809488,-1.547533685643971,1.4436276132285595
1733751860782506200,0.69350634765625,-0.4846732759684324,-0.07552267583291977,0.08427052083611487
1733751860792482300,0.703482421875,-1.073689554464817,-0.27694815183393656,-0.2636807470470667
1733751860802458400,0.713458251953125,-1.1616232739835977,-1.6652531793564558,0.27556290802061556
1733751860812433200,0.72343310546875,-0.9386486313343048,-0.9428843692079186,-0.0073918638169765466
1733751860822409500,0.733409423828125,-0.8654717514425515,-0.23952669513002037,0.3198497935146093
1733751860832385300,0.74338525390625,-1.0660480998009443,-0.46946262815929946,0.4322241268068552
1733751860842361000,0.753361083984375,-1.4536194304108618,-0.5323066954113542,0.16622341237962246
1733751860852337400,0.76333740234375,-1.499554083111882,-0.30991219073757525,0.2776759546518326
1733751860862312200,0.773312255859375,-1.3637971206665038,-0.05424845366850495,0.3736158704936504
1733751860872288300,0.783288330078125,-1.2628954907640815,0.10783581307977437,-0.08219429908394812
1733751860882264300,0.793264404296875,-1.3377253985598683,0.23296865178868173,-0.43226621238291263
1733751860892240400,0.803240478515625,-1.2346575305342673,0.5369418078660965,-0.0773199710458517
1733751860902216400,0.813216552734375,-1.0639707090049981,0.7383017078176141,0.31839199592173095
1733751860912191500,0.82319140625,-0.9024415919214487,0.866474206483364,0.4589531437784433
1733751860922167300,0.833167236328125,-0.3205909672707319,0.9340130804881452,0.27451018409729
1733751860932143000,0.84314306640625,0.33108664232194424,0.8691717750042677,0.0943254663825035
1733751860942119400,0.853119384765625,0.8872446073114871,0.8301058390289544,-0.7908446727424859
1733751860952094200,0.86309423828125,0.9831821850657463,1.0458388399869203,-1.1730097603946923
1733751860962070300,0.8730703125,0.8792430871635675,1.514957111687958,-1.066371340405941
1733751860972046300,0.88304638671875,0.6251280408412218,1.9362974409088491,-1.1710527811080216
1733751860982022400,0.8930224609375,0.21951368854045866,1.8870137700408696,-1.6551269221395253
1733751860991998500,0.90299853515625,-0.04573065456151962,1.829089696599543,-1.6879016490161418
1733751861001973500,0.912973388671875,0.3342676104456186,1.7781942066207528,-1.5104513247013092
1733751861011949300,0.92294921875,0.7210884149491786,1.7040628024831412,-1.6294214029967784
1733751861021925000,0.932925048828125,1.1602864724218844,1.811094021181762,-1.6722855622112751
1733751861031901400,0.9429013671875,1.5533452945321797,2.131153950315714,-1.9139409399330616
1733751861041876200,0.952876220703125,1.4415180737286806,2.1259505364537237,-2.157938496866822
1733751861051852300,0.962852294921875,1.0594453405350446,1.96806649787426,-2.1851018136024476
1733751861061828400,0.972828369140625,0.6032219139814377,1.8223054432868957,-1.93710729598701
1733751861071804200,0.98280419921875,0.31626199815571304,1.7789000168025493,-1.4967764350920916
1733751861081780500,0.992780517578125,0.26393442954719065,1.5423428390026093,-0.9965309114605188
1733751861091755300,1.00275537109375,0.5666098008990288,1.1324316662907599,-0.9099813397765159
1733751861101731300,1.0127314453125,0.6993202352553606,0.7382599145025014,-1.1101382936790585
1733751861111707100,1.02270703125,0.7864373776942492,0.7081231349140406,-0.7159685877174139
1733751861121683500,1.032683349609375,1.1225351261764764,0.8062614375829696,0.018302549409866333
1733751861131659300,1.0426591796875,1.406975168135762,0.8191396238565445,0.5457429539591073
1733751861141634300,1.05263427734375,1.7356833908885716,0.5705757819205522,0.39190585268288847
1733751861151610400,1.0626103515625,2.067118408256769,0.2773141356021166,-0.11650982566177845
1733751861161586200,1.072586181640625,1.9689777675002813,0.28380115953385826,-0.3958072440356016
1733751861171562500,1.0825625,1.4070675225943325,0.4333768039733171,0.015016659606993197
1733751861181537300,1.092537353515625,0.4388420836418867,0.4000771764397621,0.40712037294954057
1733751861191513300,1.102513427734375,-0.2863227869659662,0.4124164335310459,0.43634179125875233
1733751861201489400,1.112489501953125,-0.6446820516169071,0.41433191176354883,0.12371668830066919
1733751861211465500,1.122465576171875,-0.8083978650897741,0.305010536301136,0.009167349056899548
1733751861221441500,1.132441650390625,-0.711003658786416,0.17218027495741844,0.063031625713408
1733751861231416600,1.14241650390625,-0.4987924022138118,-0.05659750101268291,0.008143851228058338
1733751861241392400,1.152392333984375,-0.03240063286721706,-0.5034767606377601,-0.05060410581678152
1733751861251368400,1.162368408203125,0.4160971678704023,-0.9716974989771843,-0.023214286848902702
1733751861261344500,1.172344482421875,0.6228641875624656,-1.2081611532747745,0.014191022437810896
1733751861271320300,1.1823203125,0.6036936231464147,-0.9919693026334047,0.1746872893422842
1733751861281295600,1.192295654296875,-0.13118366318047045,-0.5408668723553419,0.2854290529966354
1733751861291271400,1.202271484375,-0.9204530494302511,-0.15977204428315162,0.3450844802752137
1733751861301247200,1.212247314453125,-1.1419055970788001,0.14027297856509685,0.4999085467621684
1733751861311223600,1.2222236328125,-1.0938204883456228,0.33409926814138885,0.5883747657224535
1733751861321198300,1.2321982421875,-0.8835258790493011,0.48172494755685324,0.4712111523270607
1733751861331174400,1.24217431640625,-0.7389175016283989,0.33100247116982934,0.06964519863426685
1733751861341150500,1.252150390625,-0.4671054705739021,0.19768179596066474,-0.14202946684360504
1733751861351126500,1.26212646484375,-0.1235351942539215,0.018444003707170486,-0.15990531527400015
1733751861361102300,1.272102294921875,0.14932313098311423,-0.12695523183047772,0.011078443375229835
1733751861371077600,1.28207763671875,0.26498539990484715,-0.15550912614166737,0.009083177904784679
1733751861381053400,1.292053466796875,0.2744844651341438,-0.13761106587946415,-0.08819441628158092
1733751861391029200,1.302029296875,0.01642389605641365,0.06570727466344833,-0.04242342970967292
1733751861401005600,1.312005615234375,-0.19162439561784267,0.36729952695369716,0.16886501292958855
1733751861410981400,1.3219814453125,-0.40771629301607604,0.40105566608309745,-0.06206774911731481
1733751861420956400,1.331956298828125,-0.4235831397116184,0.3788748139351606,-0.4613008759483695
1733751861430932500,1.341932373046875,-0.1277408292502165,0.26084932301342484,-0.3311763664320111
1733751861440908500,1.351908447265625,0.21952771706581115,0.019748656564950944,0.11897095507830381
1733751861450884400,1.36188427734375,0.3528606672346592,-0.07228665305376053,0.5244758556552231
1733751861460859600,1.371859619140625,0.20019524008631706,0.02266366722881794,0.5636695096634328
1733751861470835500,1.38183544921875,0.10376666394472121,0.05819441481530666,0.15333309727683664
1733751861480811300,1.391811279296875,-0.09244915111660956,0.23086393459439275,-0.14237433475852013
1733751861490787600,1.40178759765625,-0.47783904603421684,0.3010948241621256,-0.09909238852337002
1733751861500763400,1.411763427734375,-0.7473574131935834,0.24494740500450132,0.08339110765308141
1733751861510738400,1.421738525390625,-0.8602718447118997,0.03917290348112583,0.11301073149964212
1733751861520714500,1.431714599609375,-0.9454618184804916,-0.28131460341513154,-0.027460838377475736
1733751861530690300,1.441690185546875,-0.8156476900875568,-0.5630640911161899,-0.07799129443615674
1733751861540666400,1.451666259765625,-0.5479191289544105,-0.8150883026391267,-0.12953925697430968
1733751861550641700,1.4616416015625,-0.21379355732798574,-1.0066209283202885,-0.12759484490826725
1733751861560617500,1.471617431640625,0.0838075794994831,-1.0701882683455943,0.1105316280350089
1733751861570593300,1.48159326171875,0.28625381338298317,-0.9922533802717923,0.3163428083069622
1733751861580569600,1.491569580078125,0.31511633525192734,-0.9809691851913929,0.43756409959532316
1733751861590545400,1.50154541015625,0.1824111615926027,-0.9276140271008014,0.4208713234696537
1733751861600520400,1.5115205078125,0.028238252490758894,-0.734674457231164,0.42231662690714
1733751861610496500,1.52149658203125,-0.06598842969238758,-0.6126987673789263,0.5866103133331984
1733751861620472300,1.531472412109375,-0.013933248284459113,-0.7181219663590193,0.6552712501704693
1733751861630448400,1.541448486328125,0.1539174730360508,-0.8408399990111589,0.6481979507833718
1733751861640423400,1.55142333984375,0.35316520313918587,-0.9470084634006023,0.673410717973113
1733751861650399500,1.5613994140625,0.40517596088349817,-0.9422492861747741,0.8234631861440836
1733751861660375300,1.571375244140625,0.4143476938545704,-0.8843079693377017,0.729521677577868
1733751861670351600,1.5813515625,0.2355336799710989,-0.774628281956911,0.389345573740825
1733751861680327400,1.591327392578125,0.12887071006298065,-0.6789455557465552,0.22317988289780913
1733751861690302500,1.601302490234375,0.08815700688064097,-0.424197472217679,0.518539414810948
1733751861700278500,1.611278564453125,0.022695231410861015,-0.19405249954760073,0.7932923581555485
1733751861710254300,1.62125439453125,0.007694646155834197,-0.022719196808338164,0.9249200387764721
1733751861720230400,1.63123046875,0.07540390829145908,-0.09660510175228118,0.7114828206054866
1733751861730205400,1.641205322265625,0.30031624100506304,-0.1893921065211296,0.3044411389153451
1733751861740181500,1.651181396484375,0.5065642052590846,-0.2524327923238277,0.11928661516504362
1733751861750157300,1.6611572265625,0.5340016627609729,-0.3168529497861862,0.1603572237599641
1733751861760133600,1.671133544921875,0.3032587241977453,-0.24520810176730154,0.2678879529459402
1733751861770109400,1.681109375,0.018538111731410026,-0.15608838733434677,0.5269723851786926
1733751861780084500,1.69108447265625,-0.24556582916378975,-0.14490882167220115,0.6319931043051182
1733751861790060500,1.701060546875,-0.3259422651708126,-0.172285488897562,0.6141744659546763
1733751861800036400,1.711036376953125,-0.14828502010703085,-0.35807226440310475,0.4877458152815699
1733751861810012400,1.721012451171875,-0.015284662893414496,-0.48867432830333707,0.36537798430658874
1733751861819988500,1.730988525390625,0.15225918443500994,-0.5476899963736533,0.40399708982985466
1733751861829963500,1.740963623046875,0.15235095437169074,-0.5796072296380996,0.5942674770228564
1733751861839939300,1.750939208984375,0.18542963263094425,-0.5535796389341354,0.6671903090883046
1733751861849915400,1.760915283203125,0.14149755192399024,-0.6284551394373178,0.41516120219454167
1733751861859891500,1.770891357421875,-0.09220540548861027,-0.5819225208431482,0.2180611151119694
1733751861869866500,1.780866455078125,-0.3322165231347084,-0.5079395852655172,0.2990829911493696
1733751861879842600,1.790842529296875,-0.38887773703336714,-0.4609247361123562,0.484874497628957
1733751861889818400,1.800818359375,-0.4107791877180338,-0.4523877939134836,0.46678902503587305
1733751861899794400,1.81079443359375,-0.13013970708549022,-0.5976981821238995,0.29834214618681
1733751861909770500,1.8207705078125,0.20365093349814414,-0.6939908569261432,0.057357543866056945
1733751861919745500,1.83074560546875,0.3384989644050598,-0.7257751114606857,-0.03225490425359458
1733751861929721300,1.840721435546875,0.3753413791120052,-0.7115402498811483,-0.004191990063432604
1733751861939697400,1.850697509765625,0.13105389932096004,-0.6058128072574734,-0.07185487404037266
1733751861949673500,1.860673583984375,-0.2714408596545458,-0.4686851409807801,-0.04887877986151725
1733751861959648300,1.870648193359375,-0.5700070421218871,-0.4140852435261011,0.043836529644299294
1733751861969624600,1.88062451171875,-0.6384300054848194,-0.3266527515277266,0.17604076804416252
1733751861979600400,1.890600341796875,-0.5936860238730907,-0.3209773362398147,0.34084669657498595
1733751861989576400,1.900576416015625,-0.4790881693124771,-0.3595136953830719,0.4562833035146817
1733751861999552500,1.910552490234375,-0.1855225716114044,-0.3852531167954206,0.47537872033528983
1733751862009527600,1.920527587890625,0.18788170195817946,-0.3884598038822412,0.31234252315703775
1733751862019503400,1.93050341796875,0.48119011002779005,-0.4092924562916159,0.13165420330166816
1733751862029479400,1.9404794921875,0.6149065065562724,-0.4570005484059453,0.004014258876349776
1733751862039455500,1.95045556640625,0.6757710173636674,-0.5106856691032647,-0.09016546062622219
1733751862049430300,1.96043017578125,0.5444897390276193,-0.5351666148871183,-0.14914463261105118
1733751862059406600,1.970406494140625,0.12459668600559234,-0.5004176653280854,-0.04083559426264837
1733751862069382400,1.98038232421875,-0.31208091307878494,-0.41719431545734403,0.09329175768690183
1733751862079358500,1.9903583984375,-0.5867734680056571,-0.3106371440112591,0.15875698548909276
1733751862089334500,2.00033447265625,-0.4997884275138378,-0.23861703293919562,0.17702643634695558
1733751862099309600,2.0103095703125,-0.15045008918642996,-0.14508914667516945,0.22643985280813647
1733751862109285400,2.020285400390625,0.11839841588735579,-0.11239186894893645,0.2601968869866803
1733751862119261400,2.030261474609375,0.2768126158207655,-0.19495792395472525,0.16432185307461766
1733751862129237500,2.040237548828125,0.38150165530741215,-0.2253352343007922,0.020610241830348968
1733751862139212300,2.05021240234375,0.3671311846494674,-0.30872809551954267,-0.07931715447874739
1733751862149188600,2.060188720703125,0.15592355216145515,-0.36043373283743857,0.010101597699709235
1733751862159164400,2.070164306640625,-0.10743044714927673,-0.329969913251698,0.16602792634014038
1733751862169140200,2.08014013671875,-0.42150691795945167,-0.25684593259096145,0.1528676717221737
1733751862179116500,2.090116455078125,-0.6232990718483925,-0.18740093270391225,0.1518801950547844
1733751862189091300,2.10009130859375,-0.6194307059824466,-0.13203881870508194,0.23754624363621696
1733751862199066600,2.110066650390625,-0.4615992743730545,-0.08517536072134971,0.38430414550751446
1733751862209042700,2.120042724609375,-0.2774351316332817,-0.045130058319866655,0.40219939275812355
1733751862219018800,2.130018798828125,-0.054332478690147394,-0.1463335937783122,0.16478457521554082
1733751862228993500,2.13999365234375,0.10157938303351402,-0.19938363144248722,-0.20861989928344263
1733751862238969900,2.149969970703125,0.1110696804344654,-0.2020689250037074,-0.39185795842055227
1733751862248945700,2.159945556640625,0.087062197381258,-0.2407467384442687,-0.19347577737187965
1733751862258921700,2.169921630859375,0.07729074495136737,-0.2750923678994179,0.27254001653548326
1733751862268897800,2.179897705078125,0.09233341578245162,-0.2967109099894762,0.46187578975949434
1733751862278872800,2.189872802734375,0.08403612755835056,-0.3372644541740417,0.27867570627890526
1733751862288848600,2.1998486328125,0.0554828177690506,-0.3252174580276012,0.09684766007019206
1733751862298824700,2.20982470703125,0.04639233334064483,-0.273003286665678,0.01171157191330567
1733751862308800800,2.21980078125,0.07209902152717113,-0.2069248406022787,0.21723398010544478
1733751862318775600,2.229775634765625,0.21823300108015536,-0.2031166804909706,0.37127328942287713
1733751862328751900,2.239751953125,0.3099906628012657,-0.353084831379354,0.242018420614209
1733751862338727700,2.249727783203125,0.41947687343657014,-0.4251674862936139,0.09727733845803886
1733751862348703700,2.259703857421875,0.3729027537882328,-0.5149433265477419,-0.1306330070277676
1733751862358679800,2.2696796875,0.18908055635392665,-0.5293997219234705,-0.2990855849652551
1733751862368654800,2.27965478515625,0.024371640190482137,-0.5053697347775101,-0.3384202000804245
1733751862378630700,2.289630615234375,-0.13257657884359358,-0.5206114353120327,-0.36155827988795936
1733751862388606700,2.299606689453125,-0.17555998052358626,-0.5218737103328108,-0.2297506943891756
1733751862398582800,2.309582763671875,-0.11896774020791052,-0.5306394928514957,-0.03878099982040003
1733751862408557600,2.3195576171875,-0.0891670607060194,-0.5379176671609283,0.3263373289030045
1733751862418534000,2.329533935546875,-0.08732640127539634,-0.5400149317011237,0.5365059737320989
1733751862428509700,2.339509765625,-0.18535422930717468,-0.4465668326750397,0.42414870117250825
1733751862438485500,2.349485595703125,-0.23279694848358629,-0.35504093388319014,0.25768205462154
1733751862448461800,2.3594619140625,-0.21069442226886748,-0.31020050615966316,0.23158494234532118
1733751862458436600,2.3694365234375,-0.11116320393681525,-0.33543928457349537,0.23640790552236138
1733751862468412700,2.37941259765625,0.09984043041169643,-0.3133195149630308,0.29974435940124095
1733751862478388700,2.389388671875,0.2555079619854688,-0.28200521602779627,0.3246952242517844
1733751862488364800,2.39936474609375,0.2742284445464611,-0.2860208814099431,0.2372302182232961
1733751862498339600,2.409339599609375,0.250093535721302,-0.2589697928771377,0.2036256894590333
1733751862508316000,2.41931591796875,0.20059739114642142,-0.2316647295832634,0.18416370434835552
1733751862518291700,2.429291748046875,0.15607669689655304,-0.2366530393898487,0.21896529741007834
1733751862528267500,2.439267578125,0.07299217097461223,-0.25608371604681013,0.22994835411943493
1733751862538243800,2.449243896484375,0.00005377601385116577,-0.3276636821359396,0.2087280175667256
1733751862548218600,2.459218505859375,-0.017442717710137366,-0.3826028945475817,0.17144790556225925
1733751862558194700,2.469194580078125,-0.05761515362262726,-0.4333089994341135,0.2509070075286552
1733751862568170800,2.479170654296875,-0.08721592663824558,-0.5262924035578966,0.3724926386173814
1733751862578146800,2.489146728515625,-0.09607435587644576,-0.6193219849109649,0.42715796599108724
1733751862588121600,2.49912158203125,-0.060927054649591444,-0.695457130086422,0.42926516740340737
1733751862598098000,2.509097900390625,-0.05859948848485946,-0.7424357388824224,0.333044352260977
1733751862608073700,2.51907373046875,-0.031359599381685255,-0.7413982125282287,0.3091300639165565
1733751862618049500,2.529049560546875,-0.05956394960284233,-0.726128747203946,0.35663287924975157
1733751862628025900,2.53902587890625,-0.1742506514906883,-0.6323708515763282,0.4337324855431914
1733751862638000600,2.549000732421875,-0.31215923901200293,-0.5638134481787681,0.5915162786185741
1733751862647976700,2.558976806640625,-0.37243805888593196,-0.5005535666674376,0.6394892322141676
1733751862657952800,2.568952880859375,-0.4465910903334617,-0.3861427591115236,0.6664245123475789
1733751862667928600,2.578928466796875,-0.36985564117729663,-0.3622042496412992,0.5214775506220758
1733751862677903600,2.588903564453125,-0.15583528935611246,-0.35572774710357186,0.5092228300090879
1733751862687879700,2.598879638671875,0.04456745600104332,-0.44777124002873897,0.44916101388670504
1733751862697855700,2.608855712890625,0.16773089433312416,-0.5326654457211494,0.2290786586128175
1733751862707831600,2.61883154296875,0.25358897662162777,-0.6226017372339964,-0.007883592856675385
1733751862717807900,2.628807861328125,0.37470191216468807,-0.6296732830554247,0.055088484689220785
1733751862727782700,2.63878271484375,0.5510574269801378,-0.5817424881011247,0.3962203548811376
1733751862737758700,2.6487587890625,0.5492874946981668,-0.5944505785048008,0.5641187878008932
1733751862747734800,2.65873486328125,0.4256570233762264,-0.5807739353299141,0.34728294016756117
1733751862757710600,2.668710693359375,0.21578443888425825,-0.637276159274578,-0.16881510937325656
1733751862767685600,2.678685546875,-0.007145195579528808,-0.6898270152449607,-0.4506009835619479
1733751862777661700,2.68866162109375,-0.1293137776553631,-0.7519640302062034,-0.4148524285063147
1733751862787637800,2.6986376953125,-0.08896306256651877,-0.7285065822511911,-0.0629405864290893
1733751862797613600,2.708613525390625,-0.015610241585969924,-0.7797638912796974,0.15950784038901328
1733751862807590000,2.71858984375,0.017134674674272536,-0.7930717011421918,-0.015808394506573675
1733751862817564700,2.728564697265625,0.002616319978237152,-0.6591244184672832,-0.25974706085994836
1733751862827540700,2.738540771484375,0.011834814700484276,-0.46881695066690443,-0.10547682886347175
1733751862837516800,2.748516845703125,-0.12095979080796242,-0.21600947981178759,0.3409786523915827
1733751862847492600,2.75849267578125,-0.23071721960008143,-0.0915156696587801,0.9934458049267529
1733751862857467600,2.768467529296875,-0.3020312282294035,-0.08863865291774273,1.414738641744107
1733751862867443700,2.778443603515625,-0.18074995038211344,-0.06035071606636047,1.2722636230900883
1733751862877419800,2.788419677734375,0.03143383366167545,-0.07993570650219917,0.7499537132970988
1733751862887395600,2.7983955078125,0.22843290805518626,-0.157454999512434,0.06297258900254965
1733751862897371600,2.80837158203125,0.3894885624080896,-0.1927566145181656,-0.5043197873331606
1733751862907346700,2.8183466796875,0.496263175997138,-0.16767068857848644,-0.7739550588704646
1733751862917322800,2.82832275390625,0.5482113898992538,-0.07374269708096981,-0.6154609255686402
1733751862927298800,2.838298828125,0.5296458056390285,0.034952070915699004,-0.3504157583005726
1733751862937274600,2.848274658203125,0.41070962961316104,0.10508008463084698,-0.16005670644342898
1733751862947249700,2.858249755859375,0.35428163994848727,0.2980406972885132,0.30712168323621153
1733751862957225700,2.868225830078125,0.2766857745707035,0.3549129235893488,0.7038325981132686
1733751862967201800,2.878201904296875,0.18387246631681917,0.2644599147260189,0.8476670685522257
1733751862977177600,2.888177490234375,0.08939619328677653,-0.0803045398145914,0.4039879201427102
1733751862987153700,2.898153564453125,0.07417582780122757,-0.41720659041702746,-0.25270634856820107
1733751862997128700,2.908128662109375,0.16541618764996527,-0.6201110894620419,-0.6561062396898866
1733751863007104500,2.9181044921875,0.17548048554658888,-0.7327963883996009,-0.722316787700355
1733751863017080800,2.928080810546875,0.011608604729175567,-0.7380173379182815,-0.49119215634316205
1733751863027056600,2.938056640625,-0.11952011339366435,-0.7682721909284591,-0.007877601507306098
1733751863037031700,2.94803173828125,-0.17513327954411506,-0.7903226946949958,0.5186535792425274
1733751863047007700,2.9580078125,-0.04570318203270435,-0.5780477252364158,1.2790218651786447
1733751863056983800,2.96798388671875,0.004820552024245262,-0.4472884249478578,1.7762021560207009
1733751863066959600,2.977959716796875,-0.10841478201150893,-0.5274620318591594,1.4771572501257062
1733751863076934700,2.9879345703125,-0.09991174208223819,-0.5504255588173866,0.8959978226095437
1733751863086910700,2.99791064453125,-0.08115209655463695,-0.5500912122964858,0.18675678958147762
1733751863096886500,3.007886474609375,-0.11970482231080531,-0.4768161327272653,-0.24945757590532303
1733751863106862800,3.01786279296875,-0.21777064426541326,-0.5048521406441927,-0.24427023639529943
1733751863116838700,3.027838623046875,-0.3451093224555254,-0.5568570531696081,0.14924275922328234
1733751863126813700,3.037813720703125,-0.2040454857736826,-0.5027466927975416,0.6182324361085891
1733751863136789800,3.047789794921875,-0.026737200278043747,-0.45776656434237956,0.8125076384961605
1733751863146765800,3.057765869140625,0.06675532241165638,-0.4608656994014978,1.0119044216811657
1733751863156741600,3.06774169921875,0.10667641391158103,-0.4876771339595318,0.9831745862811804
1733751863166716700,3.077716552734375,0.06327566360235214,-0.5154419237196445,0.706913759124279
1733751863176692700,3.087692626953125,0.11105448286533355,-0.46686289398968217,0.3421910969212651
1733751863186668500,3.09766845703125,0.1829781478255987,-0.319576237270236,0.1796735533222556
1733751863196645000,3.10764501953125,0.15293606078326702,-0.13796762423217296,0.2802045963466167
1733751863206621200,3.11762109375,-0.013372107270359992,-0.03244914818406105,0.36545769847929477
1733751863216596200,3.12759619140625,-0.15405542020201682,0.15062544575333595,0.30472675092369317
1733751863226572000,3.137572021484375,-0.05696048910617828,0.4411474379748106,0.4705658401608467
1733751863236548000,3.147548095703125,0.07720482023358345,0.7087491578578948,0.7724599980071186
1733751863246524200,3.157524169921875,0.2269458843678236,0.7639221790254116,1.124945402188599
1733751863256499000,3.1674990234375,0.4322416624635458,0.8340572070032358,1.237563773369789
1733751863266475000,3.17747509765625,0.5333288780659436,0.6573802051484584,0.713081341843307
1733751863276451000,3.187451171875,0.5713643019497394,0.2990373071104288,-0.01137976440936327
1733751863286427100,3.19742724609375,0.5912094046264886,0.055718964612483976,-0.5568786804795265
1733751863296403200,3.2074033203125,0.3642962534844875,-0.11028408301472663,-0.7530243529140949
1733751863306378200,3.217378173828125,0.10442454333156347,-0.21052491092085837,-0.5997539456099271
1733751863316354000,3.22735400390625,-0.25116028816998004,-0.23122575364410877,-0.21956337290108202
1733751863326330000,3.237330078125,-0.4054065547689795,-0.10812193654477596,0.2814952206790447
1733751863336306200,3.24730615234375,-0.5063298119813203,-0.04098550586104393,0.4697364035993814
1733751863346281000,3.257281005859375,-0.49932928556948897,-0.05303484009504318,0.35958442253172396
1733751863356257000,3.267257080078125,-0.3302957842051983,-0.17424071461856364,0.00933539910018444
1733751863366233000,3.277233154296875,0.030327918246388433,-0.2988800707221031,-0.2837742715269327
1733751863376209000,3.287208984375,0.22319500740170478,-0.4559732511848211,-0.39380993273854253
1733751863386185200,3.297185302734375,0.2961690581977367,-0.49298926889300343,-0.22529694811701773
1733751863396160000,3.307159912109375,0.2618289817005396,-0.4560995079129934,0.03113280488848686
1733751863406136000,3.317135986328125,0.13822949003875254,-0.4676034832239151,0.18544132306873798
1733751863416112000,3.327112060546875,0.12419804207682608,-0.297791106441617,0.42650984081327914
1733751863426088200,3.337088134765625,0.11333645632266998,-0.08318097203373909,0.6473141536861657
1733751863436063000,3.34706298828125,0.10398469060957431,-0.036764088773727416,0.6345405968308448
1733751863446039000,3.3570390625,0.0571820229023695,0.022643208962678907,0.3947837462067604
1733751863456015000,3.36701513671875,0.06325549759715796,0.0785135647445917,0.05594225197434425
1733751863465991000,3.376990966796875,-0.06910217779874801,0.06774784058034419,-0.42176293854713437
1733751863475966000,3.386966064453125,-0.22289076375812292,0.17200491839051246,-0.7239724459528922
1733751863485942000,3.39694189453125,-0.4300336310252547,0.377594710996747,-0.7364151634186505
1733751863495918000,3.40691796875,-0.673966598290205,0.56065819901824,-0.6621300300240516
1733751863505894100,3.41689404296875,-0.8226666289389133,0.5777221465438604,-0.5969792201995849
1733751863515870200,3.4268701171875,-0.7056935696795582,0.5234212320357561,-0.6377689112275838
1733751863525845000,3.436844970703125,-0.3857084593474865,0.49490240903794763,-0.6032838733017444
1733751863535821000,3.446821044921875,-0.06723170775175094,0.491548422434926,-0.5072521875232457
1733751863545797000,3.456797119140625,0.10943038879483938,0.37829029204547404,-0.3820306476175785
1733751863555773000,3.46677294921875,0.14687135391682385,0.22238953623771665,-0.26414251933991906
1733751863565748000,3.476748046875,0.061089551734924315,0.1645832439571619,-0.28967618904709813
1733751863575724000,3.48672412109375,-0.09705196873694658,0.2080354321926832,-0.3629880934953689
1733751863585700000,3.4967001953125,-0.29301994651705027,0.19751053104698657,-0.3068663933008909
1733751863595676200,3.50667626953125,-0.4230944794118404,0.15858078867197037,-0.36283085710704327
1733751863605652000,3.51665185546875,-0.48485477001518007,0.17734803298413754,-0.3814280055493116
1733751863615627000,3.526626953125,-0.59249359921813,0.2019271784454584,-0.3658610185831785
1733751863625603000,3.53660302734375,-0.7078992630302906,0.18108546594679353,-0.33383564876914024
1733751863635579100,3.5465791015625,-0.7399848385989666,0.14869652351737023,-0.23296470626592636
1733751863645555000,3.556554931640625,-0.6518576423346996,0.05694879866838455,-0.17744272553026674
1733751863655530000,3.566530029296875,-0.5600140558958053,-0.033358079722523686,-0.19409049347043036
1733751863665506000,3.576506103515625,-0.44445539347901936,-0.09643734396994114,-0.2563642865538597
1733751863675482000,3.586482177734375,-0.20446809509992597,-0.191614458745718,-0.4478682706624269
1733751863685458200,3.596458251953125,0.010101707297563552,-0.29765783545076846,-0.6833055045217276
1733751863695434000,3.60643408203125,0.12711363726258276,-0.34635201599299903,-0.7458224587112665
1733751863705409000,3.616408935546875,0.1662143522903323,-0.34700434242188927,-0.6331675549119711
1733751863715385000,3.626385009765625,-0.003891892872005701,-0.36403380315601824,-0.5062964942336082
1733751863725361200,3.636361083984375,-0.12334610142260789,-0.3693161274731159,-0.4249561816304922
1733751863735337000,3.6463369140625,-0.33207419205456973,-0.3779910168379545,-0.37850714966654775
1733751863745312000,3.65631201171875,-0.5701800606012344,-0.29195582441687584,-0.26317279752492906
1733751863755288000,3.6662880859375,-0.6246477099783718,-0.15397124904990195,-0.11885960365831852
1733751863765264100,3.67626416015625,-0.5564752142451703,-0.16361176857650278,-0.15628303312361239
1733751863775240200,3.686240234375,-0.35915830607414245,-0.12209259423017502,-0.36055005269348617
1733751863785215200,3.69621533203125,-0.33720717102885245,-0.04743804300129413,-0.44382805536091324
1733751863795191000,3.70619091796875,-0.4266097940564155,-0.035651159095764155,-0.4658493330329656
1733751863805166800,3.716166748046875,-0.5799928679548204,0.05721183351874351,-0.28578035065233703
1733751863815143200,3.72614306640625,-0.7517546252392232,0.22256080115139484,0.07429740835428238
1733751863825119000,3.736118896484375,-0.7182806640520691,0.348258141875267,0.3797983585208654
1733751863835094000,3.746093994140625,-0.6775133309863507,0.458259900817275,0.5928174243450165
1733751863845070000,3.756070068359375,-0.6379625341035425,0.506690461987257,0.49930152077972884
1733751863855046100,3.766046142578125,-0.5566416568532586,0.476729038965702,0.20720599563121794
1733751863865022200,3.776022216796875,-0.45708808055892586,0.37478140714168545,-0.04310205962359905
1733751863874997200,3.785997314453125,-0.30700492498874665,0.21404957791566848,-0.34299218417108057
1733751863884973000,3.79597314453125,-0.17734277228713036,0.031818449065089224,-0.6147288119018077
1733751863894948900,3.805948974609375,0.023509178142249582,-0.048882396590709684,-0.6971072353810072
1733751863904925200,3.81592529296875,0.22064430000558494,-0.09612754736840724,-0.7011480352044105
1733751863914901000,3.82590087890625,0.3015256167948246,-0.10123860677182674,-0.5119716172605753
1733751863924876000,3.8358759765625,0.20369170389994978,-0.09913023631572723,-0.2741395972192287
1733751863934852000,3.84585205078125,0.14322539862990377,-0.19153028759360313,-0.16249766985476016
1733751863944828200,3.855828125,0.12117599084191023,-0.29533611450493336,-0.07923077310323715
1733751863954804200,3.86580419921875,0.08895246810726821,-0.33695874922573565,-0.035302784049510955
1733751863964779300,3.875779296875,0.03556340774707496,-0.39889001248180866,-0.10614859064519405
1733751863974755000,3.885755126953125,-0.08282908985614776,-0.4055494703710079,-0.11098375571668147
1733751863984731000,3.89573095703125,-0.1837443098925054,-0.36046529701948166,0.1156225214332342
1733751863994707200,3.905707275390625,-0.23020232888050376,-0.28989304666817184,0.3287053001433611
1733751864004682000,3.915681884765625,-0.11786891212053596,-0.25522622243463994,0.4616711705654859
1733751864014658000,3.925657958984375,-0.06388349330238997,-0.28082185146212574,0.34614860237538814
1733751864024634000,3.935634033203125,-0.03282558028101921,-0.4171469691842794,0.0893716433674097
1733751864034610000,3.94560986328125,0.07365231538377702,-0.44870413696467876,-0.010811316871643066
1733751864044586200,3.955586181640625,0.21117380328364668,-0.2239864500403404,0.03837386205792427
1733751864054561000,3.96556103515625,0.3940975175082683,0.1643336531102657,0.03725800977051258
1733751864064537000,3.975537109375,0.39985257390365003,0.34913550923168657,0.0059796589314937585
1733751864074513000,3.985512939453125,0.18624847473315895,0.18960370344519614,-0.002921440404653549
1733751864084489200,3.9954892578125,0.09054587477855384,0.08409867140054703,0.02391279050707817
1733751864094464000,4.005464111328125,0.0966693260949105,0.03550093697011471,0.15319617302417754
1733751864104440000,4.015440185546875,0.1821370208263397,-0.03268704859316349,0.2764952204346657
1733751864114416000,4.025416015625,0.23726912546157836,-0.0986526819318533,0.37207623983621596
1733751864124392000,4.035391845703125,0.2996773220470175,-0.11416238575279712,0.42492695553600784
1733751864134368300,4.0453681640625,0.2938193532664329,-0.07155190903842448,0.49392801104784007
1733751864144343000,4.055343017578125,0.20680380803849546,0.035603812822699546,0.4753618422657251
1733751864154319000,4.065319091796875,0.06332593248486519,0.18922142612934112,0.30900398985147476
1733751864164295000,4.075294921875,-0.14664715323951094,0.3236369108378887,0.042997430205345154
1733751864174271200,4.085271240234375,-0.3726116253545508,0.4104138615369797,-0.1362976451933384
1733751864184246000,4.09524609375,-0.4785539528379216,0.4191869505792856,-0.06112286948263645
1733751864194222000,4.10522216796875,-0.3208440287163481,0.48845162546336646,0.11764496717154979
1733751864204198000,4.115197998046875,-0.07592590460525825,0.5673100581228733,0.23897709842324255
1733751864214174000,4.125174072265625,0.14251812714338302,0.5031289701133966,0.20470365742146968
1733751864224149000,4.13514892578125,0.31302082427740097,0.38069033892452714,0.14378887773156165
1733751864234124800,4.145124755859375,0.4059118739426136,0.2432446927398443,-0.049123219609260554
1733751864244101000,4.15510107421875,0.6374819109797477,0.029713585740327834,-0.24738486128449438
1733751864254077000,4.165076904296875,0.36599838122725487,-0.031387656432390214,-0.40367724675834177
1733751864264053000,4.175052978515625,0.07369359724223613,0.10075871430039406,-0.46501697386205193
1733751864274028000,4.185028076171875,-0.10590542953908443,0.28764789808988567,-0.3023217356085777
1733751864284004000,4.195004150390625,-0.24342121835052966,0.4496949015676975,-0.03096680067181587
1733751864293980000,4.20497998046875,-0.33456630113124847,0.4762263501405716,0.16982114461064338
1733751864303956000,4.2149560546875,-0.2051800244952552,0.39720892752707004,0.3657458677709102
1733751864313931000,4.224930908203125,-0.020094675257336346,0.24350275915414094,0.42759412891864773
1733751864323906800,4.23490673828125,0.1572954433028586,0.07432341957837343,0.24771336258649826
1733751864333883100,4.244883056640625,0.43215982939898967,-0.02135989115387201,0.019719430470466613
1733751864343859000,4.25485888671875,0.41523558260500426,-0.05502046095430851,-0.36497780600786206
1733751864353834800,4.264834716796875,0.24619652828276156,-0.0570969749674201,-0.6605769553631544
1733751864363810000,4.27481005859375,0.055469373765587804,0.1529293387815356,-0.7859826196640729
1733751864373785900,4.284785888671875,-0.11748773991637862,0.45685529471635816,-0.5332236641258001
1733751864383762000,4.294761962890625,-0.2793079397678375,0.7396238963320851,-0.30529987463653085
1733751864393738000,4.304738037109375,-0.1841109512478113,0.7292781511455774,-0.10880115098059177
1733751864403713000,4.314713134765625,-0.23547519124951213,0.6732417911469936,-0.07368307584822177
1733751864413688800,4.324688720703125,0.03982409739885479,0.42723377117365596,0.12931085504591464
1733751864423665200,4.3346650390625,0.06585983487665653,0.14556290166676045,0.10842238079607486
1733751864433641000,4.344640869140625,0.4589069665491581,-0.009347966320812702,0.29940146424770353
1733751864443616000,4.354615966796875,0.5145008800098673,-0.29130495929270983,0.45355333056151864
1733751864453592000,4.364592041015625,0.7018582293003797,-0.5597603733956813,0.3722399059653282
1733751864463568000,4.37456787109375,0.785711986029148,-0.7755559181958437,0.24784312644600867
1733751864473544000,4.3845439453125,0.7167921790599823,-0.8100365722075105,0.24534429536759852
1733751864483520000,4.39452001953125,0.5877127946823835,-0.7343184834003448,0.24950784478783605
1733751864493495000,4.4044951171875,0.24619302115142344,-0.5932680907219648,0.2314145542144775
1733751864503470800,4.414470947265625,-0.16594225735068321,-0.39918578055799003,0.3081032416194677
1733751864513447200,4.424447265625,-0.4417477054229006,-0.15157237121462822,0.3865530934780836
1733751864523423000,4.434423095703125,-0.5881990803619846,-0.020862755286693572,0.4767191020935774
1733751864533398000,4.44439794921875,-0.5165519307881593,0.038550095407664776,0.7068868711173534
1733751864543374000,4.4543740234375,-0.18083236796855925,-0.01601911464780569,0.9012760552734136
1733751864553350000,4.464349853515625,0.23500293409526346,-0.3136643828779459,0.7825643356531858
1733751864563326000,4.474325927734375,0.6062889003366232,-0.5672220875784755,0.6145084471493959
1733751864573302000,4.484302001953125,0.7502981428205967,-0.6938815513327717,0.2335813768595457
1733751864583277000,4.494277099609375,0.7097194641947746,-0.7562377620026469,-0.00010930559337139129
1733751864593252900,4.5042529296875,0.4940747260421514,-0.7144649051561951,0.01478957285284996
1733751864603229000,4.51422900390625,0.3657826926499605,-0.5432499680995941,0.13884089993536472
1733751864613205000,4.524205078125,0.4069716121286154,-0.364379255592823,0.2704576938360929
1733751864623180000,4.534179931640625,0.32154373795092106,-0.12788929781019687,0.19566285735368727
1733751864633156000,4.544156005859375,0.07589549120068549,0.017381635172665118,0.054310851380228994
1733751864643132000,4.5541318359375,-0.02167352368030697,0.030380232955515382,0.05379004237651824
1733751864653108000,4.56410791015625,0.1048743694582954,0.1670925964295864,0.09218903887569904
1733751864663082800,4.574082763671875,0.21213581671621648,0.23430121556669473,0.0799953277349472
1733751864673059000,4.58405908203125,0.21095979520678518,0.1940440239802003,-0.06075988138914108
1733751864683035000,4.594034912109375,0.18975567913651464,0.1715650656685233,-0.22198855422139166
1733751864693011000,4.604010986328125,0.11538922413401305,0.17208441336750982,-0.3901590090155601
1733751864702987000,4.613987060546875,0.24419680583290754,0.3164499219432473,-0.42491000440120696
1733751864712961800,4.6239619140625,0.3859417201140895,0.45998979334980244,-0.43640930353701113
1733751864722938000,4.633938232421875,0.3448293364703655,0.4681377362310886,-0.36345804909467694
1733751864732914000,4.643913818359375,0.31658048952035606,0.5092085822880268,-0.12456745991110801
1733751864742890000,4.653889892578125,0.2779156816918403,0.6476832792595029,0.3082487875699997
1733751864752864800,4.66386474609375,0.3218769884932786,0.7175237082049251,0.6375929701387882
1733751864762841000,4.673841064453125,0.37396599910557266,0.6541615353628992,0.6800970638692379
1733751864772817000,4.68381689453125,0.3888292217165231,0.5263818354070187,0.723935621073842
1733751864782793000,4.69379296875,0.47728199667334553,0.4946849668949842,0.7912275345802307
1733751864792768000,4.70376806640625,0.6177531281590461,0.39149493379443884,0.7005459776580333
1733751864802743800,4.713743896484375,0.5846018230549991,0.4697039626345038,0.6981149511188268
1733751864812720000,4.72372021484375,0.27292335329726336,0.5366472088336944,0.5760632734209299
1733751864822696000,4.733696044921875,0.12548384410366414,0.3408639399707317,0.0916290669053793
1733751864832672000,4.743672119140625,0.1325374158769846,0.16732494388073682,-0.47750820664465427
1733751864842646800,4.753646728515625,0.036389410242438316,0.17436989395618438,-0.7000064639538526
1733751864852623000,4.763623046875,0.04234758799448609,0.22686229773759842,-0.3972112656146288
1733751864862599000,4.773598876953125,0.22334011496081946,0.3093620095089078,0.1795230389356613
1733751864872575000,4.783574951171875,0.5945769813634455,0.45739890007376666,0.7123755316615105
1733751864882550000,4.793550048828125,1.0063025100208818,0.3970636738374829,0.9311837022811174
1733751864892525800,4.80352587890625,1.240980888336897,0.18302023340165613,0.7858207071006298
1733751864902502100,4.813502197265625,1.3535276555866003,-0.13527531640827656,0.44672962202131744
1733751864912478000,4.82347802734375,1.4175740113005042,-0.3228897457323968,0.18483517386913298
1733751864922453000,4.833452880859375,1.2460120143719018,-0.2973112139701843,-0.11336743598282337
1733751864932428800,4.8434287109375,0.7281894791260362,-0.1802006459362805,-0.39699733060300346
1733751864942404900,4.85340478515625,0.15317425345331429,-0.21041706663221119,-0.9866700271815061
1733751864952381000,4.863380859375,-0.2071913825839758,-0.09713993928134441,-1.2155454183071852
1733751864962357000,4.87335693359375,-0.3520481818079948,0.09164572577923535,-0.8580980078041553
1733751864972332000,4.88333203125,-0.1466650176897645,0.14842808183953166,-0.516895629659295
1733751864982307800,4.893307861328125,0.3438318498656153,0.175451405582577,-0.25762977644503116
1733751864992284200,4.9032841796875,0.8024769506081938,0.15590630876570938,-0.06771101570129394
1733751865002260000,4.913260009765625,0.9035022068902849,0.16962737560421226,0.16035422808527947
1733751865012235000,4.923235107421875,0.7370420631453395,0.09552958147525786,0.17874036412537098
1733751865022210800,4.9332109375,0.3936275619089603,-0.0030536884821951386,0.12900281201004982
1733751865032187000,4.943186767578125,-0.08156769161820411,-0.2186667163223028,0.07821662762463093
1733751865042163000,4.953162841796875,-0.406716760584712,-0.4349395232453942,0.13751578881144522
1733751865052139000,4.963138916015625,-0.7390282685264945,-0.5917988949522376,-0.12712766578793525
1733751865062114000,4.973114013671875,-0.9588879940256476,-0.5633372820343822,-0.4931751468539238
1733751865072089900,4.98308984375,-1.0735893089607358,-0.22651005023382603,-0.4843406830132007
1733751865082066200,4.993066162109375,-0.9300409619867801,0.1606285880472511,-0.19073942947685718
1733751865092042000,5.0030419921875,-0.5549187785834073,0.13553323669210077,-0.22538462640047072
1733751865102017000,5.01301708984375,0.066856736959517,-0.1457805630054325,-0.383171049824357
1733751865111992800,5.022992919921875,0.522772412738204,-0.3174390060458332,-0.5788017584741115
1733751865121969000,5.032968994140625,0.7768643704459071,-0.40824886552281675,-0.7084919682264328
1733751865131945000,5.042945068359375,0.7251397361665963,-0.44249461480006574,-0.5313134465903043
1733751865141919700,5.052919677734375,0.5810182654798031,-0.39302718486301597,-0.09265022664666175
1733751865151896000,5.06289599609375,0.41432139036953447,-0.2587259011186659,0.22640344805419443
1733751865161872000,5.072871826171875,0.24007190792262553,-0.1371368359638378,0.3601964169502258
1733751865171848000,5.082847900390625,0.1861483022943139,-0.12610544660072773,0.27476035946607585
1733751865181823000,5.092822998046875,0.11963204933553934,-0.1518180896040052,0.16286358055770397
1733751865191799000,5.102799072265625,-0.06413461851924658,-0.1558536652630195,0.058143561410903925
1733751865201775600,5.112775634765625,-0.3206140558853745,-0.23161705451663583,-0.17376666736602783
1733751865211751400,5.12275146484375,-0.4212485592842102,-0.19808714362485333,-0.22453882322609423
1733751865221727500,5.1327275390625,-0.45946986112892624,-0.10126463626222684,-0.013409516671299934
1733751865231702500,5.14270263671875,-0.3057636927559972,-0.0655927905714605,0.16897417239248752
1733751865241678600,5.1526787109375,0.04571136533915996,0.016465652838908135,0.18122049050331115
1733751865251654700,5.162654541015625,0.2505862876743078,0.14593352507743984,0.1442144096672535
1733751865261630500,5.17263037109375,0.24719343036562202,0.4162848724622279,0.18073884446620941
1733751865271605500,5.18260546875,0.025305413909256457,0.4762212355740368,0.15351824458539484
1733751865281581600,5.19258154296875,-0.36412381952703,0.408597605895251,0.14211656060516833
1733751865291557600,5.2025576171875,-0.780217772527039,0.37057087677456435,0.13945406339764593
1733751865301533400,5.212533447265625,-1.1388935557812452,0.47235663256775584,0.4345458477526903
1733751865311508700,5.2225087890625,-1.2240718391120433,0.6625635991357266,0.960000631442666
1733751865321484500,5.232484619140625,-1.1619406693696974,0.8985121435180305,1.4876473722189665
1733751865331460400,5.24246044921875,-0.8631155437052249,1.0298866530954838,1.6362977185070513
1733751865341436700,5.252436767578125,-0.38834260724335906,0.7225866906829178,1.1963000350892543
1733751865351412500,5.26241259765625,0.04743219778239727,0.38298316256944087,0.48897594159841534
1733751865361387500,5.272387451171875,0.3042901130720973,0.14019984026364982,-0.28451719884872434
1733751865371363600,5.282363525390625,0.35257746637910603,-0.04672887181863188,-0.6584148088932037
1733751865381339600,5.292339599609375,0.043458325715363025,-0.09688574532456695,-0.5684048676222563
1733751865391315500,5.3023154296875,-0.37786709819734093,-0.013652348983846605,-0.34235856244266033
1733751865401290800,5.312290771484375,-0.5706836262091994,0.01583988562338054,-0.07434592367112636
1733751865411266600,5.3222666015625,-0.4673936398655176,-0.12037665715776383,0.25264088211655616
1733751865421242400,5.332242431640625,-0.3078194562420249,-0.41341194737441833,0.4182546381652355
1733751865431218700,5.34221875,-0.003940262058377266,-0.5802844347799196,0.6400315954625606
1733751865441193500,5.352193359375,0.2873673275828361,-0.5932972072185948,0.8894587762296199
1733751865451169500,5.36216943359375,0.5043897838294505,-0.3936654827665537,0.9995090504884719
1733751865461145600,5.3721455078125,0.6011480303168296,-0.1569116133507341,0.846380682003498
1733751865471121700,5.38212158203125,0.5588260151550174,-0.001126885138079524,0.5454822571963072
1733751865481097500,5.392097412109375,0.26248890691399573,0.021077238287590443,0.14250000696480272
1733751865491072800,5.40207275390625,-0.07201952655017375,0.025764994245022533,-0.14286124149262905
1733751865501048600,5.412048583984375,-0.5404647212952375,0.01055778050199151,-0.17387480391561985
1733751865511024400,5.4220244140625,-0.7779647329032421,-0.017133432565256953,-0.11359481499791145
1733751865521000700,5.432000732421875,-0.7595718748614192,-0.08151976082324981,0.008311316749453544
1733751865530975500,5.4419755859375,-0.49254707808345555,-0.14336451483964918,0.06859948897361755
1733751865540951600,5.45195166015625,-0.04387830469310283,-0.30893180139809845,0.05405950696766376
1733751865550927600,5.461927734375,0.5011863116130233,-0.5038461054068059,-0.07253741294443607
1733751865560903400,5.4719033203125,0.7825120209440588,-0.5661162452284246,-0.21280688437819478
1733751865570878500,5.48187841796875,0.7246461074307561,-0.44705541990958153,-0.36636429193019865
1733751865580854500,5.4918544921875,0.48709699598401784,-0.08977262538373469,-0.5319534980595112
1733751865590830600,5.50183056640625,0.09886574016064405,0.45424861934930083,-0.5801286231637001
1733751865600806400,5.511806396484375,-0.30735330003499983,0.7043365290474146,-0.6267290462970734
1733751865610782700,5.52178271484375,-0.2420733108729124,0.5605837455425411,-0.6249532687962055
1733751865620757500,5.531757568359375,0.3012158201932907,0.29496443164832886,-0.5539513948559761
1733751865630733600,5.541733642578125,0.6389502299666404,0.12141330672912298,-0.2894043863683939
1733751865640709600,5.551709716796875,0.509284570133686,-0.09314297859966754,0.05043079507648945
1733751865650685400,5.561685546875,0.230108147791028,-0.23852175587117672,0.41979543786644935
1733751865660660500,5.571660400390625,0.0908311945259571,-0.2817584747251123,0.592521656268835
1733751865670636500,5.581636474609375,-0.0958066448509693,-0.12293876273073255,0.4251087418437004
1733751865680612600,5.591612548828125,-0.3254401608675718,0.1576931921824813,0.2087023716688156
1733751865690588400,5.60158837890625,-0.5232768551290035,0.4867777009017765,0.1353910517424345
1733751865700563700,5.611563720703125,-0.7103890340194106,0.7698879555620253,0.107056937661767
1733751865710539500,5.62153955078125,-0.5764987422287464,0.5597746941819787,0.009176993668079376
1733751865720515600,5.631515625,-0.17115706938952208,0.1817109043687582,0.11422142246365546
1733751865730491600,5.64149169921875,-0.04908025725036859,0.07734671292230487,0.3727589614033699
1733751865740467500,5.651467529296875,-0.3653989540293813,0.28537527698278425,0.5312164159566164
1733751865750442500,5.6614423828125,-0.77886372756958,0.4238802229620516,0.5432055444359779
1733751865760418600,5.67141845703125,-0.9331333750441669,0.36056919578537344,0.47627837258875366
1733751865770394600,5.68139453125,-0.8423425125285983,0.4147510139584541,0.46908115456104277
1733751865780370400,5.691370361328125,-0.6154682320922613,0.4592771150358021,0.2138689606517553
1733751865790345700,5.701345703125,-0.4979974524438381,0.30891148926243184,-0.2118260566473007
1733751865800321500,5.711321533203125,-0.5056061738818883,0.009965075305849313,-0.5405465543597936
1733751865810297600,5.721297607421875,-0.3676163378179073,-0.2858946246817708,-0.5666209068149328
1733751865820273700,5.731273681640625,-0.08558774091452359,-0.419712143497169,-0.16058160710036753
1733751865830248700,5.741248779296875,0.2583253574937582,-0.42968963989317416,0.32483868784308434
1733751865840224500,5.751224609375,0.6688251437485218,-0.36662425804063675,0.5129559521228074
1733751865850200600,5.76120068359375,0.9822919582277536,-0.21601167176887393,0.2441249827057123
1733751865860176600,5.7711767578125,1.0732590540930629,0.04036123648285866,-0.06763970403075217
1733751865870151400,5.7811513671875,0.994695220465958,0.05823708491325378,-0.36848318378031253
1733751865880127700,5.791127685546875,0.6424573613047599,-0.09536503856331109,-0.4849994391828775
1733751865890103600,5.801103515625,0.30685937903821464,-0.11656199424043297,-0.4088566952228546
1733751865900079600,5.81107958984375,0.14821078582704067,-0.08832359561920165,-0.2889128034591675
1733751865910055700,5.8210556640625,0.006170213067531585,-0.2357430849380791,-0.2209849301367998
1733751865920030700,5.83103076171875,0.004236030134558678,-0.354305459215492,-0.026133389165997504
1733751865930006500,5.841006591796875,0.020191724157333373,-0.3078143416754901,0.3723573948651552
1733751865939982600,5.850982666015625,-0.00009995324313640594,-0.28381635710299014,0.6614584143728017
1733751865949958700,5.860958740234375,0.06201484988629818,-0.2842813442662358,0.6238631354719401
1733751865959933400,5.870933349609375,0.15777181037664412,-0.41408100574240086,0.44500002174973485
1733751865969909800,5.88090966796875,0.08865589631348848,-0.5172673855811357,0.3364110522150993
1733751865979885600,5.890885498046875,-0.049963177564740176,-0.4803082126267254,0.29300562573075295
1733751865989861400,5.900861328125,-0.30929625079631806,-0.2737133346311748,0.34820845751464363
1733751865999837700,5.910837646484375,-0.5959805645510554,-0.04051920352354645,0.38714579867422577
1733751866009812500,5.9208125,-0.6974728538230062,0.0996931308954954,0.31553485292494293
1733751866019788500,5.93078857421875,-0.572457942405343,0.10887377782538532,0.2506289577722549
1733751866029764600,5.9407646484375,-0.26972324208170173,0.09785232533439993,0.3407219011515379
1733751866039740700,5.95074072265625,0.10349895291924475,0.08138912018090486,0.5420569589227437
1733751866049715500,5.960715576171875,0.3457230704396963,0.11898819847404957,0.7903302934795617
1733751866059691800,5.97069189453125,0.402846933414042,0.16169541356116532,0.7992495129942894
1733751866069667600,5.98066748046875,0.33888591789603234,0.14055924816057086,0.7171943301200866
1733751866079643400,5.990643310546875,0.19889818601310252,0.29447920541465283,0.6193944656252861
1733751866089618700,6.00061865234375,-0.024209143105149267,0.38042978829219937,0.4261059361875057
1733751866099594500,6.010594482421875,-0.07629998034834862,0.21605112699642776,0.18165479026734827
1733751866109570600,6.020570556640625,-0.005196984121203422,-0.0281586113832891,-0.06076981826126575
1733751866119546600,6.030546630859375,0.03472381511777639,-0.35717648460716006,-0.11636135710179805
1733751866129521700,6.040521728515625,-0.01024520742148161,-0.5597790780961514,0.07534428705871105
1733751866139497500,6.05049755859375,-0.009650748659670352,-0.637175621509552,0.3952490256309509
1733751866149473800,6.060473876953125,-0.009052782766520976,-0.47170638849809765,0.6221849731266498
1733751866159449600,6.07044970703125,0.0006873977422714233,-0.17855477842539547,0.6695815150737762
1733751866169425400,6.08042529296875,-0.05809563061594963,0.0320984350502491,0.4151256924897432
1733751866179400700,6.090400634765625,-0.00842997469305992,0.1225103812508285,-0.053196168136596673
1733751866189376500,6.10037646484375,0.05286006805002689,0.03223039086684584,-0.5790501802772283
1733751866199351800,6.110351806640625,0.014392097967863083,-0.1873864657871425,-1.1008499485909937
1733751866209327900,6.120327880859375,-0.06615647973567247,-0.326992870202288,-1.2368915731966494
1733751866219303000,6.130302978515625,-0.35648294938504693,-0.2644398948512971,-0.7126993567883968
1733751866229278700,6.14027880859375,-0.47903614686429496,-0.11683321239724755,-0.15581073943674564
1733751866239254800,6.1502548828125,-0.2328866725936532,-0.1053429002854973,0.05829612162411212
1733751866249230800,6.16023095703125,0.1909893125846982,-0.2825734443698078,0.032635026144981386
1733751866259206000,6.170205810546875,0.5407952684238553,-0.4813567718315869,-0.017564298263192175
1733751866269181700,6.180181640625,0.5566863727778196,-0.5814375868704169,0.03631400691866875
1733751866279157800,6.19015771484375,0.2799167193159461,-0.48249593192934986,0.15818448283076286
1733751866289133800,6.2001337890625,-0.09211042068153619,-0.3174828451875597,0.21406302191913126
1733751866299108900,6.21010888671875,-0.3621019583106041,-0.07763890080191195,0.13017711648643016
1733751866309085000,6.2200849609375,-0.4304062637299299,0.030748847072198986,-0.015203998872637748
1733751866319060700,6.230060791015625,-0.2835074372842908,-0.006067775606364011,-0.07968962278664111
1733751866329036800,6.240036865234375,-0.03101005529165268,-0.05976736322045326,-0.009025017976760863
1733751866339012900,6.250012939453125,0.2194707261815667,-0.09540778172649443,0.09463234037458897
1733751866348988000,6.25998779296875,0.3400812651604414,0.00899535349085927,0.16661504204571245
1733751866358963700,6.269963623046875,0.2404977321192622,0.15443967027924954,0.2208276937484741
1733751866368939800,6.279939697265625,0.005380231733620166,0.250271668767184,0.2691857742041349
1733751866378915800,6.289915771484375,-0.42652065446823834,0.24478125465735792,0.35553310131430627
1733751866388890600,6.299890625,-0.7534165671020746,0.19736272007413208,0.5102303265511989
1733751866398867000,6.309866943359375,-0.9445487952888011,0.06029460196495056,0.5700941358834505
1733751866408842800,6.3198427734375,-0.8930389728039503,-0.007559329338371753,0.5310930818378925
1733751866418818800,6.32981884765625,-0.6824728530898689,0.18445348107516765,0.5991325988411903
1733751866428793900,6.3397939453125,-0.5239820807889104,0.24473737898301332,0.4621867188721895
1733751866438770000,6.34977001953125,-0.25399872646629806,-0.027181583044677972,0.08581833480000495
1733751866448745700,6.359745849609375,0.00440583374351263,-0.278901587456651,-0.223925659763813
1733751866458721800,6.3697216796875,0.13309008132368325,-0.3928383842926472,-0.3657476213365793
1733751866468697900,6.37969775390625,0.2405772270962596,-0.44394021049849686,-0.43638767622709274
1733751866478672600,6.389672607421875,0.3667866089954972,-0.3764544549204409,-0.4862602528989315
1733751866488649000,6.39964892578125,0.314411986374855,-0.20914485473930836,-0.5143319166511297
1733751866498624800,6.409624755859375,0.17613515006303787,-0.11818733041994273,-0.6226818167328834
1733751866508600800,6.419600830078125,0.13150222761034966,-0.26650654505752025,-0.8597177179604768
1733751866518575900,6.429575927734375,0.27127134830653665,-0.456441782012023,-0.8338397648602723
1733751866528552000,6.439552001953125,0.26420447866022584,-0.5033263923816382,-0.5410673633635044
1733751866538527700,6.44952783203125,0.07059241635650396,-0.2889175709658302,-0.17403262482583523
1733751866548503800,6.45950390625,-0.06712035633176565,0.11905704419286921,0.07932078947424888
1733751866558478800,6.469478759765625,-0.0841430950641632,0.3911333704730496,0.21640753921866415
1733751866568454700,6.47945458984375,0.009325169967114924,0.30216314751338214,0.2807102077811956
1733751866578431000,6.489430908203125,0.1728597816541791,0.22392158637689424,0.38005087197721005
1733751866588406800,6.49940673828125,0.29738311016261576,0.12453622452262789,0.39825639075338837
1733751866598381800,6.5093818359375,0.2916153404161334,-0.12396816971055231,0.27720190739929673
1733751866608358000,6.51935791015625,0.23200287549644708,-0.36143059838768093,0.08657178351581096
1733751866618333700,6.529333740234375,0.148357500821352,-0.566750268815644,-0.08021160083413123
1733751866628309800,6.539309814453125,0.09455752157270908,-0.471209179565683,-0.02263970183134079
1733751866638285800,6.549285888671875,-0.030354513992369173,-0.2117192352719605,0.1890963384449482
1733751866648260900,6.5592607421875,-0.21497370702326296,0.08622770105218515,0.5022469265818595
1733751866658236700,6.569236572265625,-0.2924620203733444,0.2846355097324587,0.7010194403886795
1733751866668213000,6.579212890625,-0.16138503243774174,0.24548880013851448,0.6021902328461408
1733751866678188800,6.589188720703125,0.1374785255409777,0.028304559192620215,0.2974900776684284
1733751866688163800,6.599163818359375,0.48769613092094655,-0.14744919033739715,0.024922844332456586
1733751866698140000,6.609139892578125,0.5784658045180141,-0.15432356961891056,-0.1703425381362438
1733751866708115700,6.61911572265625,0.5094448752619326,0.07600052247773856,-0.29804011276662346
1733751866718091800,6.629091796875,0.2209586266517639,0.36102494019623843,-0.32831250143349167
1733751866728066800,6.63906689453125,-0.08240531148612498,0.62860492317155,-0.502757214191556
1733751866738043000,6.64904296875,-0.37471827877759933,0.8175134839594363,-0.6674205376476049
1733751866748018700,6.659018798828125,-0.5741705915421247,0.6552315757472068,-0.5890525188535451
1733751866757995000,6.6689951171875,-0.39489407471343874,0.2523374421905726,-0.17719138111770152
1733751866767970800,6.678970703125,0.21943609325960278,-0.04317578244693577,0.10586509752869605
1733751866777945900,6.68894580078125,0.60415013474226,-0.17705452993027865,0.2219482222110033
1733751866787922000,6.698921875,0.5911188037335873,-0.2205900856003165,0.1869032123148441
1733751866797897700,6.708897705078125,0.46532910855114457,-0.13174721534736453,0.10674129584133625
1733751866807873800,6.718873779296875,0.2756478098250925,-0.15830854760184884,-0.05289397031962871
1733751866817848800,6.728848876953125,0.1225198797315359,-0.13532573142126203,-0.05245324081480503
1733751866827825000,6.738824951171875,0.06033844110667705,-0.1381791480910033,-0.005738835912942886
1733751866837800700,6.74880078125,0.09976035091280937,-0.1512408742379397,0.026141572472453117
1733751866847776800,6.75877685546875,0.06873422126919031,-0.038890798604115845,0.11358487812578677
1733751866857751800,6.768751708984375,-0.008460954353213309,0.18569040245898066,0.24673370389938354
1733751866867728000,6.778727783203125,-0.031192279990762472,0.23010588276870547,0.33658582426011563
1733751866877704000,6.788703857421875,0.06284326353445649,0.17263802866227923,0.36968788339495656
1733751866887679700,6.7986796875,-0.03344751157164574,0.03526252510435879,0.526910827717185
1733751866897654800,6.80865478515625,-0.2285398755609989,-0.0018539573036134242,0.629652240267396
1733751866907630800,6.818630859375,-0.2981903348922729,-0.003344634252786636,0.6076584351241588
1733751866917607000,6.82860693359375,-0.18158289407491682,0.12213321850150823,0.40884558930695053
1733751866927582700,6.838582763671875,0.02532777187153697,0.3210819656580686,0.14404139118790626
1733751866937558800,6.848558837890625,0.17066870135068893,0.4275561349958181,-0.042431028494238854
1733751866947533800,6.858533935546875,0.22931904323995111,0.48463002134859556,-0.006039864686131477
1733751866957509600,6.868509521484375,0.15957199166640637,0.5589892428927123,0.259953835478425
1733751866967486000,6.87848583984375,-0.21543825579509138,0.7230174833156168,0.49669630671739573
1733751866977461800,6.888461669921875,-0.3523578322790563,0.9167835671372712,0.6223907248318195
1733751866987436800,6.898436767578125,-0.16351766055226324,0.8745575596958398,0.41613925344645974
1733751866997412900,6.908412841796875,0.2324351294338703,0.5705209829933942,-0.009498480707406998
1733751867007389000,6.918388916015625,0.6872955970712006,0.010478431655466556,-0.7209399463891982
1733751867017364700,6.92836474609375,1.0649218722499907,-0.3763102241441607,-1.1089140125811099
1733751867027340000,6.938340087890625,1.1392520138300954,-0.505222727522254,-0.8823720328390597
1733751867037315800,6.94831591796875,0.7467259834222495,-0.4638014605924487,-0.5008551799625158
1733751867047291600,6.958291748046875,0.2307156121648848,-0.2920186605200171,-0.4251297846317291
1733751867057268000,6.96826806640625,-0.25995836552307006,-0.19931348881572483,-0.3076198420166969
1733751867067243800,6.978243896484375,-0.33861411521732804,-0.34910496796295043,-0.1424175893783569
1733751867077218800,6.98821875,-0.037495764049142594,-0.49309696705117817,0.025963293296098706
1733751867087195000,6.99819482421875,0.21012802055776117,-0.4905316466078162,0.18764087893962858
1733751867097171000,7.0081708984375,0.39078137869760393,-0.42472631839737296,0.31325287946760655
1733751867107146800,7.018146728515625,0.5198297834150493,-0.3245293296329677,0.4903986678779125
1733751867117122000,7.0281220703125,0.41617827028259635,-0.26413082890212536,0.5435866527080535
1733751867127097900,7.038097900390625,0.2117759338952601,-0.22593407697677612,0.42952772732973094
1733751867137073700,7.04807373046875,0.004849193596839905,-0.26956264469251034,0.29200667782127854
1733751867147050000,7.058050048828125,-0.1704869150429964,-0.24012626845836638,0.24828385595083236
1733751867157024800,7.068024658203125,-0.3164607355982065,-0.20701851023510098,0.24746552530527113
1733751867167000800,7.078000732421875,-0.2754518488615751,-0.10633081534430384,0.20952245588004587
1733751867176977000,7.087976806640625,-0.26269641218483447,-0.08333587033450603,0.13128478546738623
1733751867186952700,7.09795263671875,-0.11636296453699468,-0.007436141350120305,0.1212222411364317
1733751867196927700,7.107927734375,0.015741759011149405,0.01886339816302061,0.14274433711469173
1733751867206904000,7.117904052734375,0.20588088450729847,-0.11481997287869453,0.1641471906274557
1733751867216880400,7.12788037109375,0.4196155512548983,-0.39118309136629104,0.17019173148870467
1733751867226856200,7.137856201171875,0.4572282927472144,-0.5396572043046355,0.16677987721860407
1733751867236832300,7.147832275390625,0.272957182501629,-0.40920536253005263,0.28410627996027465
1733751867246807300,7.157807373046875,-0.0766314042598009,-0.291382992964983,0.33678339265882967
1733751867256783400,7.167783447265625,-0.2673791631735861,-0.25090309853851794,0.24769641145169732
1733751867266759200,7.17775927734375,-0.2785228538047522,-0.14858137270510197,0.028714053308963775
1733751867276735200,7.1877353515625,-0.32212285301312804,-0.17405659022331238,-0.06767126821279526
1733751867286710300,7.197710205078125,-0.4035929294757545,-0.2802697705373168,0.07864157503843307
1733751867296686000,7.20768603515625,-0.4052484415978193,-0.32751988975107665,0.2574263628274202
1733751867306662400,7.217662353515625,-0.2434809857137501,-0.43002369415313,0.3490869939148426
1733751867316638200,7.22763818359375,0.08868256512470543,-0.635512072211504,0.3381529274463653
1733751867326613200,7.23761328125,0.5005291628785431,-0.7647656441122292,0.365925315991044
1733751867336589300,7.24758935546875,0.4197329670894891,-0.6934460825249552,0.3340723801344633
1733751867346565000,7.257565185546875,-0.00404540293328464,-0.23190613712370395,0.2816150476664305
1733751867356541200,7.267541259765625,-0.11119535264074802,0.35000820041298863,0.30270342840254305
1733751867366516200,7.27751611328125,-0.20517061734609304,0.6988222226053475,0.28311317726969715
1733751867376492300,7.2874921875,-0.30345738857500254,0.7745508328065276,0.17960721008777616
1733751867386468000,7.297468017578125,-0.1327278969477862,0.708724607938528,0.15285072058737276
1733751867396444400,7.3074443359375,0.12298925080895423,0.5547971980303525,0.010830606094002724
1733751867406420200,7.317420166015625,0.21113858583979309,0.26970103024989367,-0.11797463751733302
1733751867416395300,7.327395263671875,0.15188859755694864,-0.05905015486180782,-0.2692868964910507
1733751867426371300,7.337371337890625,0.21950258262455463,-0.3233218535393476,-0.40634091300964353
1733751867436347100,7.34734716796875,0.2313900042951107,-0.36164427767097945,-0.3472130167365074
1733751867446323200,7.3573232421875,0.06583594254441559,-0.1549064840734005,-0.18241349968016146
1733751867456298200,7.36729833984375,-0.030018121644854543,0.036783670257031914,-0.11200842258930206
1733751867466274300,7.3772744140625,0.015107077836804091,0.11885931139737367,-0.21598434537053107
1733751867476250000,7.38725,0.23426479254644364,-0.026344986090064047,-0.39425767650604243
1733751867486226400,7.397226318359375,0.4208674875447526,-0.244429518610239,-0.540732432320714
1733751867496201200,7.407201171875,0.5167606781680136,-0.30947043831944465,-0.5051847335994243
1733751867506177300,7.41717724609375,0.4168138282397762,-0.21984248210340737,-0.3071013711005449
1733751867516153300,7.4271533203125,0.2063625670770183,-0.1797214841172099,-0.12481646623611449
1733751867526129200,7.437129150390625,0.07824472120795399,-0.1545239144966006,0.06265080970227718
1733751867536104200,7.447104248046875,0.14266425761580467,-0.17429215254485605,0.2551315298885107
1733751867546080300,7.457080322265625,0.23016137581560758,-0.18354075014442203,0.5706885946452618
1733751867556056300,7.467056396484375,0.19012805611286313,-0.1602890538945794,0.8129553822636604
1733751867566032100,7.4770322265625,0.24987441307790575,-0.07709872951060533,0.8498889823853969
1733751867576007200,7.487007080078125,0.2700281433124095,0.0684337770178914,0.773982969790697
1733751867585983200,7.496983154296875,0.06698445499241351,0.1344318513214588,0.5903647704958915
1733751867595959300,7.506959228515625,-0.15577972324397413,0.20876199290156364,0.38819735355377194
1733751867605935400,7.516935302734375,-0.20701891209390014,0.3584066109240055,0.2634305716782808
1733751867615911200,7.5269111328125,-0.15514379996061325,0.4854436758190393,0.21271628348529337
1733751867625886200,7.53688623046875,-0.11599369283318518,0.5522445909380912,0.23109891239404676
1733751867635862300,7.5468623046875,-0.06034896250069141,0.5660761324137449,0.37908582633733745
1733751867645838300,7.55683837890625,-0.07048395101334899,0.5523661714911461,0.4116968870848417
1733751867655814100,7.566814208984375,-0.02102638488318771,0.4426613496690988,0.35213527556955815
1733751867665789200,7.5767890625,0.19495675491094588,0.26613924611508843,0.2632394330203533
1733751867675765200,7.58676513671875,0.4661258484194055,0.167408530510962,0.27482816400527954
1733751867685741300,7.5967412109375,0.7020306632578373,0.12558569704294203,0.28365386001765724
1733751867695717400,7.60671728515625,0.782618111667037,0.14036299493610857,0.2288414888560772
1733751867705692400,7.6166923828125,0.7704261540919541,0.22003625110983846,0.13556231665611265
1733751867715668200,7.626668212890625,0.6831856775343418,0.3332116716518998,0.04920154554247856
1733751867725644300,7.636644287109375,0.4300924120077863,0.5155570745319128,-0.07602934671342372
1733751867735620400,7.646620361328125,0.029820589778758583,0.6841723504841327,-0.09863456175327301
1733751867745595100,7.65659521484375,-0.2704377835592255,0.6899652546718716,-0.07205342881977558
1733751867755571200,7.6665712890625,-0.3712537810048088,0.5381991144508123,-0.04239712622463703
1733751867765547300,7.67654736328125,-0.28269582864046094,0.21382307568341494,0.022671266013383862
1733751867775523000,7.686523193359375,-0.01122044566180557,-0.03861526959836483,0.26484862178266044
1733751867785499400,7.69649951171875,0.3117565764952451,-0.15421207206845283,0.5363993715524673
1733751867795474200,7.70647412109375,0.5841466631660237,-0.17044804433733224,0.5739864671468734
1733751867805450200,7.7164501953125,0.7067991928339004,-0.15708528941720723,0.5124848274797201
1733751867815426300,7.72642626953125,0.7008890920072793,-0.0017667174115777015,0.36511516865193844
1733751867825402400,7.73640234375,0.42358547779917716,0.3142503660723567,0.012977554994821547
1733751867835377200,7.746377197265625,-0.00032440964877605437,0.7313087801903486,-0.3455453757852316
1733751867845353200,7.756353271484375,-0.4900841951012611,1.260020519849658,-0.4524871626347303
1733751867855329300,7.766329345703125,-0.8970756809741258,1.5128940416783094,-0.2908978397965431
1733751867865305000,7.77630517578125,-0.9923878203064203,1.3314490947693585,-0.04884440266788006
1733751867875280100,7.786280029296875,-0.543893526700139,1.113037229990959,0.10898001467883586
1733751867885256200,7.796256103515625,0.06450374409258365,0.7589458519175648,0.3541290797352791
1733751867895232300,7.806232177734375,0.5319633983990177,0.36163404853791,0.5321703556805849
1733751867905208300,7.816208251953125,0.7142202827453613,0.02675181332528591,0.6498521477311849
1733751867915183400,7.826183349609375,0.7724696426182985,-0.18390958345681427,0.6390408308595419
1733751867925159200,7.8361591796875,0.55526832267344,-0.28630817391872404,0.511388264414668
1733751867935135200,7.84613525390625,0.1304688111756928,-0.1842728638112545,0.33046120389997957
1733751867945111300,7.856111328125,-0.19741116232573985,0.1135053831487894,0.06954641443490982
1733751867955087000,7.866087158203125,-0.32833763587474823,0.26710516853779553,0.014531798699498175
1733751867965062100,7.876062255859375,-0.30439854188263415,0.21118717422187328,0.022566636595129964
1733751867975038200,7.8860380859375,-0.14079904826581477,0.042590310709178444,0.059384501382708545
1733751867985014300,7.89601416015625,0.12671382429003714,-0.18314356752038,0.18006138359606266
1733751867994990300,7.905990234375,0.30100071613788604,-0.4337710639879107,0.288919233199954
1733751868004965400,7.91596533203125,0.458856697666645,-0.5612573339551686,0.3916021935611963
1733751868014941200,7.925941162109375,0.5339513938784599,-0.6065814535424113,0.570235005658865
1733751868024917200,7.935917236328125,0.408576124715805,-0.6105445119544863,0.4937134915143251
1733751868034893300,7.945893310546875,0.26267942451741544,-0.602037088111043,0.2577799985706806
1733751868044868400,7.955868408203125,-0.012642075962759554,-0.4493269450381398,-0.05020400058329105
1733751868054844200,7.96584423828125,-0.5267081447519362,-0.22210253598988056,-0.8196861518234014
1733751868064820200,7.9758203125,-0.7642554295677692,0.0731283645749092,-1.5778145498782394
1733751868074796300,7.98579638671875,-0.8772164767067879,0.41487376355528827,-1.7463567605942487
1733751868084771000,7.99577099609375,-0.960196446275711,0.7246607204779982,-1.2608306671887635
1733751868094747400,8.005747314453124,-0.8968214139521121,0.8744269190534949,-0.7008937681823968
1733751868104723200,8.01572314453125,-0.5762613532762975,0.8496151338800787,-0.2710083134561777
1733751868114699000,8.025698974609375,-0.14894911003895103,0.5687377528384328,-0.0724099871724844
1733751868124675300,8.03567529296875,0.17911613863520323,0.1539174730360508,-0.2296247481882572
1733751868134650000,8.045650146484375,0.429553373227641,-0.2033306155025959,-0.2572358086913824
1733751868144626200,8.055626220703125,0.4545908569157123,-0.4780149871230125,-0.24221827230155465
1733751868154602200,8.065602294921876,0.3764320969581604,-0.7150444586098194,-0.2842056486815214
1733751868164578300,8.075578369140626,0.16489954336471854,-0.8267644196465611,-0.32689737393856044
1733751868174553000,8.085552978515626,-0.17404497285075485,-0.8612403974831104,-0.30345979972779746
1733751868184529400,8.095529296875,-0.4574900854885578,-0.7595917486056685,-0.1223240648984909
1733751868194505200,8.105505126953124,-0.7269665132023394,-0.5397577420696615,0.1123597202450037
1733751868204480800,8.115480712890625,-0.9769092422761022,-0.30716040781140325,0.23201836532652376
1733751868214456000,8.1254560546875,-1.089901853597164,-0.08561082952916621,0.38390287123024464
1733751868224431900,8.135431884765625,-0.9488394051548092,-0.05141600672155618,0.2396855389535427
1733751868234408000,8.145407958984375,-0.6349240431904792,-0.08189356257170438,-0.17226561515331268
1733751868244384000,8.155384033203125,-0.3186310653746128,-0.08096709537655114,-0.5264437947273254
1733751868254359000,8.165359130859375,-0.12038915131315588,-0.006074643738567829,-0.570128622674942
1733751868264334800,8.1753349609375,-0.1575460387967527,0.06723638392686844,-0.774255356991291
1733751868274311200,8.185311279296876,-0.3049590983748436,0.09437485848218202,-1.217391922956705
1733751868284287000,8.195286865234374,-0.47459202693700786,0.20173633204847574,-1.542221842971444
1733751868294262000,8.205261962890624,-0.5770389865852892,0.44003129342645403,-1.561228156736493
1733751868304238000,8.215238037109375,-0.5313806666076183,0.5758230349242687,-1.4483055419117212
1733751868314214000,8.2252138671875,-0.47938963647708294,0.5761883611053228,-1.2229156548142432
1733751868324190000,8.23518994140625,-0.4594460418619215,0.6100029524236917,-0.8942530247688293
1733751868334166000,8.245166015625,-0.3954069926716387,0.40198330232203006,-0.6412339569896459
1733751868344141000,8.25514111328125,-0.1379611944913864,0.08332885607182978,-0.5407663345903158
1733751868354116900,8.265116943359375,0.151179280243814,-0.13598609502613543,-0.49839960350394247
1733751868364093200,8.27509326171875,0.16648557044714687,-0.2054424930900335,-0.6527244882971048
1733751868374069000,8.285069091796874,-0.09401683882474898,-0.1720423277914524,-0.9449491927832364
1733751868384044000,8.2950439453125,-0.4817378070384264,0.048719899505376814,-0.9703227034926414
1733751868394020000,8.30502001953125,-0.8481190501034259,0.2364396889001131,-0.7063759989857673
1733751868403996000,8.314995849609375,-1.1644327784463762,0.060409752777218814,-0.5342471619546413
1733751868413972000,8.324971923828125,-1.1457760087713598,-0.03514730122685432,-0.3298065393835306
1733751868423947000,8.334947021484375,-0.893155000399053,-0.053504211172461506,0.07448854701220989
1733751868433923000,8.344923095703125,-0.6926365197077393,0.02777355758845806,0.4868780925363302
1733751868443899000,8.35489892578125,-0.3641170975252986,0.15959201154112815,0.6957061364114284
1733751868453875000,8.364875,0.11195260074883699,0.25726795739531516,0.5826338839828967
1733751868463850000,8.37485009765625,0.4549389397010207,0.20639818637967108,0.1520171923726797
1733751868473826000,8.384825927734376,0.5311889434278011,0.14833470446765423,-0.3564315114587545
1733751868483802000,8.394802001953124,0.4987792504712939,0.05733925929069519,-0.6751397337228059
1733751868493778000,8.40477783203125,0.36283290293365716,0.009807108265161514,-0.8528495857566595
1733751868503754000,8.41475390625,0.17119564783424138,-0.07570318349897862,-0.7658972784906626
1733751868513729000,8.42472900390625,0.08648322844952344,-0.026855273699760436,-0.20551848093569278
1733751868523705000,8.434705078125,-0.30432080047130583,-0.07210603578984737,-0.05130816243290901
1733751868533681000,8.444680908203125,-0.32592385273128743,-0.05966273380219936,0.2106844853967428
1733751868543657000,8.454656982421875,-0.41583734789043664,-0.048448681348562235,0.12803367471694946
1733751868553632000,8.464632080078125,-0.5717459947437048,-0.17808686865270137,-0.2218599594056606
1733751868563607800,8.47460791015625,-0.5371984129756688,-0.023235914158821105,-0.40667993570566174
1733751868573584100,8.484584228515626,-0.6847405057609081,0.03666238196492195,-0.7205985856056213
1733751868583560000,8.494559814453124,-0.8479170977905393,0.12771511028707028,-0.6137754566997289
1733751868593535000,8.504534912109374,-0.9074149964198469,0.09845745162069797,-0.3505594045549631
1733751868603511000,8.514510986328125,-0.8120531727269291,-0.19778993251025676,0.0010153145223855973
1733751868613487000,8.524487060546875,-0.5318061985433101,-0.5990314765542746,0.12856851224601268
1733751868623463000,8.534462890625,0.17233225064873695,-0.7134750173360109,0.42268414504528046
1733751868633438000,8.54443798828125,0.44896658729314803,-0.8391133213490247,0.5357587355613708
1733751868643414000,8.5544140625,0.32637130423784255,-1.1196136857718229,0.4264718468904495
1733751868653389800,8.564389892578125,0.4437432996869087,-0.9120259973466396,0.6169917883977294
1733751868663366100,8.5743662109375,0.1099503210157156,-0.7393079622507095,0.6076493750348687
1733751868673341000,8.5843408203125,-0.12561346183270214,-0.5881991168946027,0.5781228362992406
1733751868683317000,8.59431689453125,-0.18566461043059826,-0.5610977594792843,0.20196312654167412
1733751868693293000,8.60429296875,-0.2756312970817089,-0.4935001410245895,-0.08409253392070531
1733751868703269000,8.61426904296875,-0.40082887158989905,-0.3181120099365711,-0.05519026456326246
1733751868713245000,8.624244873046875,-0.4625964687168598,-0.28541560899317264,0.10077683447897434
1733751868723220000,8.634219970703125,-0.33182898512184617,-0.3547439967632294,0.2044283476114273
1733751868733196000,8.644196044921875,-0.13863047205507756,-0.5393395166575908,0.14362901099473238
1733751868743171800,8.654171875,0.09876491013467312,-0.7872235596358775,0.06109627373665571
1733751868753148200,8.664148193359376,0.20263561897575855,-0.8752233301281929,0.06231470961570739
1733751868763123000,8.674123046875,0.21218086143434045,-0.8172896120756864,0.1623912868708372
1733751868773099000,8.68409912109375,0.0718827484279871,-0.41817105153501033,0.11763561482131481
1733751868783075000,8.694074951171874,-0.3275052767038345,-0.2541618080735206,0.020510873109102247
1733751868793051000,8.70405078125,-0.4372814101964235,-0.1494067176133394,0.18294950625300407
1733751868803026000,8.71402587890625,-0.4138233777195215,-0.053290860682725906,0.18335721027106044
1733751868813002000,8.724001953125,-0.24758535229265688,0.004188099339604377,0.16171704087108374
1733751868822978000,8.73397802734375,-0.11982990999519824,0.12747720987796782,0.14130729004889725
1733751868832953900,8.743953857421875,-0.19322890820503233,0.19212416183352468,0.0875219238474965
1733751868842929000,8.753928955078125,-0.22796645958721637,0.22715338963866233,0.17839403490573166
1733751868852905000,8.763905029296875,-0.18689912066161632,0.13258710023760795,0.2572466223463416
1733751868862881000,8.773881103515626,-0.0871715029746294,-0.007789923223853111,0.36607524585574863
1733751868872857000,8.783857177734374,-0.04211363310813904,-0.09698445645868778,0.27137393189817666
1733751868882832100,8.79383203125,0.11479016226232051,-0.08298515720069408,-0.034303836140036584
1733751868892808000,8.803807861328124,0.27982465711832044,-0.048235915380716324,-0.2740611251555383
1733751868902783700,8.81378369140625,0.40132045449912546,0.1142553247332573,-0.3306652020394802
1733751868912760000,8.823760009765625,0.4464794466525316,0.18880875367522237,-0.33759207869321106
1733751868922735900,8.83373583984375,0.5410293694406747,0.36989597318768497,-0.1999776518128812
1733751868932711000,8.8437109375,0.3881125978797674,0.5062158302128315,-0.12206804431080817
1733751868942687000,8.85368701171875,0.05627075327634811,0.608758505320549,0.05223799062892794
1733751868952663000,8.8636630859375,-0.2978612490683794,0.5737216787308455,0.2671053146682679
1733751868962639000,8.87363916015625,-0.5283335539966821,0.3698790220528841,0.48310748795643443
1733751868972614100,8.8836142578125,-0.3278413767904043,0.16451953107118605,0.48257016620934007
1733751868982590000,8.89358984375,0.11997720951139926,-0.11230419066548347,0.19134879354685544
1733751868992565800,8.903565673828124,0.49835576436221596,-0.3708277010798454,-0.26404943422898647
1733751869002542000,8.9135419921875,0.7480161693632602,-0.4676426461905241,-0.8262081009380519
1733751869012516900,8.923516845703125,0.860836492857337,-0.2478326050519943,-0.8450123162597417
1733751869022493000,8.933492919921875,0.3213064220637083,-0.0519184032857418,-0.9916431394189595
1733751869032469000,8.943468994140625,-0.1768652179032564,0.20538053376972673,-0.8892901416644453
1733751869042445000,8.953445068359375,-0.612553805950284,0.16582710653841495,-0.7056931312881409
1733751869052419800,8.963419921875,-1.0380021550118923,-0.1808259382277727,-0.5204769952774048
1733751869062396200,8.973396240234376,-0.9970908834308385,-0.2207932069569826,-0.08441241352483629
1733751869072372000,8.9833720703125,-1.181067394644022,-0.36882454456388947,0.15790391232371329
1733751869082347800,8.99334765625,-1.2666501671224832,-0.4495376651793718,0.33865262059681117
1733751869092323000,9.003322998046874,-0.9402285940021275,-0.39791327640414237,0.7818667087778448
1733751869102299000,9.013298828125,-0.8435510115355253,-0.5910369706690312,0.8295822535462677
1733751869112275000,9.02327490234375,-0.6343798533111811,-0.6948427975803613,0.7943342684239149
1733751869122251000,9.0332509765625,-0.39647944420874115,-0.6724047558009624,0.5086547477975487
1733751869132226000,9.04322607421875,-0.33521219781935213,-0.61869713101089,0.38885779022388156
1733751869142201900,9.053201904296875,-0.3611468495428562,-0.5275912111967802,0.44535380362346766
1733751869152178200,9.06317822265625,-0.4214209932416677,-0.3946095586836338,0.3731364894788712
1733751869162154000,9.073154052734376,-0.490834136685729,-0.28349370101988314,0.13563903515413403
1733751869172129800,9.0831298828125,-0.5971726969450711,-0.168342888751626,-0.04456862504482269
1733751869182105000,9.09310498046875,-0.5973825403034687,-0.16596797631382942,-0.11632431302703916
1733751869192081000,9.103080810546874,-0.3863438346415758,-0.298427066257596,-0.26186069201305506
1733751869202057200,9.11305712890625,0.034549335333704946,-0.3576543312519789,-0.34826698276884854
1733751869212033300,9.123033203125,0.337821503534913,-0.5146843833506107,-0.1778345743920654
1733751869222008300,9.13300830078125,0.4849392334282398,-0.4774579377621412,0.15546762508749962
1733751869231984000,9.142984130859375,0.3027344080626964,-0.35032208866775033,0.7036264810819178
1733751869241960200,9.152960205078125,-0.021996727752685546,-0.24978841529488563,0.8795348366517574
1733751869251936300,9.162936279296876,-0.1934358289539814,-0.22040333085656164,0.6964650650199502
1733751869261911000,9.1729111328125,-0.09390811775326728,-0.26465923669040203,0.5022856876896694
1733751869271887400,9.182887451171876,0.19817396339178084,-0.3712327747493982,0.2935865308912471
1733751869281863200,9.19286328125,0.46669279811978337,-0.4686877713292837,0.18001549862772226
1733751869291839200,9.202839111328124,0.48838089831471443,-0.492497685983777,0.09881006445065141
1733751869301814000,9.21281396484375,0.23763562068641184,-0.40156887630224225,0.288788227231428
1733751869311790300,9.222790283203125,-0.22115268791913986,-0.09498305350840092,0.445013940677233
1733751869321766100,9.23276611328125,-0.5310837294876575,0.12437339864373206,0.45629952399712054
1733751869331742200,9.2427421875,-0.38734745872616766,-0.0775900201588869,0.3438083959247917
1733751869341717200,9.25271728515625,0.08397825989127158,-0.48213060574829575,0.06481127567179501
1733751869351693000,9.262693115234375,0.7636345942556858,-0.7499854236096143,0.008189480468071997
1733751869361669400,9.27266943359375,1.153373916554451,-0.9425620053857564,0.02106337415901944
1733751869371645200,9.282645263671874,1.0462778159260748,-0.9551426700174808,0.17658853812003508
1733751869381620200,9.2926201171875,0.45142157922983167,-0.6648088938444853,0.09977565807979553
1733751869391596000,9.302595947265624,-0.3569698561191559,-0.32672786259055137,0.022850641168281435
1733751869401572400,9.312572265625,-1.0459656812369822,-0.04719371285140514,0.06686296577090398
1733751869411548200,9.322548095703125,-1.2988175757557152,-0.11264555144906044,0.025090181989688425
1733751869421524200,9.332524169921875,-1.0825719491004944,-0.23636837722957132,0.25013637021603063
1733751869431499300,9.342499267578125,-0.7952174809992313,-0.29534137520194054,0.5693917597677558
1733751869441475000,9.35247509765625,-0.41686756772100925,-0.28363106366395946,0.6302789938636124
1733751869451451400,9.362451416015626,0.008450432959198952,-0.33400808272659777,0.4680707354094833
1733751869461427200,9.37242724609375,0.5060106630295514,-0.33237025239169593,0.24426446424163878
1733751869471402200,9.38240234375,0.7493997326761483,-0.393148838481307,0.028007439409568905
1733751869481378000,9.3923779296875,0.755827135375142,-0.41563481105566025,-0.06815001903991215
1733751869491354000,9.40235400390625,0.6390344011187553,-0.3646411213994026,-0.18193430132847277
1733751869501330200,9.412330078125,0.32107787400484084,-0.1821031185567379,-0.23983892115065827
1733751869511305200,9.42230517578125,-0.3039864539504051,-0.010312135177850722,-0.36382374060191214
1733751869521281300,9.43228125,-0.9048749565482139,0.34689679039418697,-0.17665676278434692
1733751869531257000,9.442257080078125,-1.1400444793820381,0.5720879400491714,-0.09175815491145477
1733751869541233400,9.4522333984375,-0.8327402791857719,0.3701461485564708,-0.4334738346070051
1733751869551208200,9.462208251953125,0.03466156353652477,0.08676467573940753,-0.41252774841841305
1733751869561184300,9.472184326171876,0.5741098012655973,-0.3937894744724035,-0.32377222765535113
1733751869571160000,9.48216015625,0.8671206876933574,-0.6638970396965742,0.14690071700862609
1733751869581136100,9.49213623046875,0.8914707005739212,-0.8645411925941705,0.6041803472174331
1733751869591111200,9.502111083984374,0.7102081244945526,-0.8671662804007529,1.077851204188913
1733751869601087000,9.5120869140625,0.2842407199949026,-0.7491518953949212,1.2647161303199828
1733751869611063300,9.522063232421875,-0.3227566208720207,-0.6349176134496927,0.8907740235466509
1733751869621039000,9.5320390625,-0.5636965438008308,-0.5451432345002889,0.480219694093056
1733751869631014100,9.54201416015625,-0.4631628704279661,-0.48100715467631816,0.27678770057521757
1733751869640990200,9.551990234375,-0.3397662078619003,-0.3035603374928236,0.3079722721835598
1733751869650966300,9.56196630859375,-0.14422610010504722,-0.0857815099209547,0.2851479345003143
1733751869660942000,9.571942138671876,0.08390227204561233,-0.006171966633200645,0.1405087692155037
1733751869670918100,9.581918212890624,0.21399463285803794,-0.013033084574341772,0.0594666906402912
1733751869680893200,9.59189306640625,0.35927579497396944,-0.17855740877389906,0.13205452773086726
1733751869690869000,9.601868896484374,0.2955547256916761,-0.34067572392225265,0.2261574374038726
1733751869700845300,9.61184521484375,-0.01760463027358055,-0.2951128271430731,0.41475758982971306
1733751869710821000,9.621821044921875,-0.2707867796599865,-0.14798632942140102,0.5690372472416609
1733751869720796200,9.631796142578125,-0.28606851994395255,-0.022416998991370198,0.6231217425201088
1733751869730772200,9.641772216796875,-0.07686112136244773,-0.20598492940366267,0.43540498533267524
1733751869740748300,9.651748291015625,0.19658464837372303,-0.41760289625823493,0.17872516655623913
1733751869750724000,9.66172412109375,0.29634090763330456,-0.4533160146743059,0.01611593750222819
1733751869760699400,9.671699462890626,0.0736474200129509,-0.3458352986425161,0.005581638340523932
1733751869770675200,9.68167529296875,-0.22823124800324437,-0.2535153268635273,0.12220748931411653
1733751869780651000,9.691651123046874,-0.37242578392624853,-0.23916882160305974,0.2506652894609608
1733751869790627300,9.70162744140625,-0.3468652262121439,-0.34666531972587106,0.27392604580009355
1733751869800602000,9.71160205078125,-0.17211948468089103,-0.5529191291987896,0.1277669683384709
1733751869810578200,9.721578125,0.040247254714369775,-0.6010270342856645,0.022023428529943337
1733751869820554200,9.73155419921875,0.16791034255325793,-0.5443552989929914,0.0755709993535187
1733751869830530000,9.741530029296875,0.25739304507970806,-0.445346643230319,0.2416162878204137
1733751869840505000,9.751505126953125,0.34156069006323814,-0.37309973766505716,0.3226904968332499
1733751869850481200,9.761481201171875,0.4540086731135845,-0.47260056085884566,0.15916759385028853
1733751869860457200,9.771457275390626,0.4396259274959564,-0.6312772111207247,-0.031719153409078715
1733751869870433000,9.78143310546875,0.2678413738578558,-0.6873433817356824,-0.002151561143854633
1733751869880408300,9.791408203125,-0.08261924649775028,-0.6187000536203384,0.11277657568389549
1733751869890384100,9.801384033203124,-0.37142742053866384,-0.525031005319953,0.10871782921184785
1733751869900360200,9.811360107421875,-0.5265951858967542,-0.4452022663235664,0.09625102761760354
1733751869910336300,9.821336181640625,-0.5448778615623712,-0.4082885399460792,0.10387753130751662
1733751869920312000,9.83131201171875,-0.49725920129716394,-0.3621750235468149,0.17645665536867453
1733751869930287000,9.841287109375,-0.29649872854351994,-0.313483181092143,0.38434612148571756
1733751869940263200,9.85126318359375,-0.014649872121214866,-0.34520986022055145,0.5678479643918574
1733751869950239200,9.8612392578125,0.22064181578755376,-0.29557576847970485,0.8076583718340844
1733751869960215000,9.871215087890626,0.36110476396679875,-0.20810499029755591,0.976698083743453
1733751869970190300,9.8811904296875,0.3868050224125385,-0.20847265456616879,0.9806876648362726
1733751869980166100,9.891166259765624,0.39584757604598997,-0.23780688560009,0.865289234482497
1733751869990142200,9.90114208984375,0.25603578525185583,-0.23771628470718859,0.6835469120621681
1733751870000118300,9.9111181640625,0.04161795854568481,0.003586626315116882,0.7115979714177548
1733751870010093300,9.92109326171875,-0.10263327600061893,0.19268238023817538,0.7576555198460817
1733751870020069000,9.931069091796875,-0.05606032539606094,0.33935645801723,0.8018118377629667
1733751870030045200,9.941045166015625,0.0876069717824459,0.4039548946559429,0.7148574846703559
1733751870040021200,9.951021240234375,0.3212847947537899,0.2948492077708244,0.663266559773311
1733751870049996000,9.96099609375,0.5691758519947528,0.07341185769140719,0.5214766373066231
1733751870059972400,9.970972412109376,0.5438473494708538,-0.15561492460370063,0.39787948373239485
1733751870069948200,9.9809482421875,0.3106488344490528,-0.32426527186930176,0.3523408811442554
1733751870079924200,9.99092431640625,-0.0060427872955799095,-0.5321411295861005,0.20381218847446142
1733751870089899300,10.000899169921874,-0.23463643887042998,-0.6581804156154394,0.03276416894998401
1733751870099875300,10.010875244140625,-0.48067631528675553,-0.5753145008802414,0.08465663407687098
1733751870109851100,10.02085107421875,-0.6923252618014812,-0.37649522532224655,0.3124484677495435
1733751870119827200,10.0308271484375,-0.6314660116910934,-0.32142098835408683,0.3227567670024931
1733751870129802200,10.04080224609375,-0.3985328696072101,-0.3170060945212841,0.07191102467440068
1733751870139778000,10.050778076171875,-0.15461656121611594,-0.18957389282882212,-0.06217687204759568
1733751870149754400,10.06075439453125,-0.009304419440031051,-0.03006663696169853,-0.055130424134805796
1733751870159730200,10.070730224609376,0.05451660308539867,0.10267302348911761,0.06704429542087018
1733751870169706000,10.0807060546875,0.08246201010942458,0.1137666644334793,-0.025670886220782993
1733751870179681300,10.090681396484374,0.13990531429648398,0.10715864447057247,-0.12730053813681005
1733751870189657000,10.100656982421874,0.013061726146936415,0.08628478326797485,-0.30567360331974924
1733751870199633200,10.110633056640625,-0.12464520132243632,0.08234919738471508,-0.5048157541565597
1733751870209609000,10.12060888671875,-0.09137655344903468,-0.0168313078135252,-0.7390768569085746
1733751870219584000,10.130583984375,-0.027329905474185942,-0.08882394635677338,-0.8468716073255985
1733751870229559800,10.140559814453125,0.060656421014666555,-0.024401450806856153,-0.6380183559440076
1733751870239536000,10.1505361328125,0.03703764501810074,0.05782791959047317,-0.39459216915741563
1733751870249512000,10.160511962890626,0.09195055394470691,0.03974164327979088,-0.05180376393012702
1733751870259487000,10.170487060546876,0.1479302153199911,-0.007812135055661201,0.1949474756259471
1733751870269463000,10.180463134765626,0.23968320086598394,-0.025348960790038108,0.1111391654741019
1733751870279438800,10.19043896484375,0.30038696815371513,-0.03276712809205055,-0.05143120429068804
1733751870289415000,10.200414794921874,0.16649287697076798,-0.06069441493749618,-0.04238835839629173
1733751870299390000,10.210389892578124,-0.026833061867952344,-0.07393792739212512,0.06073131288178265
1733751870309366000,10.220365966796875,-0.39503742870688435,-0.09788812730014324,0.15646306586563585
1733751870319341800,10.230341796875,-0.5989174947857856,-0.14329144960343837,0.23850706975869834
1733751870329318100,10.240318115234375,-0.6254571266651153,-0.3065437372177839,0.15209062293507158
1733751870339293000,10.25029296875,-0.3780430392861366,-0.48794601402878757,-0.05105440686754882
1733751870349269000,10.26026904296875,-0.08392331483364104,-0.6120686527818441,-0.32176191074624655
1733751870359245000,10.2702451171875,0.1485965702742338,-0.6769914990693331,-0.44950361677929757
1733751870369220900,10.280220947265626,0.1947597710341215,-0.6759200704455375,-0.3278223798289895
1733751870379196000,10.29019580078125,0.14593231950104235,-0.8103273718476295,-0.1667792926967144
1733751870389172000,10.300171875,0.009985387441515921,-0.9666279406279324,-0.1566692559622228
1733751870399148000,10.31014794921875,-0.12543079874217508,-1.135201131004095,-0.24123262226507067
1733751870409123800,10.320123779296875,-0.24455519081652163,-1.129165942493081,-0.1429506733417511
1733751870419099100,10.33009912109375,-0.5980722761332988,-0.9247644828885793,0.1384700207963586
1733751870429075000,10.340074951171875,-0.9209311883360147,-0.5968699146062135,0.5613241155810654
1733751870439051000,10.350051025390625,-0.9459797048747539,-0.2998217354863882,0.9272853796683251
1733751870449027000,10.360027099609376,-0.8397446049898862,-0.22620061895847318,0.9717822546511888
1733751870459003000,10.3700029296875,-0.46938276785612104,-0.22153613427877425,0.6932954220078885
1733751870468978000,10.37997802734375,-0.01321136375069618,-0.30207682093679905,0.17972952129319308
1733751870478954000,10.3899541015625,0.3863222073316574,-0.35064299118518827,-0.12768062349557877
1733751870488930000,10.399929931640624,0.6010153438478708,-0.2754606166899204,-0.2967611788719892
1733751870498905900,10.40990576171875,0.5351128388732671,-0.1862806965023279,-0.26891733252629635
1733751870508881200,10.419881103515625,0.32442426182329653,-0.10944061792790889,-0.07603519193232058
1733751870518857000,10.42985693359375,0.08737024041712284,-0.07246376318633556,0.1321048696786165
1733751870528833000,10.4398330078125,-0.1138192714035511,0.07471183437407017,0.31502047366201874
1733751870538809000,10.44980908203125,-0.22188918550014494,0.04818973815143108,0.36695363612547516
1733751870548784000,10.4597841796875,-0.18541677314937113,-0.17327742254436015,0.3564326805025339
1733751870558760000,10.469760009765626,-0.04079670529067516,-0.36017771224975587,0.3803114226095378
1733751870568736000,10.479736083984376,0.08271978426277637,-0.413984705761075,0.43212680391222236
1733751870578712000,10.489712158203124,0.02225625547170639,-0.43374329919815063,0.41036856109052894
1733751870588686800,10.499686767578124,-0.062359133279323575,-0.42445758445858955,0.4709638995677232
1733751870598663200,10.5096630859375,-0.16447452288568018,-0.4361889387845993,0.29011837985664607
1733751870608639000,10.519638916015625,-0.17373861031532287,-0.4786041851878166,0.024583529375493525
1733751870618615000,10.529614990234375,-0.1679156032502651,-0.4864379475533962,-0.10434826322495937
1733751870628589800,10.53958984375,-0.09501695577800273,-0.3568085280776024,-0.12312865927964448
1733751870638566100,10.549566162109375,-0.052611646246910095,-0.047858898761868475,0.10215221448540687
1733751870648542000,10.5595419921875,-0.10711305176317691,0.27281916227042674,0.349255920740962
1733751870658518000,10.56951806640625,-0.21735680276751518,0.6321095702916384,0.41635611106753345
1733751870668493000,10.5794931640625,-0.42044425716400147,1.0794061785459519,0.3557818153783679
1733751870678468900,10.58946875,-0.7448539059400558,1.5364128644317387,0.26558482710272074
1733751870688445200,10.599445068359374,-0.6140139416307211,1.4115882148891687,-0.18041121994704007
1733751870698421000,10.6094208984375,-0.07283785719573498,0.8629664906233548,-0.5531801182225347
1733751870708396000,10.61939599609375,0.3997895916700363,0.38432138890326023,-0.6301771409243345
1733751870718371800,10.629371826171875,0.6256891818553209,-0.08020575561523437,-0.43728900898098944
1733751870728348000,10.639347900390625,0.8112117534667252,-0.47512101924717426,-0.14174275885671375
1733751870738324000,10.649323974609375,0.8702046251833438,-0.6615367403060197,0.1745090101659298
1733751870748300000,10.659300048828126,0.48987435174286365,-0.5434294163197279,0.43237844058573244
1733751870758275000,10.669275146484376,-0.15652970136106012,-0.4418038560569286,0.2019751092404127
1733751870768251000,10.6792509765625,-0.6250339328169823,-0.2962082211643457,-0.13418898247629404
1733751870778227200,10.689227294921874,-1.0505962636470794,-0.19507190572321415,-0.21745149531364438
1733751870788203000,10.699203125,-1.1219582030713557,-0.09861761061847209,-0.03379705566167831
1733751870798178000,10.709177978515624,-0.8186091702416539,-0.12236907308399676,0.18267624226957557
1733751870808153900,10.71915380859375,-0.2614052033305168,-0.28858605572283264,0.15887772579193113
1733751870818130000,10.7291298828125,0.3065308777362108,-0.5913847611933947,-0.03163695501834154
1733751870828106000,10.73910595703125,0.7250608257114887,-0.8726303910255432,-0.27667934482991696
1733751870838080800,10.749080810546875,0.8377449556052684,-1.025410384464264,-0.4384209356203675
1733751870848057000,10.75905712890625,0.5539695150345564,-1.0052075543910264,-0.39611762515902516
1733751870858033000,10.769032958984376,0.013232114277780056,-1.0032926606804131,-0.26265666469633575
1733751870868009200,10.77900927734375,-0.34422815570682286,-0.8527011171966791,-0.07432312731742859
1733751870877984000,10.78898388671875,-0.5384399374693631,-0.6886994725197553,0.13454729439467192
1733751870887960000,10.7989599609375,-0.4846881812766194,-0.5337526564359665,0.2884814263045788
1733751870897936000,10.808935791015625,-0.18318039239943026,-0.3890384805530309,0.366046604283154
1733751870907912000,10.818911865234375,0.09617664720714092,-0.35959435940384865,0.3152481449380517
1733751870917887000,10.828886962890625,0.33182664703428744,-0.289085237416625,0.2578375739768147
1733751870927862800,10.83886279296875,0.3709972124278545,-0.14371990414857863,0.3082867814928293
1733751870937839000,10.848839111328125,0.17216244703978298,0.12317746685743332,0.4016846116364002
1733751870947815000,10.85881494140625,-0.18308306950479744,0.3813894271045923,0.5386351677805185
1733751870957790000,10.8687900390625,-0.41723172485828397,0.5733259574115276,0.6756050131469965
1733751870967766000,10.87876611328125,-0.46107992667406794,0.7531991249591111,0.6783423291563987
1733751870977742000,10.8887421875,-0.32856209228038785,0.6000929683059454,0.43660921002328396
1733751870987718100,10.89871826171875,-0.12826865251660347,0.29186405448019503,-0.02011515178978443
1733751870997693200,10.908693115234374,0.28096418254226446,0.08988602263033389,-0.29092355875968934
1733751871007669000,10.9186689453125,0.4679410446152091,0.03500058623254299,-0.4007178124308586
1733751871017644800,10.928644775390625,0.4306231213510036,-0.0325689751714468,-0.3173199827760458
1733751871027621000,10.93862109375,0.3036050534173846,-0.04749006544947624,-0.24211481192708015
1733751871037596000,10.948595947265625,0.23890666353553533,-0.0028910452663898465,0.015738836401700974
1733751871047572000,10.958572021484375,0.13695669362396,0.09114449825882912,0.4146604130655527
1733751871057548000,10.968548095703126,0.10909618840441107,0.10688801083564757,0.7684703438490629
1733751871067523800,10.97852392578125,0.22063012534976004,0.015731822139024732,0.8278320488780736
1733751871077499000,10.988498779296876,0.35716537869125603,-0.170455935382843,0.6862105783134699
1733751871087475000,10.998474853515624,0.44693157433420416,-0.2106581819117069,0.5416197365492582
1733751871097451000,11.008450927734375,0.310875921203196,-0.19247078331410883,0.39598376964628695
1733751871107426800,11.0184267578125,0.06320917423740029,-0.10577566567957401,0.29266952564418314
1733751871117403100,11.028403076171875,-0.13564604941681027,0.11914952651560305,0.24880583399832248
1733751871127378000,11.0383779296875,-0.1964448015116155,0.3683826460152864,0.2563081724524498
1733751871137354000,11.04835400390625,-0.08388371347561478,0.5709709187179803,0.2636626268684864
1733751871147330000,11.058330078125,0.13581950628757475,0.5551420659452676,0.23279051874279974
1733751871157305900,11.068305908203126,0.5072269069515168,0.5901940901041031,0.18534312339127063
1733751871167281000,11.078281005859376,0.7518366044342517,0.6433885046750307,0.14747545728981495
1733751871177257000,11.088257080078124,0.7195780103862285,0.5413455957829952,-0.14555004218518733
1733751871187233000,11.09823291015625,0.5663750422950834,0.41426878339946266,-0.3665145140558481
1733751871197208800,11.108208740234375,0.3991605730514973,0.405816012352705,-0.24191432091891765
1733751871207185200,11.11818505859375,0.051436684183403844,0.5105635040283203,0.022450316739082335
1733751871217161200,11.1281611328125,-0.308121361798048,0.5656909324884415,0.09657178400456905
1733751871227137000,11.138136962890625,-0.5025894564092159,0.47406537271440025,-0.00862169787287712
1733751871237113000,11.148113037109376,-0.40528175934553146,0.2452490182995796,0.0681967533916235
1733751871247088000,11.158088134765626,-0.3757248254716396,-0.058359834510087964,0.1754138500511646
1733751871257064200,11.168064208984376,-0.402529830288887,-0.3398521325796842,0.21194939076602456
1733751871267040000,11.1780400390625,-0.23489483407828957,-0.2165279507279396,0.4410013075023889
1733751871277016000,11.18801611328125,-0.273482594615221,0.33324820427000523,0.7731061869561672
1733751871286991000,11.1979912109375,-0.4662742804467678,0.546359040030837,0.7928367233425379
1733751871296967000,11.207966796875,-0.3024807072962634,0.5353326191037893,0.5064940626323223
1733751871306943200,11.217943115234375,0.07367664154085796,0.4684077853441238,-0.0055991351813077924
1733751871316919000,11.2279189453125,0.32892800298333164,0.4525263256013393,-0.42578912532329555
1733751871326894000,11.23789404296875,0.31375732185840605,0.3687760292470455,-0.5209504580080508
1733751871336870100,11.2478701171875,0.025441315248608588,0.40211423522531986,-0.48735389335453505
1733751871346846200,11.25784619140625,-0.3089244948744774,0.4719686926960945,-0.4991618200480938
1733751871356822000,11.267822021484376,-0.548874822244048,0.6141138948738575,-0.3090805622190237
1733751871366797300,11.27779736328125,-0.7461205648750067,0.7740437600672244,-0.05671966608762741
1733751871376773000,11.287773193359374,-0.7724269725203514,0.754161832511425,0.04459843566119671
1733751871386749000,11.2977490234375,-0.46620008269939567,0.6224842483341694,-0.17341595423221587
1733751871396725200,11.307725341796875,-0.13837269790172577,0.38634032751023767,-0.5936497835159301
1733751871406701000,11.317701171875,0.09500343870930374,-0.040918870365619656,-0.9837059166789054
1733751871416676000,11.327676025390625,0.07948098500464111,-0.4389642487168312,-1.1970254267543554
1733751871426652200,11.337652099609375,-0.14872750317752362,-0.5872767413526773,-1.16243985106349
1733751871436628200,11.347628173828125,-0.4597954398214817,-0.7538046896368265,-1.0259949063539504
1733751871446604000,11.35760400390625,-0.7985152804356068,-0.8981880261301994,-0.9015016807228327
1733751871456579300,11.367579345703126,-1.0724082094173877,-1.021840124762058,-0.7925953158020973
1733751871466555100,11.37755517578125,-0.9361363562524319,-1.0935691439330577,-0.7056114443540573
1733751871476531000,11.387531005859374,-0.4651783749688416,-1.0238169777929782,-0.3147217829763889
1733751871486507300,11.39750732421875,0.06465403928346931,-0.7947668146222829,0.31380642169713974
1733751871496482000,11.40748193359375,0.3806893160112202,-0.47398353964984413,0.8150883026391267
1733751871506458000,11.4174580078125,0.5357974601365626,-0.5116448695242405,0.7790542817056179
1733751871516434200,11.42743408203125,0.6251981834679842,-0.6810878284722566,0.13694061927199364
1733751871526410000,11.437409912109375,0.6269875511027873,-0.6078554190009832,-0.3171627463877201
1733751871536385000,11.447385009765625,0.3638363078225404,-0.4134183040499687,-0.4765349776983261
1733751871546361000,11.457361083984376,-0.07498297946564852,-0.2564157244801521,-0.3911322379618883
1733751871556337200,11.467337158203126,-0.5580183520339429,-0.15716215404570102,-0.21649989367723463
1733751871566313000,11.47731298828125,-0.9346171838611363,-0.030255437532067296,-0.09749766667783259
1733751871576288300,11.487288330078124,-1.1920279107280074,0.10530044938325882,0.03326280265450477
1733751871586264000,11.49726416015625,-1.2595441345095633,0.1455699159294367,0.165261873871088
1733751871596240100,11.507240234375,-1.0122007742792367,0.20016367590427397,0.28466157575547696
1733751871606216200,11.51721630859375,-0.5909406706877053,0.2183832232058048,0.3528776183694601
1733751871616191200,11.527191162109375,-0.027056933751702306,0.09183832574188709,0.31296471017599103
1733751871626167000,11.5371669921875,0.5159966349929571,0.10340718298256396,0.22272037562727928
1733751871636143000,11.54714306640625,0.8141752794474363,0.16436872442364692,-0.10168108984231948
1733751871646119200,11.557119140625,0.8708115050353109,0.14476912094056604,-0.4749947625190019
1733751871656094000,11.567093994140626,0.7149399753220379,0.1986024179369211,-0.8115303178966045
1733751871666070300,11.5770703125,0.23088424673005936,0.19459201325178146,-0.9531389289796351
1733751871676046000,11.587046142578124,-0.10213701691627503,0.22743045301437376,-0.7772346650630235
1733751871686022100,11.597022216796875,-0.30316388552114365,0.26843992427289487,-0.5319079053521156
1733751871695997000,11.606996826171875,-0.4464706788241863,0.2652987036377191,-0.09198387169241905
1733751871705973200,11.61697314453125,-0.28986104409471153,0.21029577834010124,0.3565846561938524
1733751871715949000,11.626948974609375,-0.030571663874387738,0.22373159849643706,0.5822463459700346
1733751871725925000,11.636925048828125,0.17697905354127286,0.2850029365390539,0.6076017365008592
1733751871735900200,11.646900146484375,0.4866572893925011,0.41822658111453054,0.7002648226290941
1733751871745876000,11.6568759765625,0.6117923200584948,0.41209436196982857,0.48892684175968165
1733751871755852300,11.666852294921876,0.7989367937833071,0.20641133812218904,0.0729939245402813
1733751871765828000,11.676828125,0.9548825577765703,-0.041570320011675356,-0.4409808492362499
1733751871775804200,11.68680419921875,0.796919754872471,-0.23380144935101269,-0.8826052570730447
1733751871785779000,11.696779052734374,0.24830665230453014,-0.4156374414041638,-1.171156241482496
1733751871795755300,11.70675537109375,-0.41406230104193087,-0.3246645003199577,-1.0137380668491125
1733751871805731000,11.71673095703125,-0.8155757938951254,-0.1320493400990963,-0.6636211453646421
1733751871815707100,11.72670703125,-0.8747317472189664,0.003633388066291809,-0.4207295038461685
1733751871825682200,11.73668212890625,-0.5497410836845636,0.09636135612428187,-0.2065636060744524
1733751871835658000,11.746657958984375,-0.12629939827024936,0.03963759838342666,0.01429156020283699
1733751871845634300,11.75663427734375,0.4056061689943075,0.08607903156280516,0.2724795550525188
1733751871855610000,11.766610107421876,0.6811302063092589,-0.028895839616656302,0.24942367363572118
1733751871865585200,11.776585205078124,1.0489188319541514,-0.21068360861390828,0.10328969408273696
1733751871875561000,11.78656103515625,1.3086968724742531,-0.36959728250205515,-0.36185704363882537
1733751871885537000,11.796537109375,1.1120770066566765,-0.38197891743034124,-0.8183154479920863
1733751871895513000,11.80651318359375,0.4413981978654861,-0.18716537038236855,-0.9074649730414152
1733751871905488100,11.816488037109375,-0.2915945898890495,0.17459698071032762,-0.6962333751559258
1733751871915464200,11.826464111328125,-0.7984175922147929,0.581079932539165,-0.4323667501479387
1733751871925440000,11.83643994140625,-1.1727189607545734,0.8218374846383929,-0.12546645457744598
1733751871935416300,11.846416259765626,-1.1256512123703957,1.1011334417074918,0.24657588298916816
1733751871945391000,11.85639111328125,-0.7114639697745442,1.1191492831304668,0.3947831616848707
1733751871955367200,11.8663671875,-0.07151157702803611,0.7522004693105816,0.36675592159628867
1733751871965343000,11.876343017578124,0.7295052378997207,0.3033902416229248,0.23941665888428687
1733751871975319000,11.886319091796874,1.1072869959011673,-0.036059739896655084,0.0992184991210699
1733751871985294000,11.896294189453124,0.6625503012627363,0.08834376162439585,0.13205167818665503
1733751871995270000,11.906269775390625,-0.4412641962222755,0.3558534193098545,0.226879833394289
1733751872005246200,11.91624609375,-1.3000643609464169,0.6176943837091327,0.3953711907058954
1733751872015222000,11.926221923828125,-1.3479615458920597,0.7701701335042714,0.5861491986274718
1733751872025197000,11.936197021484375,-0.9671166009277105,0.7796548779472708,0.8569903388231992
1733751872035173000,11.946173095703125,-0.21948066305369138,0.7818935967847704,1.0650538280665873
1733751872045149200,11.956149169921876,0.5032742238029837,0.5107683789506554,1.0813561435699461
1733751872055125000,11.966125,1.170996082484722,0.223174987526983,0.9836778596282004
1733751872065100300,11.976100341796876,1.7325814793504775,-0.05044409294947982,0.933187443318963
1733751872075076000,11.986076171875,1.7977505554839968,0.10034063501879573,0.7903367232203483
1733751872085052000,11.996052001953124,1.0646937625825406,0.49177755501568315,0.8179629812926054
1733751872095028200,12.0060283203125,0.21409049444794653,0.9017946723200381,0.9131196378022431
1733751872105003000,12.0160029296875,-0.35261019960492845,1.2605031888000666,0.7145142972558737
1733751872114979000,12.02597900390625,-0.7484177359014749,1.5067732207104563,0.3352747416615486
1733751872124955100,12.035955078125,-0.7029124145284295,1.6406806097663937,0.09843640883266926
1733751872134931200,12.04593115234375,-0.17025164498239756,1.3710026681311427,-0.07617489266395569
1733751872144906000,12.055906005859375,0.56275634034127,0.8050007699973881,-0.2876508206993341
1733751872154882300,12.06588232421875,1.136599891886115,0.42251477982774377,-0.331208222874999
1733751872164858000,12.075858154296874,1.182809269875288,0.37411578283980484,-0.10178279665112495
1733751872174834000,12.085833984375,0.8434700552538037,0.44282355449348687,0.05592646988332271
1733751872184809200,12.095809326171874,0.3157394355863333,0.6647432812623679,0.09052139792442321
1733751872194785000,12.105784912109375,-0.1420280055388808,0.7393633456997573,-0.020023381853103636
1733751872204761000,12.115760986328125,-0.14214227956831454,0.6227003753028809,-0.2785194197386503
1733751872214736100,12.125736083984375,0.23885873274058103,0.3409342287279665,-0.7392302208393812
1733751872224712200,12.135712158203125,0.5754278981268406,0.00799662477709353,-1.1947995673984289
1733751872234687000,12.14568701171875,0.6037281099379063,-0.12291099794097245,-1.1934615967929363
1733751872244663300,12.155663330078125,0.1977566147625446,-0.0006227350082248449,-0.6770178025543689
1733751872254639000,12.16563916015625,-0.4770189618229866,0.14025007261354475,-0.13557576065957547
1733751872264615400,12.175615478515626,-0.7986275817036628,0.3083730350041762,0.22496493968367576
1733751872274590200,12.185590087890626,-0.7589104883432388,0.37690059125274417,0.5273614940941334
1733751872284566300,12.195566162109374,-0.5212219684258103,0.17967324279500171,0.7003057391613722
1733751872294542300,12.205542236328125,0.060657297797501085,-0.03273849108603317,0.7768225771307945
1733751872304518100,12.21551806640625,0.46406566448658704,-0.36483532879725095,0.5844429792314767
1733751872314493200,12.2254931640625,0.6821963742360472,-0.602572912020795,0.2978676788091659
1733751872324469000,12.235468994140625,0.6260229438543319,-0.5773519980572164,0.25483576181232925
1733751872334445300,12.2454453125,0.47543432298004623,-0.4792273585874587,0.35243513529896736
1733751872344421000,12.255421142578125,0.2595271344989538,-0.3238696966804564,0.47056759372651574
1733751872354396200,12.265396240234375,0.016918986096978186,-0.18836769537683576,0.40224458360671994
1733751872364372200,12.275372314453126,0.09719956051409244,-0.12393628586810082,0.1246773500263691
1733751872374348300,12.285348388671874,0.707711923764646,-0.27993363391812887,-0.2880085480958223
1733751872384324400,12.295324462890624,1.2801058610230684,-0.37176724695228036,-0.5482821170479059
1733751872394299400,12.30529931640625,1.39979899289608,-0.37013277761824426,-0.44713411116898055
1733751872404275200,12.315275146484375,1.2423679587811232,-0.2341539891157299,-0.2290752976119518
1733751872414251000,12.3252509765625,0.9433677688106894,-0.09057773122154175,-0.018568506869673727
1733751872424227300,12.335227294921875,0.41301644525080916,0.03334916576370597,0.16328969701528548
