time,seconds_elapsed,z,y,x
1733751860114129200,0.025129150390625,0.11618129909038544,-0.2621344029903412,0.33230915665626526
1733751860124104000,0.03510400390625,0.08016658574342728,-0.25784972310066223,0.2496269792318344
1733751860134080300,0.045080322265625,0.05768178030848503,-0.22737304866313934,0.2141219675540924
1733751860144056000,0.05505615234375,0.05102523788809776,-0.20374707877635956,0.21903090178966522
1733751860154031900,0.065031982421875,0.07400218397378922,-0.16972999274730682,0.2741120159626007
1733751860164007200,0.075007080078125,0.11847709864377975,-0.13779576122760773,0.3515368103981018
1733751860173983000,0.08498291015625,0.16788779199123383,-0.09896660596132278,0.4142715632915497
1733751860183959000,0.094958984375,0.1913681924343109,-0.09377947449684143,0.4481121897697449
1733751860193935400,0.104935302734375,0.18754416704177856,-0.11646907031536102,0.4433062672615051
1733751860203911400,0.114911376953125,0.1716325283050537,-0.14089980721473694,0.4266560673713684
1733751860213886200,0.12488623046875,0.15571214258670807,-0.1345393806695938,0.3898303806781769
1733751860223862500,0.134862548828125,0.1459755003452301,-0.1352369487285614,0.33540597558021545
1733751860233838300,0.14483837890625,0.1417597085237503,-0.1242455467581749,0.26956385374069214
1733751860243814100,0.154814208984375,0.12907367944717407,-0.10164885222911835,0.23536446690559387
1733751860253790500,0.16479052734375,0.1377294957637787,-0.08163946121931076,0.22448331117630005
1733751860263765200,0.17476513671875,0.17355617880821228,-0.07776304334402084,0.22686466574668884
1733751860273741300,0.1847412109375,0.2136458158493042,-0.07258426398038864,0.22449231147766113
1733751860283717400,0.19471728515625,0.23172496259212494,-0.04680309072136879,0.23354482650756836
1733751860293693200,0.204693115234375,0.2458793967962265,-0.007939581759274006,0.2620105445384979
1733751860303668200,0.214668212890625,0.2663080394268036,0.05900140851736069,0.31143155694007874
1733751860313644300,0.224644287109375,0.2891606390476227,0.13452252745628357,0.3433343470096588
1733751860323620400,0.234620361328125,0.3099515736103058,0.14364728331565857,0.3471131920814514
1733751860333596200,0.24459619140625,0.3091859221458435,0.07693136483430862,0.3516123592853546
1733751860343572500,0.254572509765625,0.277103066444397,-0.02654811181128025,0.32274967432022095
1733751860353547300,0.26454736328125,0.22499775886535645,-0.07854633778333664,0.27934709191322327
1733751860363523300,0.2745234375,0.16039377450942993,-0.09657925367355347,0.23903436958789825
1733751860373499400,0.28449951171875,0.10974470525979996,-0.06347935646772385,0.21269996464252472
1733751860383475200,0.29447509765625,0.07909360527992249,-0.004455101676285267,0.19297848641872406
1733751860393450200,0.3044501953125,0.06835068017244339,0.08963996917009354,0.18357060849666595
1733751860403426300,0.31442626953125,0.0967310220003128,0.19104933738708496,0.20025238394737244
1733751860413402400,0.32440234375,0.15019264817237854,0.2717638909816742,0.2625303864479065
1733751860423378200,0.334378173828125,0.24658764898777008,0.308376669883728,0.3344478905200958
1733751860433354500,0.3443544921875,0.32473835349082947,0.2850252687931061,0.39793819189071655
1733751860443329300,0.354329345703125,0.3404552936553955,0.22187115252017975,0.4266239106655121
1733751860453305300,0.364305419921875,0.2907940149307251,0.18105554580688477,0.40957650542259216
1733751860463281400,0.374281494140625,0.22428816556930542,0.16137030720710754,0.3704385459423065
1733751860473257200,0.38425732421875,0.15761618316173553,0.16674722731113434,0.33096012473106384
1733751860483233300,0.3942333984375,0.11896011978387833,0.18984606862068176,0.294870525598526
1733751860493208300,0.404208251953125,0.10434842109680176,0.18946842849254608,0.26976943016052246
1733751860503184400,0.414184326171875,0.10042218118906021,0.1642569601535797,0.24865537881851196
1733751860513160200,0.42416015625,0.1050741896033287,0.15456785261631012,0.20790927112102509
1733751860523136300,0.43413623046875,0.12035582959651947,0.16018684208393097,0.19759002327919006
1733751860533111300,0.444111328125,0.17153193056583405,0.17486006021499634,0.22583284974098206
1733751860543087400,0.45408740234375,0.26817092299461365,0.16602720320224762,0.23478630185127258
1733751860553063400,0.4640634765625,0.3447301387786865,0.13071420788764954,0.2519136369228363
1733751860563039200,0.474039306640625,0.3528391718864441,0.0638674646615982,0.26102298498153687
1733751860573015300,0.484015380859375,0.3249683976173401,0.012925188057124615,0.2648819088935852
1733751860582990300,0.493990234375,0.3178844749927521,-0.014501606114208698,0.28163301944732666
1733751860592966400,0.50396630859375,0.32456767559051514,0.06906146556138992,0.3631308078765869
1733751860602942200,0.513942138671875,0.2905706763267517,0.12134703993797302,0.36591118574142456
1733751860612918300,0.523918212890625,0.2668568193912506,0.04376383498311043,0.17617695033550262
1733751860622893300,0.533893310546875,0.30151015520095825,-0.03985569253563881,-0.02791307307779789
1733751860632869000,0.543869140625,0.4103946089744568,-0.04344337806105614,-0.036081038415431976
1733751860642845400,0.553845458984375,0.5549430847167969,0.03937707096338272,0.13566356897354126
1733751860652821200,0.5638212890625,0.683142900466919,0.1442243903875351,0.31491827964782715
1733751860662797300,0.57379736328125,0.8263795971870422,0.20582520961761475,0.43238940834999084
1733751860672772400,0.5837724609375,0.9144202470779419,0.30684584379196167,0.49391987919807434
1733751860682748400,0.59374853515625,0.9131430983543396,0.4519280195236206,0.5858213901519775
1733751860692724200,0.60372412109375,0.9204915165901184,0.5449106693267822,0.7721058130264282
1733751860702700300,0.6137001953125,0.9376085996627808,0.6393193602561951,0.9736812114715576
1733751860712676400,0.62367626953125,0.9572781920433044,0.6501994729042053,1.1520448923110962
1733751860722651100,0.633651123046875,1.0032674074172974,0.5595265030860901,1.3335248231887817
1733751860732627500,0.64362744140625,1.132266879081726,0.41757145524024963,1.4144079685211182
1733751860742603300,0.653603271484375,1.3256354331970215,0.287701278924942,1.3853801488876343
1733751860752579300,0.663579345703125,1.5352952480316162,0.1017250046133995,1.3177542686462402
1733751860762555400,0.673555419921875,1.6789636611938477,-0.1954646110534668,1.244566798210144
1733751860772530400,0.683530517578125,1.5092260837554932,-0.34400132298469543,1.1185649633407593
1733751860782506200,0.69350634765625,1.0797451734542847,-0.5689751505851746,1.0172685384750366
1733751860792482300,0.703482421875,0.8331979513168335,-0.967410147190094,1.0245957374572754
1733751860802458400,0.713458251953125,0.7741965651512146,-1.3355767726898193,1.0214067697525024
1733751860812433200,0.72343310546875,0.8640422821044922,-1.494443655014038,0.915782630443573
1733751860822409500,0.733409423828125,1.0358881950378418,-1.4726579189300537,0.8232361078262329
1733751860832385300,0.74338525390625,1.229159951210022,-1.5090289115905762,0.8352786302566528
1733751860842361000,0.753361083984375,1.4100219011306763,-1.5574356317520142,0.8807336688041687
1733751860852337400,0.76333740234375,1.5757362842559814,-1.5920599699020386,0.9086071252822876
1733751860862312200,0.773312255859375,1.6916860342025757,-1.6797336339950562,0.9306973814964294
1733751860872288300,0.783288330078125,1.7363775968551636,-1.7222648859024048,0.9638662934303284
1733751860882264300,0.793264404296875,1.779151201248169,-1.6723932027816772,1.0023810863494873
1733751860892240400,0.803240478515625,1.8415558338165283,-1.7152926921844482,1.0826631784439087
1733751860902216400,0.813216552734375,1.9030500650405884,-1.81423819065094,1.181536316871643
1733751860912191500,0.82319140625,1.9326181411743164,-1.9334771633148193,1.2286884784698486
1733751860922167300,0.833167236328125,1.9727579355239868,-1.9786183834075928,1.1966763734817505
1733751860932143000,0.84314306640625,1.9746191501617432,-2.0223348140716553,1.110257625579834
1733751860942119400,0.853119384765625,1.9492031335830688,-1.995376706123352,1.0067137479782104
1733751860952094200,0.86309423828125,1.9341764450073242,-1.9050981998443604,0.8901119828224182
1733751860962070300,0.8730703125,1.89612877368927,-1.8409993648529053,0.782400906085968
1733751860972046300,0.88304638671875,1.8324171304702759,-1.785065770149231,0.7782996296882629
1733751860982022400,0.8930224609375,1.7879490852355957,-1.6495518684387207,0.8805965185165405
1733751860991998500,0.90299853515625,1.7784395217895508,-1.5147285461425781,0.9792384505271912
1733751861001973500,0.912973388671875,1.7610150575637817,-1.4873114824295044,1.0344598293304443
1733751861011949300,0.92294921875,1.713639497756958,-1.5308480262756348,1.0047860145568848
1733751861021925000,0.932925048828125,1.6280159950256348,-1.5956395864486694,0.8580028414726257
1733751861031901400,0.9429013671875,1.4751050472259521,-1.6336331367492676,0.6597296595573425
1733751861041876200,0.952876220703125,1.2877066135406494,-1.648687720298767,0.5054141283035278
1733751861051852300,0.962852294921875,1.1417752504348755,-1.6151113510131836,0.43460702896118164
1733751861061828400,0.972828369140625,1.0816030502319336,-1.5462039709091187,0.4029563069343567
1733751861071804200,0.98280419921875,1.1221046447753906,-1.4002013206481934,0.407087117433548
1733751861081780500,0.992780517578125,1.2126644849777222,-1.149265170097351,0.4083983600139618
1733751861091755300,1.00275537109375,1.2729816436767578,-0.799431562423706,0.40274208784103394
1733751861101731300,1.0127314453125,1.3289399147033691,-0.4609464704990387,0.3862244188785553
1733751861111707100,1.02270703125,1.3593521118164062,-0.26630136370658875,0.3249935507774353
1733751861121683500,1.032683349609375,1.3076155185699463,-0.24484780430793762,0.21977181732654572
1733751861131659300,1.0426591796875,1.1211609840393066,-0.3691710829734802,0.08921539783477783
1733751861141634300,1.05263427734375,0.8304701447486877,-0.561761736869812,-0.07558339089155197
1733751861151610400,1.0626103515625,0.5357468724250793,-0.6770244240760803,-0.2602357864379883
1733751861161586200,1.072586181640625,0.40558189153671265,-0.648415744304657,-0.45374050736427307
1733751861171562500,1.0825625,0.43117648363113403,-0.6012900471687317,-0.5490680932998657
1733751861181537300,1.092537353515625,0.4777275323867798,-0.5522395968437195,-0.5664120316505432
1733751861191513300,1.102513427734375,0.46220874786376953,-0.5042814016342163,-0.5514519810676575
1733751861201489400,1.112489501953125,0.39403730630874634,-0.5107628703117371,-0.5319036841392517
1733751861211465500,1.122465576171875,0.3330517113208771,-0.5967275500297546,-0.5350453853607178
1733751861221441500,1.132441650390625,0.28682973980903625,-0.7167689800262451,-0.555652379989624
1733751861231416600,1.14241650390625,0.2453153133392334,-0.7780160903930664,-0.5702674984931946
1733751861241392400,1.152392333984375,0.21430253982543945,-0.8031521439552307,-0.5752632021903992
1733751861251368400,1.162368408203125,0.19940029084682465,-0.8174322843551636,-0.6160692572593689
1733751861261344500,1.172344482421875,0.21703468263149261,-0.7885550260543823,-0.7202961444854736
1733751861271320300,1.1823203125,0.2906348705291748,-0.6995005011558533,-0.7781914472579956
1733751861281295600,1.192295654296875,0.3972797691822052,-0.6341506838798523,-0.7084406018257141
1733751861291271400,1.202271484375,0.497044175863266,-0.6101899743080139,-0.5739874243736267
1733751861301247200,1.212247314453125,0.5722119212150574,-0.6293590068817139,-0.43437469005584717
1733751861311223600,1.2222236328125,0.6087995171546936,-0.6959324479103088,-0.34589090943336487
1733751861321198300,1.2321982421875,0.5784121155738831,-0.7483854293823242,-0.31442081928253174
1733751861331174400,1.24217431640625,0.5315753817558289,-0.8120315074920654,-0.33888888359069824
1733751861341150500,1.252150390625,0.5141986608505249,-0.9207695126533508,-0.3935077488422394
1733751861351126500,1.26212646484375,0.5537497997283936,-1.007934808731079,-0.45450663566589355
1733751861361102300,1.272102294921875,0.6202594041824341,-1.05820894241333,-0.4869288206100464
1733751861371077600,1.28207763671875,0.6815957427024841,-1.048680067062378,-0.5077435374259949
1733751861381053400,1.292053466796875,0.7608278393745422,-0.9486877918243408,-0.4944447875022888
1733751861391029200,1.302029296875,0.9005899429321289,-0.8148751258850098,-0.4455249309539795
1733751861401005600,1.312005615234375,1.008008599281311,-0.674210250377655,-0.34245914220809937
1733751861410981400,1.3219814453125,1.0153778791427612,-0.5463619828224182,-0.21825011074543
1733751861420956400,1.331956298828125,0.9881345629692078,-0.4594499170780182,-0.1448080837726593
1733751861430932500,1.341932373046875,1.002385139465332,-0.39245864748954773,-0.13207072019577026
1733751861440908500,1.351908447265625,1.0600237846374512,-0.3609071671962738,-0.15258371829986572
1733751861450884400,1.36188427734375,1.1113260984420776,-0.3710487484931946,-0.18543194234371185
1733751861460859600,1.371859619140625,1.1198275089263916,-0.4075862467288971,-0.22329117357730865
1733751861470835500,1.38183544921875,1.12862229347229,-0.3744029998779297,-0.2597842216491699
1733751861480811300,1.391811279296875,1.1633819341659546,-0.30223649740219116,-0.26077932119369507
1733751861490787600,1.40178759765625,1.2303553819656372,-0.2415558397769928,-0.21398518979549408
1733751861500763400,1.411763427734375,1.2958263158798218,-0.15298183262348175,-0.15977118909358978
1733751861510738400,1.421738525390625,1.3164348602294922,-0.06496649980545044,-0.10466266423463821
1733751861520714500,1.431714599609375,1.3140991926193237,-0.04235289990901947,-0.06707148998975754
1733751861530690300,1.441690185546875,1.286942720413208,-0.05284495651721954,-0.07518614083528519
1733751861540666400,1.451666259765625,1.2436009645462036,-0.08195201307535172,-0.14114882051944733
1733751861550641700,1.4616416015625,1.213850498199463,-0.11947675049304962,-0.254465252161026
1733751861560617500,1.471617431640625,1.1994127035140991,-0.15076422691345215,-0.4056398570537567
1733751861570593300,1.48159326171875,1.1973439455032349,-0.1940152943134308,-0.5179980993270874
1733751861580569600,1.491569580078125,1.20567786693573,-0.19583749771118164,-0.5654385685920715
1733751861590545400,1.50154541015625,1.219661831855774,-0.1230892464518547,-0.5329985618591309
1733751861600520400,1.5115205078125,1.2462400197982788,-0.0236846711486578,-0.44344618916511536
1733751861610496500,1.52149658203125,1.2494786977767944,0.03064621053636074,-0.3371570408344269
1733751861620472300,1.531472412109375,1.2259432077407837,0.06275718659162521,-0.27420109510421753
1733751861630448400,1.541448486328125,1.2012416124343872,0.08392292261123657,-0.2747550308704376
1733751861640423400,1.55142333984375,1.1909470558166504,0.11712930351495743,-0.3024981617927551
1733751861650399500,1.5613994140625,1.183970332145691,0.11767524480819702,-0.32146546244621277
1733751861660375300,1.571375244140625,1.1636377573013306,0.17727436125278473,-0.3055121600627899
1733751861670351600,1.5813515625,1.1446938514709473,0.26466891169548035,-0.26157480478286743
1733751861680327400,1.591327392578125,1.1765413284301758,0.3748760521411896,-0.22362923622131348
1733751861690302500,1.601302490234375,1.2233240604400635,0.45738399028778076,-0.17710568010807037
1733751861700278500,1.611278564453125,1.2429475784301758,0.46929866075515747,-0.12053658068180084
1733751861710254300,1.62125439453125,1.196671962738037,0.41629430651664734,-0.09017627686262131
1733751861720230400,1.63123046875,1.0829671621322632,0.343572199344635,-0.11054559051990509
1733751861730205400,1.641205322265625,0.9431724548339844,0.2813807427883148,-0.18316040933132172
1733751861740181500,1.651181396484375,0.8181871175765991,0.2431284785270691,-0.24103944003582
1733751861750157300,1.6611572265625,0.732274055480957,0.23985198140144348,-0.23567290604114532
1733751861760133600,1.671133544921875,0.7093389630317688,0.30726900696754456,-0.17055898904800415
1733751861770109400,1.681109375,0.7383695840835571,0.3946382701396942,-0.06123596802353859
1733751861780084500,1.69108447265625,0.770659863948822,0.48649513721466064,0.040552929043769836
1733751861790060500,1.701060546875,0.7641806602478027,0.533309817314148,0.08965283632278442
1733751861800036400,1.711036376953125,0.7002341151237488,0.5318476557731628,0.07899128645658493
1733751861810012400,1.721012451171875,0.6058860421180725,0.47837507724761963,0.007261176593601704
1733751861819988500,1.730988525390625,0.5166250467300415,0.38832658529281616,-0.08801482617855072
1733751861829963500,1.740963623046875,0.4538702964782715,0.26322034001350403,-0.17156243324279785
1733751861839939300,1.750939208984375,0.3763771951198578,0.18699422478675842,-0.2362297922372818
1733751861849915400,1.760915283203125,0.29811540246009827,0.1670636683702469,-0.2664793133735657
1733751861859891500,1.770891357421875,0.26835939288139343,0.18061888217926025,-0.25598299503326416
1733751861869866500,1.780866455078125,0.2801377475261688,0.17473143339157104,-0.22773617506027222
1733751861879842600,1.790842529296875,0.3068368434906006,0.16644901037216187,-0.18777300417423248
1733751861889818400,1.800818359375,0.3221694827079773,0.1514924317598343,-0.16350388526916504
1733751861899794400,1.81079443359375,0.312882661819458,0.1312522143125534,-0.1933230310678482
1733751861909770500,1.8207705078125,0.28007835149765015,0.09781916439533234,-0.2583789825439453
1733751861919745500,1.83074560546875,0.2304479330778122,0.030159611254930496,-0.32731762528419495
1733751861929721300,1.840721435546875,0.17588962614536285,-0.0032231153454631567,-0.36027026176452637
1733751861939697400,1.850697509765625,0.15484307706356049,0.043530628085136414,-0.3378162384033203
1733751861949673500,1.860673583984375,0.17584796249866486,0.09612726420164108,-0.26958420872688293
1733751861959648300,1.870648193359375,0.21818256378173828,0.14520235359668732,-0.20192836225032806
1733751861969624600,1.88062451171875,0.2744854986667633,0.1934574991464615,-0.1312241107225418
1733751861979600400,1.890600341796875,0.34287962317466736,0.24164456129074097,-0.05472419783473015
1733751861989576400,1.900576416015625,0.39680197834968567,0.25729355216026306,-0.0059332214295864105
1733751861999552500,1.910552490234375,0.40734240412712097,0.22883488237857819,-0.018067331984639168
1733751862009527600,1.920527587890625,0.3528671860694885,0.16300979256629944,-0.08071579784154892
1733751862019503400,1.93050341796875,0.24889498949050903,0.06167013570666313,-0.1620098501443863
1733751862029479400,1.9404794921875,0.13117846846580505,-0.04425843060016632,-0.2526148557662964
1733751862039455500,1.95045556640625,0.020820211619138718,-0.10989216715097427,-0.34876909852027893
1733751862049430300,1.96043017578125,-0.015200372785329819,-0.12461891770362854,-0.40243789553642273
1733751862059406600,1.970406494140625,0.027689499780535698,-0.11151833832263947,-0.3878127932548523
1733751862069382400,1.98038232421875,0.11243634670972824,-0.023308318108320236,-0.2990485727787018
1733751862079358500,1.9903583984375,0.19796259701251984,0.09297949075698853,-0.18415501713752747
1733751862089334500,2.00033447265625,0.25084418058395386,0.1953820288181305,-0.07529245316982269
1733751862099309600,2.0103095703125,0.26855719089508057,0.2609308958053589,0.017013639211654663
1733751862109285400,2.020285400390625,0.25407731533050537,0.22800438106060028,0.08540654182434082
1733751862119261400,2.030261474609375,0.19636167585849762,0.16891469061374664,0.10228569060564041
1733751862129237500,2.040237548828125,0.11240046471357346,0.10908438265323639,0.07588791102170944
1733751862139212300,2.05021240234375,0.04927600175142288,0.058927081525325775,0.02851485088467598
1733751862149188600,2.060188720703125,0.037615615874528885,0.030812889337539673,-0.023526513949036598
1733751862159164400,2.070164306640625,0.050315070897340775,0.02751268818974495,-0.05571437627077103
1733751862169140200,2.08014013671875,0.07908173650503159,0.0723283588886261,-0.04143610596656799
1733751862179116500,2.090116455078125,0.1192212849855423,0.10215666145086288,0.0076679359190166
1733751862189091300,2.10009130859375,0.14826838672161102,0.12824632227420807,0.05540642887353897
1733751862199066600,2.110066650390625,0.1576947122812271,0.09241370856761932,0.09333282709121704
1733751862209042700,2.120042724609375,0.12339533120393753,0.026029888540506363,0.08955779671669006
1733751862219018800,2.130018798828125,0.028064679354429245,-0.0315067283809185,0.039377644658088684
1733751862228993500,2.13999365234375,-0.06852417439222336,-0.07837144285440445,-0.0348646305501461
1733751862238969900,2.149969970703125,-0.12330640107393265,-0.06675300002098083,-0.07233235239982605
1733751862248945700,2.159945556640625,-0.10442779213190079,-0.02694060280919075,-0.07063991576433182
1733751862258921700,2.169921630859375,-0.04605023190379143,0.008906876668334007,-0.0526750348508358
1733751862268897800,2.179897705078125,-0.018102223053574562,0.034594397991895676,-0.03397032245993614
1733751862278872800,2.189872802734375,-0.02194746397435665,0.04637545719742775,-0.0167147945612669
1733751862288848600,2.1998486328125,-0.03831019252538681,0.06439520418643951,0.0024013740476220846
1733751862298824700,2.20982470703125,-0.025199804455041885,0.08797097951173782,0.04043695703148842
1733751862308800800,2.21980078125,-0.002026307862251997,0.08336929976940155,0.08105336129665375
1733751862318775600,2.229775634765625,0.010778607800602913,0.08928202092647552,0.1152580976486206
1733751862328751900,2.239751953125,0.015113967470824718,0.09529543668031693,0.13410048186779022
1733751862338727700,2.249727783203125,0.02084345929324627,0.10999860614538193,0.14596638083457947
1733751862348703700,2.259703857421875,0.016952846199274063,0.13282668590545654,0.14921784400939941
1733751862358679800,2.2696796875,0.020328179001808167,0.15926341712474823,0.1536748856306076
1733751862368654800,2.27965478515625,0.01439705304801464,0.15875528752803802,0.15606160461902618
1733751862378630700,2.289630615234375,0.0006492144311778247,0.16004180908203125,0.15756025910377502
1733751862388606700,2.299606689453125,-0.01688477210700512,0.16272440552711487,0.16303998231887817
1733751862398582800,2.309582763671875,-0.01648295298218727,0.1439070850610733,0.16206860542297363
1733751862408557600,2.3195576171875,0.006025819107890129,0.1050528883934021,0.16008907556533813
1733751862418534000,2.329533935546875,0.020186269655823708,0.08763279765844345,0.16151532530784607
1733751862428509700,2.339509765625,0.014584574848413467,0.0895092561841011,0.18130020797252655
1733751862438485500,2.349485595703125,0.0005858157528564334,0.10957164317369461,0.2205759435892105
1733751862448461800,2.3594619140625,-0.01361016370356083,0.10889360308647156,0.2752245366573334
1733751862458436600,2.3694365234375,-0.02256006933748722,0.08130898326635361,0.3048887252807617
1733751862468412700,2.37941259765625,-0.030428379774093628,0.07623007148504257,0.3154745399951935
1733751862478388700,2.389388671875,-0.04427800327539444,0.09828424453735352,0.33519840240478516
1733751862488364800,2.39936474609375,-0.05277801305055618,0.145921528339386,0.36389556527137756
1733751862498339600,2.409339599609375,-0.0674484446644783,0.1753484010696411,0.3988674283027649
1733751862508316000,2.41931591796875,-0.10629011690616608,0.19480891525745392,0.4165785014629364
1733751862518291700,2.429291748046875,-0.1497708559036255,0.16983625292778015,0.4114189147949219
1733751862528267500,2.439267578125,-0.19709044694900513,0.1174984723329544,0.39350569248199463
1733751862538243800,2.449243896484375,-0.2471986562013626,0.07516144216060638,0.3665543794631958
1733751862548218600,2.459218505859375,-0.29118502140045166,0.04654231294989586,0.3457053005695343
1733751862558194700,2.469194580078125,-0.31442946195602417,0.02193363755941391,0.33910247683525085
1733751862568170800,2.479170654296875,-0.323480486869812,0.008594661951065063,0.33599165081977844
1733751862578146800,2.489146728515625,-0.3207702934741974,0.015584799461066723,0.33669766783714294
1733751862588121600,2.49912158203125,-0.3245599567890167,0.026986325159668922,0.34623366594314575
1733751862598098000,2.509097900390625,-0.33849766850471497,0.04416384547948837,0.34599342942237854
1733751862608073700,2.51907373046875,-0.3629838526248932,0.04686189070343971,0.3472195565700531
1733751862618049500,2.529049560546875,-0.38506364822387695,0.04404156282544136,0.35886645317077637
1733751862628025900,2.53902587890625,-0.39113378524780273,0.05389499291777611,0.39299991726875305
1733751862638000600,2.549000732421875,-0.3984595537185669,0.0746544674038887,0.45161932706832886
1733751862647976700,2.558976806640625,-0.38692301511764526,0.12037614732980728,0.5234410762786865
1733751862657952800,2.568952880859375,-0.37594422698020935,0.1781621277332306,0.628513514995575
1733751862667928600,2.578928466796875,-0.3718394935131073,0.22878748178482056,0.7373031377792358
1733751862677903600,2.588903564453125,-0.3774068057537079,0.24505119025707245,0.8176841735839844
1733751862687879700,2.598879638671875,-0.41499200463294983,0.2388894408941269,0.8623499274253845
1733751862697855700,2.608855712890625,-0.4749833345413208,0.2469782680273056,0.8780615925788879
1733751862707831600,2.61883154296875,-0.5277083516120911,0.24801449477672577,0.8612722158432007
1733751862717807900,2.628807861328125,-0.552825927734375,0.2187644988298416,0.813044548034668
1733751862727782700,2.63878271484375,-0.5560718178749084,0.16869999468326569,0.7517862915992737
1733751862737758700,2.6487587890625,-0.5681482553482056,0.09706296771764755,0.7107850909233093
1733751862747734800,2.65873486328125,-0.6064146757125854,0.07418348640203476,0.7074832916259766
1733751862757710600,2.668710693359375,-0.6532217860221863,0.11507698893547058,0.733243465423584
1733751862767685600,2.678685546875,-0.6809261441230774,0.1894947588443756,0.7787547707557678
1733751862777661700,2.68866162109375,-0.6805391907691956,0.25193893909454346,0.814972460269928
1733751862787637800,2.6986376953125,-0.6828193664550781,0.29300037026405334,0.8238703012466431
1733751862797613600,2.708613525390625,-0.7357107400894165,0.297632098197937,0.815936803817749
1733751862807590000,2.71858984375,-0.8508399724960327,0.2527991235256195,0.7811495661735535
1733751862817564700,2.728564697265625,-0.9692345261573792,0.15988387167453766,0.7202901244163513
1733751862827540700,2.738540771484375,-1.0429198741912842,0.07468722015619278,0.6718030571937561
1733751862837516800,2.748516845703125,-1.033545732498169,0.028709469363093376,0.6814281940460205
1733751862847492600,2.75849267578125,-0.9457583427429199,-0.03163536265492439,0.7690608501434326
1733751862857467600,2.768467529296875,-0.8532344102859497,-0.0989115983247757,0.8617753982543945
1733751862867443700,2.778443603515625,-0.7923170328140259,-0.13667336106300354,0.9107527732849121
1733751862877419800,2.788419677734375,-0.7947140336036682,-0.14874707162380219,0.8981219530105591
1733751862887395600,2.7983955078125,-0.8435425162315369,-0.14730790257453918,0.8391278982162476
1733751862897371600,2.80837158203125,-0.9291658401489258,-0.12367473542690277,0.744590163230896
1733751862907346700,2.8183466796875,-1.0130168199539185,-0.10475163906812668,0.6397649645805359
1733751862917322800,2.82832275390625,-1.0743837356567383,-0.13987310230731964,0.557755172252655
1733751862927298800,2.838298828125,-1.1169997453689575,-0.13184766471385956,0.5145949125289917
1733751862937274600,2.848274658203125,-1.0968554019927979,-0.01968899369239807,0.5182819962501526
1733751862947249700,2.858249755859375,-1.0059551000595093,0.07459010183811188,0.5874895453453064
1733751862957225700,2.868225830078125,-0.8854929208755493,0.12487639486789703,0.7153206467628479
1733751862967201800,2.878201904296875,-0.7844422459602356,0.1666765809059143,0.8397610783576965
1733751862977177600,2.888177490234375,-0.7365754842758179,0.25646424293518066,0.9235019683837891
1733751862987153700,2.898153564453125,-0.7491331100463867,0.36608394980430603,0.9273492097854614
1733751862997128700,2.908128662109375,-0.7999107837677002,0.4437761604785919,0.8481794595718384
1733751863007104500,2.9181044921875,-0.8497161269187927,0.5147635340690613,0.7405675649642944
1733751863017080800,2.928080810546875,-0.8550171852111816,0.5501049160957336,0.6525509357452393
1733751863027056600,2.938056640625,-0.8226107358932495,0.5325477719306946,0.5898052453994751
1733751863037031700,2.94803173828125,-0.7467710375785828,0.49682196974754333,0.5218496918678284
1733751863047007700,2.9580078125,-0.6332958340644836,0.35910433530807495,0.4687182903289795
1733751863056983800,2.96798388671875,-0.5539485812187195,0.17233338952064514,0.4538368284702301
1733751863066959600,2.977959716796875,-0.5567345023155212,0.05471568927168846,0.4277748465538025
1733751863076934700,2.9879345703125,-0.6632663607597351,0.0007657231763005257,0.4007667303085327
1733751863086910700,2.99791064453125,-0.8243489861488342,0.016063719987869263,0.3967035412788391
1733751863096886500,3.007886474609375,-0.9885993599891663,0.08477798104286194,0.4289386570453644
1733751863106862800,3.01786279296875,-1.0913115739822388,0.15612059831619263,0.48605281114578247
1733751863116838700,3.027838623046875,-1.1003963947296143,0.19428463280200958,0.5305962562561035
1733751863126813700,3.037813720703125,-1.0517362356185913,0.23111455142498016,0.5325262546539307
1733751863136789800,3.047789794921875,-0.9724524617195129,0.24057996273040771,0.5049718618392944
1733751863146765800,3.057765869140625,-0.8872909545898438,0.19211415946483612,0.4693600535392761
1733751863156741600,3.06774169921875,-0.8239650130271912,0.15905500948429108,0.4609204828739166
1733751863166716700,3.077716552734375,-0.7993728518486023,0.17702895402908325,0.47274041175842285
1733751863176692700,3.087692626953125,-0.8104963302612305,0.2833248972892761,0.4985385239124298
1733751863186668500,3.09766845703125,-0.8236774206161499,0.4525221586227417,0.549826979637146
1733751863196645000,3.10764501953125,-0.8130611777305603,0.5883554816246033,0.6187228560447693
1733751863206621200,3.11762109375,-0.7878863215446472,0.6645503640174866,0.6623049378395081
1733751863216596200,3.12759619140625,-0.7658101320266724,0.722296953201294,0.6624617576599121
1733751863226572000,3.137572021484375,-0.7416459321975708,0.7368109226226807,0.6781818270683289
1733751863236548000,3.147548095703125,-0.7412804365158081,0.6871426105499268,0.7567400932312012
1733751863246524200,3.157524169921875,-0.7612032890319824,0.5551488995552063,0.8513925671577454
1733751863256499000,3.1674990234375,-0.8162513375282288,0.42516782879829407,0.9079952239990234
1733751863266475000,3.17747509765625,-0.886776864528656,0.36269086599349976,0.8870862126350403
1733751863276451000,3.187451171875,-0.9274269342422485,0.37901759147644043,0.7991625070571899
1733751863286427100,3.19742724609375,-0.9353261590003967,0.47768503427505493,0.6953538656234741
1733751863296403200,3.2074033203125,-0.9002724289894104,0.6021263599395752,0.6124008893966675
1733751863306378200,3.217378173828125,-0.8175306916236877,0.6729270219802856,0.5664344429969788
1733751863316354000,3.22735400390625,-0.7006468772888184,0.6791743636131287,0.5345317721366882
1733751863326330000,3.237330078125,-0.5966022610664368,0.6198575496673584,0.5416229963302612
1733751863336306200,3.24730615234375,-0.540509045124054,0.5438833236694336,0.5819113254547119
1733751863346281000,3.257281005859375,-0.5450161695480347,0.5234755277633667,0.6297110915184021
1733751863356257000,3.267257080078125,-0.5761696100234985,0.5716092586517334,0.6582879424095154
1733751863366233000,3.277233154296875,-0.5972298979759216,0.6631929874420166,0.6670238971710205
1733751863376209000,3.287208984375,-0.5636537075042725,0.7780315279960632,0.6524596810340881
1733751863386185200,3.297185302734375,-0.48216816782951355,0.8790550827980042,0.643202543258667
1733751863396160000,3.307159912109375,-0.39603397250175476,0.9457156658172607,0.6690508127212524
1733751863406136000,3.317135986328125,-0.3211197853088379,0.9750344157218933,0.6968517899513245
1733751863416112000,3.327112060546875,-0.2493760585784912,0.9550506472587585,0.7178964018821716
1733751863426088200,3.337088134765625,-0.20633165538311005,0.8857256770133972,0.7375966310501099
1733751863436063000,3.34706298828125,-0.2019367814064026,0.8025874495506287,0.7359647750854492
1733751863446039000,3.3570390625,-0.2140538990497589,0.7242391109466553,0.6917089223861694
1733751863456015000,3.36701513671875,-0.26817572116851807,0.6615771055221558,0.6177243590354919
1733751863465991000,3.376990966796875,-0.323840856552124,0.6098846197128296,0.5412737727165222
1733751863475966000,3.386966064453125,-0.37415507435798645,0.5715351700782776,0.49305322766304016
1733751863485942000,3.39694189453125,-0.39195510745048523,0.5540288686752319,0.49041110277175903
1733751863495918000,3.40691796875,-0.3890724778175354,0.5472446084022522,0.5467218160629272
1733751863505894100,3.41689404296875,-0.37390151619911194,0.5259241461753845,0.6256091594696045
1733751863515870200,3.4268701171875,-0.3751809000968933,0.5224506855010986,0.6764078140258789
1733751863525845000,3.436844970703125,-0.3829592168331146,0.5290127396583557,0.6844721436500549
1733751863535821000,3.446821044921875,-0.38089945912361145,0.5256650447845459,0.6609999537467957
1733751863545797000,3.456797119140625,-0.35556668043136597,0.5051027536392212,0.6199321746826172
1733751863555773000,3.46677294921875,-0.31725624203681946,0.5039956569671631,0.5784186124801636
1733751863565748000,3.476748046875,-0.27230340242385864,0.5568897724151611,0.555971086025238
1733751863575724000,3.48672412109375,-0.2358425408601761,0.6174655556678772,0.579616129398346
1733751863585700000,3.4967001953125,-0.22630469501018524,0.6194860935211182,0.6292981505393982
1733751863595676200,3.50667626953125,-0.2568560242652893,0.5984627604484558,0.661328911781311
1733751863605652000,3.51665185546875,-0.31467723846435547,0.5548703074455261,0.6596463322639465
1733751863615627000,3.526626953125,-0.38700389862060547,0.4764476716518402,0.6338791847229004
1733751863625603000,3.53660302734375,-0.4421784579753876,0.39121878147125244,0.5839387774467468
1733751863635579100,3.5465791015625,-0.4790225625038147,0.31242698431015015,0.5263458490371704
1733751863645555000,3.556554931640625,-0.49860692024230957,0.23635804653167725,0.4698176383972168
1733751863655530000,3.566530029296875,-0.5082746148109436,0.1788514405488968,0.4240417182445526
1733751863665506000,3.576506103515625,-0.510258674621582,0.14296826720237732,0.3886011838912964
1733751863675482000,3.586482177734375,-0.5260508060455322,0.1345692127943039,0.358397513628006
1733751863685458200,3.596458251953125,-0.5389959216117859,0.14315123856067657,0.3295557498931885
1733751863695434000,3.60643408203125,-0.551771879196167,0.15269184112548828,0.32339566946029663
1733751863705409000,3.616408935546875,-0.5563303828239441,0.18990525603294373,0.35376742482185364
1733751863715385000,3.626385009765625,-0.5443019270896912,0.2459857016801834,0.38835686445236206
1733751863725361200,3.636361083984375,-0.517485499382019,0.32344773411750793,0.4084203243255615
1733751863735337000,3.6463369140625,-0.4809770882129669,0.3558339476585388,0.40129896998405457
1733751863745312000,3.65631201171875,-0.45099735260009766,0.3278430700302124,0.368651807308197
1733751863755288000,3.6662880859375,-0.44835349917411804,0.2709764838218689,0.29412150382995605
1733751863765264100,3.67626416015625,-0.4751845598220825,0.22060440480709076,0.18906138837337494
1733751863775240200,3.686240234375,-0.507603645324707,0.18927133083343506,0.10933574289083481
1733751863785215200,3.69621533203125,-0.5509569644927979,0.15320520102977753,0.09075354039669037
1733751863795191000,3.70619091796875,-0.6026824116706848,0.15808717906475067,0.13248607516288757
1733751863805166800,3.716166748046875,-0.6057721972465515,0.21771109104156494,0.20957979559898376
1733751863815143200,3.72614306640625,-0.5646653175354004,0.2778380513191223,0.27854058146476746
1733751863825119000,3.736118896484375,-0.4902142584323883,0.3251799941062927,0.3252878487110138
1733751863835094000,3.746093994140625,-0.43499666452407837,0.31644099950790405,0.36148780584335327
1733751863845070000,3.756070068359375,-0.4324762523174286,0.25693851709365845,0.38691461086273193
1733751863855046100,3.766046142578125,-0.4629152715206146,0.18474484980106354,0.4002387821674347
1733751863865022200,3.776022216796875,-0.5044267177581787,0.10961174219846725,0.40545058250427246
1733751863874997200,3.785997314453125,-0.5433606505393982,0.036375295370817184,0.40671804547309875
1733751863884973000,3.79597314453125,-0.562576949596405,0.0221545472741127,0.38448092341423035
1733751863894948900,3.805948974609375,-0.5714542865753174,0.05002479627728462,0.35788846015930176
1733751863904925200,3.81592529296875,-0.5767870545387268,0.08099469542503357,0.33049678802490234
1733751863914901000,3.82590087890625,-0.5691282153129578,0.10286053270101547,0.328079491853714
1733751863924876000,3.8358759765625,-0.5522671937942505,0.09535068273544312,0.34169623255729675
1733751863934852000,3.84585205078125,-0.5242274403572083,0.08258513361215591,0.3507930040359497
1733751863944828200,3.855828125,-0.48715779185295105,0.09747140109539032,0.35550597310066223
1733751863954804200,3.86580419921875,-0.45127996802330017,0.10685709863901138,0.3695319890975952
1733751863964779300,3.875779296875,-0.43519794940948486,0.16788184642791748,0.3785739541053772
1733751863974755000,3.885755126953125,-0.4062182903289795,0.22111421823501587,0.3706265091896057
1733751863984731000,3.89573095703125,-0.36414939165115356,0.2125241905450821,0.34896302223205566
1733751863994707200,3.905707275390625,-0.3141067326068878,0.17003343999385834,0.30643734335899353
1733751864004682000,3.915681884765625,-0.27191001176834106,0.14261141419410706,0.2519935369491577
1733751864014658000,3.925657958984375,-0.24307535588741302,0.14019951224327087,0.19605356454849243
1733751864024634000,3.935634033203125,-0.2133837789297104,0.11945082992315292,0.16312330961227417
1733751864034610000,3.94560986328125,-0.17545844614505768,0.09111998975276947,0.1307171881198883
1733751864044586200,3.955586181640625,-0.14348000288009644,0.09974117577075958,0.0805451050400734
1733751864054561000,3.96556103515625,-0.1544906347990036,0.1551254689693451,0.04495806619524956
1733751864064537000,3.975537109375,-0.20540361106395721,0.20497851073741913,0.08708102256059647
1733751864074513000,3.985512939453125,-0.2609635591506958,0.20246228575706482,0.19291739165782928
1733751864084489200,3.9954892578125,-0.30033254623413086,0.24102112650871277,0.2954826354980469
1733751864094464000,4.005464111328125,-0.29930922389030457,0.3086741268634796,0.35212400555610657
1733751864104440000,4.015440185546875,-0.26013919711112976,0.3579540550708771,0.35501089692115784
1733751864114416000,4.025416015625,-0.18723835051059723,0.37460413575172424,0.31592100858688354
1733751864124392000,4.035391845703125,-0.10635494440793991,0.3596739172935486,0.2659292221069336
1733751864134368300,4.0453681640625,-0.05392890423536301,0.29836928844451904,0.23402297496795654
1733751864144343000,4.055343017578125,-0.0881718322634697,0.19950290024280548,0.24183189868927002
1733751864154319000,4.065319091796875,-0.20998798310756683,0.11292724311351776,0.3048323690891266
1733751864164295000,4.075294921875,-0.3717997968196869,0.08762135356664658,0.41592827439308167
1733751864174271200,4.085271240234375,-0.5066425800323486,0.09623188525438309,0.5576850771903992
1733751864184246000,4.09524609375,-0.5669224262237549,0.14619386196136475,0.6783944964408875
1733751864194222000,4.10522216796875,-0.5560303330421448,0.21164511144161224,0.7410350441932678
1733751864204198000,4.115197998046875,-0.5186328887939453,0.2518937289714813,0.7556092143058777
1733751864214174000,4.125174072265625,-0.47156912088394165,0.23429779708385468,0.7098333239555359
1733751864224149000,4.13514892578125,-0.448415070772171,0.18572600185871124,0.6339742541313171
1733751864234124800,4.145124755859375,-0.4505249261856079,0.16038654744625092,0.5312587022781372
1733751864244101000,4.15510107421875,-0.4644434154033661,0.14798445999622345,0.4456753730773926
1733751864254077000,4.165076904296875,-0.47313687205314636,0.13839216530323029,0.38612425327301025
1733751864264053000,4.175052978515625,-0.48954352736473083,0.1437576413154602,0.34527188539505005
1733751864274028000,4.185028076171875,-0.49392062425613403,0.16148526966571808,0.34185248613357544
1733751864284004000,4.195004150390625,-0.49358370900154114,0.1480157971382141,0.37951117753982544
1733751864293980000,4.20497998046875,-0.4786336421966553,0.13265439867973328,0.40711474418640137
1733751864303956000,4.2149560546875,-0.44472894072532654,0.10340063273906708,0.39024654030799866
1733751864313931000,4.224930908203125,-0.4006271958351135,0.0277702733874321,0.30327895283699036
1733751864323906800,4.23490673828125,-0.35270893573760986,-0.048118896782398224,0.14980043470859528
1733751864333883100,4.244883056640625,-0.3295009136199951,-0.08731228858232498,-0.035223931074142456
1733751864343859000,4.25485888671875,-0.3267277777194977,-0.03550475090742111,-0.2027980089187622
1733751864353834800,4.264834716796875,-0.32612866163253784,0.002362079219892621,-0.30847299098968506
1733751864363810000,4.27481005859375,-0.30001023411750793,0.03580525889992714,-0.34327438473701477
1733751864373785900,4.284785888671875,-0.27769652009010315,0.06025848165154457,-0.2806274890899658
1733751864383762000,4.294761962890625,-0.26599326729774475,0.09649983793497086,-0.14698076248168945
1733751864393738000,4.304738037109375,-0.2922372817993164,0.11576155573129654,0.029133031144738197
1733751864403713000,4.314713134765625,-0.3017711341381073,0.1695837676525116,0.1650136262178421
1733751864413688800,4.324688720703125,-0.3001082241535187,0.21032655239105225,0.26113778352737427
1733751864423665200,4.3346650390625,-0.26815852522850037,0.21133962273597717,0.26721805334091187
1733751864433641000,4.344640869140625,-0.22182448208332062,0.22294220328330994,0.2225392907857895
1733751864443616000,4.354615966796875,-0.1848539412021637,0.21725262701511383,0.14780274033546448
1733751864453592000,4.364592041015625,-0.18448977172374725,0.2047543227672577,0.06843247264623642
1733751864463568000,4.37456787109375,-0.19722020626068115,0.1728094518184662,-0.021605277433991432
1733751864473544000,4.3845439453125,-0.20849083364009857,0.1337990164756775,-0.1165040135383606
1733751864483520000,4.39452001953125,-0.21865558624267578,0.10000084340572357,-0.18394404649734497
1733751864493495000,4.4044951171875,-0.227621927857399,0.0963907539844513,-0.19026440382003784
1733751864503470800,4.414470947265625,-0.22894205152988434,0.10728707909584045,-0.12044831365346909
1733751864513447200,4.424447265625,-0.23425105214118958,0.11142463982105255,0.002687779488041997
1733751864523423000,4.434423095703125,-0.22602428495883942,0.08586814999580383,0.13743920624256134
1733751864533398000,4.44439794921875,-0.18541283905506134,0.06670363992452621,0.23552390933036804
1733751864543374000,4.4543740234375,-0.1534852683544159,0.051720697432756424,0.2815617322921753
1733751864553350000,4.464349853515625,-0.13578101992607117,0.039823856204748154,0.265906423330307
1733751864563326000,4.474325927734375,-0.14668452739715576,-0.001689762924797833,0.19045934081077576
1733751864573302000,4.484302001953125,-0.18078570067882538,-0.042366158217191696,0.07932727038860321
1733751864583277000,4.494277099609375,-0.21851150691509247,-0.06861906498670578,-0.01773402839899063
1733751864593252900,4.5042529296875,-0.2622414827346802,-0.13048061728477478,-0.08262025564908981
1733751864603229000,4.51422900390625,-0.3268015682697296,-0.19777150452136993,-0.10243550688028336
1733751864613205000,4.524205078125,-0.38973507285118103,-0.21099023520946503,-0.08767735213041306
1733751864623180000,4.534179931640625,-0.4210224151611328,-0.12168432772159576,-0.0213923342525959
1733751864633156000,4.544156005859375,-0.39992570877075195,-0.025092316791415215,0.08807326853275299
1733751864643132000,4.5541318359375,-0.33617734909057617,0.0883929654955864,0.20122645795345306
1733751864653108000,4.56410791015625,-0.2562152147293091,0.20344023406505585,0.3041684925556183
1733751864663082800,4.574082763671875,-0.21438655257225037,0.28423309326171875,0.3932858407497406
1733751864673059000,4.58405908203125,-0.21371914446353912,0.32986441254615784,0.4523354768753052
1733751864683035000,4.594034912109375,-0.2696969211101532,0.31793904304504395,0.5080801844596863
1733751864693011000,4.604010986328125,-0.3680776059627533,0.2783172130584717,0.5408863425254822
1733751864702987000,4.613987060546875,-0.4795801639556885,0.27341407537460327,0.5544061660766602
1733751864712961800,4.6239619140625,-0.5561496615409851,0.3504428565502167,0.580253005027771
1733751864722938000,4.633938232421875,-0.5942137241363525,0.4529300928115845,0.6292898058891296
1733751864732914000,4.643913818359375,-0.6111015677452087,0.5334769487380981,0.6937466859817505
1733751864742890000,4.653889892578125,-0.625731885433197,0.5664176344871521,0.7783020734786987
1733751864752864800,4.66386474609375,-0.660210132598877,0.5637819170951843,0.8727921843528748
1733751864762841000,4.673841064453125,-0.7047792077064514,0.5243157744407654,0.9548707604408264
1733751864772817000,4.68381689453125,-0.7355318069458008,0.4464544951915741,1.00059175491333
1733751864782793000,4.69379296875,-0.7534117698669434,0.3479747772216797,0.9992044568061829
1733751864792768000,4.70376806640625,-0.7520862817764282,0.2417239248752594,0.9591432213783264
1733751864802743800,4.713743896484375,-0.7351557612419128,0.15403376519680023,0.9338354468345642
1733751864812720000,4.72372021484375,-0.7307277321815491,0.1814361810684204,0.9341833591461182
1733751864822696000,4.733696044921875,-0.7372729778289795,0.3559696078300476,0.9475380182266235
1733751864832672000,4.743672119140625,-0.7350074052810669,0.5921366214752197,0.9566971659660339
1733751864842646800,4.753646728515625,-0.6963327527046204,0.7936103343963623,0.9727392792701721
1733751864852623000,4.763623046875,-0.6430101990699768,0.851089358329773,1.0004783868789673
1733751864862599000,4.773598876953125,-0.5953907370567322,0.8072894215583801,1.0190595388412476
1733751864872575000,4.783574951171875,-0.5818997025489807,0.6849572062492371,1.0178043842315674
1733751864882550000,4.793550048828125,-0.6094689965248108,0.5268765091896057,1.0016385316848755
1733751864892525800,4.80352587890625,-0.6527212262153625,0.36732757091522217,0.9586514234542847
1733751864902502100,4.813502197265625,-0.6679022908210754,0.24023939669132233,0.8526557683944702
1733751864912478000,4.82347802734375,-0.6442005038261414,0.1848755180835724,0.7134906053543091
1733751864922453000,4.833452880859375,-0.5856602191925049,0.2499522566795349,0.609932541847229
1733751864932428800,4.8434287109375,-0.5381457209587097,0.45842984318733215,0.6131930351257324
1733751864942404900,4.85340478515625,-0.5151040554046631,0.6855191588401794,0.696233332157135
1733751864952381000,4.863380859375,-0.492269366979599,0.8275793194770813,0.8004648089408875
1733751864962357000,4.87335693359375,-0.4801754355430603,0.8281819820404053,0.8657798767089844
1733751864972332000,4.88333203125,-0.5160698890686035,0.7384524941444397,0.858832061290741
1733751864982307800,4.893307861328125,-0.6013139486312866,0.5864248871803284,0.7710846066474915
1733751864992284200,4.9032841796875,-0.6982434988021851,0.36798691749572754,0.6631933450698853
1733751865002260000,4.913260009765625,-0.8049707412719727,0.11262493580579758,0.5750014185905457
1733751865012235000,4.923235107421875,-0.909909188747406,-0.08534128218889236,0.5219258666038513
1733751865022210800,4.9332109375,-0.9664923548698425,-0.18956461548805237,0.5005484223365784
1733751865032187000,4.943186767578125,-0.9204921126365662,-0.2218049317598343,0.47648510336875916
1733751865042163000,4.953162841796875,-0.8216826915740967,-0.18759849667549133,0.44755280017852783
1733751865052139000,4.963138916015625,-0.7286505699157715,-0.05567144602537155,0.43312203884124756
1733751865062114000,4.973114013671875,-0.6413002014160156,0.08852168172597885,0.45940902829170227
1733751865072089900,4.98308984375,-0.5518136024475098,0.19129054248332977,0.5376719236373901
1733751865082066200,4.993066162109375,-0.5085505247116089,0.23145154118537903,0.6470308899879456
1733751865092042000,5.0030419921875,-0.5230965614318848,0.23883160948753357,0.721435546875
1733751865102017000,5.01301708984375,-0.5642115473747253,0.20660336315631866,0.7196448445320129
1733751865111992800,5.022992919921875,-0.6251999139785767,0.1582944244146347,0.6368055939674377
1733751865121969000,5.032968994140625,-0.672624945640564,0.12453405559062958,0.548768937587738
1733751865131945000,5.042945068359375,-0.6780604124069214,0.09215573221445084,0.4962202310562134
1733751865141919700,5.052919677734375,-0.6515883207321167,0.06689006090164185,0.4966878890991211
1733751865151896000,5.06289599609375,-0.594010055065155,0.051261983811855316,0.5354899764060974
1733751865161872000,5.072871826171875,-0.5426877737045288,0.04803343489766121,0.5683717727661133
1733751865171848000,5.082847900390625,-0.5025151968002319,0.06094526872038841,0.5927456021308899
1733751865181823000,5.092822998046875,-0.46612629294395447,0.05053231120109558,0.6067080497741699
1733751865191799000,5.102799072265625,-0.45762860774993896,0.03311927616596222,0.6108707785606384
1733751865201775600,5.112775634765625,-0.45237019658088684,-0.0022642817348241806,0.5847475528717041
1733751865211751400,5.12275146484375,-0.4330146908760071,-0.06563175469636917,0.525600790977478
1733751865221727500,5.1327275390625,-0.40179550647735596,-0.15655100345611572,0.46176454424858093
1733751865231702500,5.14270263671875,-0.39741674065589905,-0.25745320320129395,0.4013930559158325
1733751865241678600,5.1526787109375,-0.4231676459312439,-0.3164403438568115,0.3618336617946625
1733751865251654700,5.162654541015625,-0.45775678753852844,-0.313934862613678,0.3453367054462433
1733751865261630500,5.17263037109375,-0.49559712409973145,-0.28115105628967285,0.36185765266418457
1733751865271605500,5.18260546875,-0.530895471572876,-0.21819421648979187,0.41282275319099426
1733751865281581600,5.19258154296875,-0.5577400922775269,-0.12971042096614838,0.4625628888607025
1733751865291557600,5.2025576171875,-0.5231854319572449,-0.021623380482196808,0.4786374270915985
1733751865301533400,5.212533447265625,-0.41148874163627625,0.06255408376455307,0.44933679699897766
1733751865311508700,5.2225087890625,-0.2483939230442047,0.0877683162689209,0.404436856508255
1733751865321484500,5.232484619140625,-0.11063018441200256,-0.002247053664177656,0.36184996366500854
1733751865331460400,5.24246044921875,-0.08758306503295898,-0.13933336734771729,0.33683907985687256
1733751865341436700,5.252436767578125,-0.17438560724258423,-0.2646012604236603,0.28607097268104553
1733751865351412500,5.26241259765625,-0.3210069239139557,-0.33471494913101196,0.18262583017349243
1733751865361387500,5.272387451171875,-0.4446100890636444,-0.3338451683521271,0.04205726087093353
1733751865371363600,5.282363525390625,-0.47953715920448303,-0.22480155527591705,-0.06701849400997162
1733751865381339600,5.292339599609375,-0.40510687232017517,-0.03726787865161896,-0.10163905471563339
1733751865391315500,5.3023154296875,-0.26576730608940125,0.16971422731876373,-0.06691054999828339
1733751865401290800,5.312290771484375,-0.11441212892532349,0.35559114813804626,-0.001286533661186695
1733751865411266600,5.3222666015625,0.006511466111987829,0.44802823662757874,0.05210040137171745
1733751865421242400,5.332242431640625,0.09195739030838013,0.4294974207878113,0.04545155167579651
1733751865431218700,5.34221875,0.13551446795463562,0.29793158173561096,-0.017653491348028183
1733751865441193500,5.352193359375,0.13344092667102814,0.11637378484010696,-0.1131587103009224
1733751865451169500,5.36216943359375,0.07410679757595062,-0.06802813708782196,-0.20150260627269745
1733751865461145600,5.3721455078125,-0.0375925712287426,-0.18878093361854553,-0.2412199229001999
1733751865471121700,5.38212158203125,-0.16991223394870758,-0.2449619024991989,-0.19617366790771484
1733751865481097500,5.392097412109375,-0.27003800868988037,-0.18523545563220978,-0.1227886825799942
1733751865491072800,5.40207275390625,-0.30416396260261536,-0.03220938891172409,-0.016524121165275574
1733751865501048600,5.412048583984375,-0.2912537753582001,0.14422155916690826,0.10853871703147888
1733751865511024400,5.4220244140625,-0.2573334574699402,0.30627110600471497,0.21985818445682526
1733751865521000700,5.432000732421875,-0.23763751983642578,0.3419598639011383,0.28503477573394775
1733751865530975500,5.4419755859375,-0.23802471160888672,0.22957539558410645,0.2893342673778534
1733751865540951600,5.45195166015625,-0.2643500864505768,0.0616266094148159,0.22341784834861755
1733751865550927600,5.461927734375,-0.2748585045337677,-0.07791563123464584,0.1295267641544342
1733751865560903400,5.4719033203125,-0.24169525504112244,-0.11217187345027924,0.05856017768383026
1733751865570878500,5.48187841796875,-0.1762959510087967,-0.011172953061759472,0.0466792993247509
1733751865580854500,5.4918544921875,-0.1081046313047409,0.1532095968723297,0.09809055924415588
1733751865590830600,5.50183056640625,-0.07469165325164795,0.27349162101745605,0.23065100610256195
1733751865600806400,5.511806396484375,-0.10731431096792221,0.32307806611061096,0.3887804448604584
1733751865610782700,5.52178271484375,-0.20180225372314453,0.3444417119026184,0.46618562936782837
1733751865620757500,5.531757568359375,-0.30042627453804016,0.3167256712913513,0.4575772285461426
1733751865630733600,5.541733642578125,-0.3688122034072876,0.21538273990154266,0.4199889004230499
1733751865640709600,5.551709716796875,-0.3891734182834625,0.102935291826725,0.39202386140823364
1733751865650685400,5.561685546875,-0.362016886472702,0.050621397793293,0.35093462467193604
1733751865660660500,5.571660400390625,-0.2990832030773163,0.05912007391452789,0.3004051446914673
1733751865670636500,5.581636474609375,-0.23656491935253143,0.10963479429483414,0.25494372844696045
1733751865680612600,5.591612548828125,-0.1670987606048584,0.20143848657608032,0.226547509431839
1733751865690588400,5.60158837890625,-0.11847100406885147,0.24387869238853455,0.23072658479213715
1733751865700563700,5.611563720703125,-0.15230435132980347,0.22527730464935303,0.26035982370376587
1733751865710539500,5.62153955078125,-0.237916499376297,0.17054779827594757,0.26836997270584106
1733751865720515600,5.631515625,-0.2942226529121399,0.06981160491704941,0.19773948192596436
1733751865730491600,5.64149169921875,-0.28679049015045166,-0.04999127984046936,0.07499738037586212
1733751865740467500,5.651467529296875,-0.24249838292598724,-0.15356187522411346,-0.020914766937494278
1733751865750442500,5.6614423828125,-0.20066000521183014,-0.19182315468788147,-0.05561428144574165
1733751865760418600,5.67141845703125,-0.15955252945423126,-0.211638942360878,-0.05515701696276665
1733751865770394600,5.68139453125,-0.1300809532403946,-0.19855499267578125,-0.07555904984474182
1733751865780370400,5.691370361328125,-0.14143480360507965,-0.166480153799057,-0.10156481713056564
1733751865790345700,5.701345703125,-0.20810171961784363,-0.14168673753738403,-0.09403031319379807
1733751865800321500,5.711321533203125,-0.28383108973503113,-0.12045682221651077,-0.06824319064617157
1733751865810297600,5.721297607421875,-0.301849901676178,-0.09751348942518234,-0.059913426637649536
1733751865820273700,5.731273681640625,-0.2309885323047638,-0.09616991877555847,-0.08245549350976944
1733751865830248700,5.741248779296875,-0.10735193639993668,-0.11479414254426956,-0.12938670814037323
1733751865840224500,5.751224609375,-0.007490585092455149,-0.1107671782374382,-0.17367374897003174
1733751865850200600,5.76120068359375,0.0397159643471241,-0.08794078230857849,-0.1754414290189743
1733751865860176600,5.7711767578125,0.026148490607738495,-0.05055612698197365,-0.12443230301141739
1733751865870151400,5.7811513671875,-0.009476880542933941,-0.003145202761515975,-0.0252697691321373
1733751865880127700,5.791127685546875,-0.03843822330236435,-0.005330592859536409,0.07295294106006622
1733751865890103600,5.801103515625,-0.061823770403862,0.014887725003063679,0.11508679389953613
1733751865900079600,5.81107958984375,-0.08178096264600754,0.054909709841012955,0.13722139596939087
1733751865910055700,5.8210556640625,-0.10334951430559158,0.0921400859951973,0.1563795655965805
1733751865920030700,5.83103076171875,-0.09465615451335907,0.11690588295459747,0.17773385345935822
1733751865930006500,5.841006591796875,-0.060446158051490784,0.10214801132678986,0.2057991474866867
1733751865939982600,5.850982666015625,-0.02587779238820076,0.07535181939601898,0.20685535669326782
1733751865949958700,5.860958740234375,-0.014853555709123611,0.04767235368490219,0.17231063544750214
1733751865959933400,5.870933349609375,-0.013423438183963299,0.033865462988615036,0.12823371589183807
1733751865969909800,5.88090966796875,-0.010216491296887398,0.007249952759593725,0.07205399125814438
1733751865979885600,5.890885498046875,0.004442079458385706,-0.0029225233010947704,0.01363995112478733
1733751865989861400,5.900861328125,0.03234760835766792,-0.004328759387135506,-0.003140704007819295
1733751865999837700,5.910837646484375,0.06271111220121384,0.025216083973646164,0.016949117183685303
1733751866009812500,5.9208125,0.07251386344432831,0.06813830137252808,0.05836972966790199
1733751866019788500,5.93078857421875,0.07727532833814621,0.10937920957803726,0.08757609128952026
1733751866029764600,5.9407646484375,0.07519325613975525,0.12359126657247543,0.08294522762298584
1733751866039740700,5.95074072265625,0.08427969366312027,0.0838068276643753,0.04791427403688431
1733751866049715500,5.960715576171875,0.09708471596240997,0.007243788335472345,-0.003913082182407379
1733751866059691800,5.97069189453125,0.118507981300354,-0.02655119262635708,-0.03796905651688576
1733751866069667600,5.98066748046875,0.15301169455051422,-0.03963898867368698,-0.04458124563097954
1733751866079643400,5.990643310546875,0.18674223124980927,-0.02687632106244564,-0.006029857322573662
1733751866089618700,6.00061865234375,0.18142268061637878,0.003186602843925357,0.04663269966840744
1733751866099594500,6.010594482421875,0.1345238834619522,0.04297902062535286,0.09520929306745529
1733751866109570600,6.020570556640625,0.07365567237138748,0.10419164597988129,0.11332915723323822
1733751866119546600,6.030546630859375,0.05117407068610191,0.13867558538913727,0.10000403225421906
1733751866129521700,6.040521728515625,0.11131174862384796,0.14014704525470734,0.04930486902594566
1733751866139497500,6.05049755859375,0.23213431239128113,0.09857508540153503,-0.027218934148550034
1733751866149473800,6.060473876953125,0.3601963222026825,0.03655245155096054,-0.10794636607170105
1733751866159449600,6.07044970703125,0.43470117449760437,-0.029957598075270653,-0.174429252743721
1733751866169425400,6.08042529296875,0.42335936427116394,-0.12183687090873718,-0.21612007915973663
1733751866179400700,6.090400634765625,0.3353419005870819,-0.19891169667243958,-0.23813216388225555
1733751866189376500,6.10037646484375,0.20011016726493835,-0.222469300031662,-0.2434692084789276
1733751866199351800,6.110351806640625,0.09246785938739777,-0.14849334955215454,-0.24394458532333374
1733751866209327900,6.120327880859375,0.10998155176639557,-0.03501937910914421,-0.21746425330638885
1733751866219303000,6.130302978515625,0.21854636073112488,0.048464592546224594,-0.18470311164855957
1733751866229278700,6.14027880859375,0.32794150710105896,0.06530292332172394,-0.1636025309562683
1733751866239254800,6.1502548828125,0.3663022220134735,0.013031722977757454,-0.18320925533771515
1733751866249230800,6.16023095703125,0.3383440375328064,-0.07129380106925964,-0.23849055171012878
1733751866259206000,6.170205810546875,0.29745280742645264,-0.15280623733997345,-0.30413615703582764
1733751866269181700,6.180181640625,0.27546679973602295,-0.1967608779668808,-0.3498889207839966
1733751866279157800,6.19015771484375,0.28499025106430054,-0.21099548041820526,-0.35384848713874817
1733751866289133800,6.2001337890625,0.3065077066421509,-0.18278516829013824,-0.3316839337348938
1733751866299108900,6.21010888671875,0.3192208409309387,-0.12677650153636932,-0.2845161557197571
1733751866309085000,6.2200849609375,0.3025496006011963,-0.05362240597605705,-0.21860666573047638
1733751866319060700,6.230060791015625,0.2712326943874359,-0.0005836870986968279,-0.1670750379562378
1733751866329036800,6.240036865234375,0.240523099899292,0.01574273407459259,-0.13688071072101593
1733751866339012900,6.250012939453125,0.21451519429683685,0.006464281585067511,-0.14885535836219788
1733751866348988000,6.25998779296875,0.19810619950294495,-0.03525852784514427,-0.1851864457130432
1733751866358963700,6.269963623046875,0.17141839861869812,-0.10835670679807663,-0.21452809870243073
1733751866368939800,6.279939697265625,0.1379636973142624,-0.16148707270622253,-0.19855676591396332
1733751866378915800,6.289915771484375,0.1148969903588295,-0.15545715391635895,-0.13568724691867828
1733751866388890600,6.299890625,0.11796242743730545,-0.08683432638645172,-0.04321902245283127
1733751866398867000,6.309866943359375,0.15480220317840576,0.005055115558207035,0.037079278379678726
1733751866408842800,6.3198427734375,0.24859601259231567,0.11747721582651138,0.07320116460323334
1733751866418818800,6.32981884765625,0.3520102798938751,0.17639273405075073,0.09640607982873917
1733751866428793900,6.3397939453125,0.39325836300849915,0.17334048449993134,0.11941233277320862
1733751866438770000,6.34977001953125,0.36930376291275024,0.12408905476331711,0.11213257908821106
1733751866448745700,6.359745849609375,0.3101535737514496,0.01927151530981064,0.05447284132242203
1733751866458721800,6.3697216796875,0.2619197368621826,-0.11929568648338318,-0.04558425024151802
1733751866468697900,6.37969775390625,0.23708264529705048,-0.2398427426815033,-0.18138395249843597
1733751866478672600,6.389672607421875,0.2508906126022339,-0.357992559671402,-0.3036547303199768
1733751866488649000,6.39964892578125,0.2772751450538635,-0.43013790249824524,-0.37889188528060913
1733751866498624800,6.409624755859375,0.2825639247894287,-0.4209263026714325,-0.36846959590911865
1733751866508600800,6.419600830078125,0.27332353591918945,-0.31264907121658325,-0.31971079111099243
1733751866518575900,6.429575927734375,0.3053152859210968,-0.1742595136165619,-0.2798387408256531
1733751866528552000,6.439552001953125,0.3739372193813324,-0.08624497056007385,-0.251120001077652
1733751866538527700,6.44952783203125,0.4395303428173065,-0.06865984946489334,-0.24426211416721344
1733751866548503800,6.45950390625,0.45570263266563416,-0.09131525456905365,-0.23858541250228882
1733751866558478800,6.469478759765625,0.4291759431362152,-0.1337069272994995,-0.2113812118768692
1733751866568454700,6.47945458984375,0.38835564255714417,-0.185520738363266,-0.18033713102340698
1733751866578431000,6.489430908203125,0.36074185371398926,-0.2311321645975113,-0.16765542328357697
1733751866588406800,6.49940673828125,0.33035314083099365,-0.2507365345954895,-0.1505568027496338
1733751866598381800,6.5093818359375,0.2995728552341461,-0.2197466641664505,-0.13143745064735413
1733751866608358000,6.51935791015625,0.2819328010082245,-0.15873900055885315,-0.11342711746692657
1733751866618333700,6.529333740234375,0.29890912771224976,-0.0885162428021431,-0.12122086435556412
1733751866628309800,6.539309814453125,0.33450451493263245,-0.049405504018068314,-0.14398707449436188
1733751866638285800,6.549285888671875,0.3871445655822754,-0.06739915907382965,-0.1566549390554428
1733751866648260900,6.5592607421875,0.44644761085510254,-0.12464650720357895,-0.14336563646793365
1733751866658236700,6.569236572265625,0.49131467938423157,-0.19551987946033478,-0.1282452791929245
1733751866668213000,6.579212890625,0.5042751431465149,-0.24970118701457977,-0.13678458333015442
1733751866678188800,6.589188720703125,0.4911297559738159,-0.30053454637527466,-0.19069334864616394
1733751866688163800,6.599163818359375,0.4748716354370117,-0.34699636697769165,-0.26681891083717346
1733751866698140000,6.609139892578125,0.4638458788394928,-0.3818720579147339,-0.3466045558452606
1733751866708115700,6.61911572265625,0.4684147238731384,-0.3984212279319763,-0.39076951146125793
1733751866718091800,6.629091796875,0.44975024461746216,-0.3844234049320221,-0.37729713320732117
1733751866728066800,6.63906689453125,0.3981291651725769,-0.3037174344062805,-0.3005032241344452
1733751866738043000,6.64904296875,0.3261079788208008,-0.22553446888923645,-0.1728760153055191
1733751866748018700,6.659018798828125,0.3043227791786194,-0.17999635636806488,-0.04810696840286255
1733751866757995000,6.6689951171875,0.3432166576385498,-0.1704324185848236,-0.031898971647024155
1733751866767970800,6.678970703125,0.3930862843990326,-0.19086946547031403,-0.11611061543226242
1733751866777945900,6.68894580078125,0.42375364899635315,-0.2886333167552948,-0.22351829707622528
1733751866787922000,6.698921875,0.40401482582092285,-0.39886757731437683,-0.31260889768600464
1733751866797897700,6.708897705078125,0.3533271253108978,-0.4660796523094177,-0.3634294867515564
1733751866807873800,6.718873779296875,0.32273364067077637,-0.47082260251045227,-0.38298299908638
1733751866817848800,6.728848876953125,0.3227000832557678,-0.40721219778060913,-0.37979066371917725
1733751866827825000,6.738824951171875,0.3395804464817047,-0.3037828803062439,-0.3626800775527954
1733751866837800700,6.74880078125,0.3586617112159729,-0.21859075129032135,-0.33283108472824097
1733751866847776800,6.75877685546875,0.3684518337249756,-0.16564315557479858,-0.3115147650241852
1733751866857751800,6.768751708984375,0.37133896350860596,-0.14871396124362946,-0.29593953490257263
1733751866867728000,6.778727783203125,0.36206334829330444,-0.1651221215724945,-0.3032248914241791
1733751866877704000,6.788703857421875,0.37636157870292664,-0.18222999572753906,-0.3248332440853119
1733751866887679700,6.7986796875,0.4107345640659332,-0.2294445037841797,-0.3422897756099701
1733751866897654800,6.80865478515625,0.4530506134033203,-0.2879672348499298,-0.3577084243297577
1733751866907630800,6.818630859375,0.492623507976532,-0.301448792219162,-0.3715933859348297
1733751866917607000,6.82860693359375,0.5015483498573303,-0.25277048349380493,-0.3855328857898712
1733751866927582700,6.838582763671875,0.4709585905075073,-0.15964168310165405,-0.3788287043571472
1733751866937558800,6.848558837890625,0.42240914702415466,-0.057500142604112625,-0.34397217631340027
1733751866947533800,6.858533935546875,0.399454802274704,0.031363241374492645,-0.2943938970565796
1733751866957509600,6.868509521484375,0.416448712348938,0.04868071526288986,-0.2328849732875824
1733751866967486000,6.87848583984375,0.4663342237472534,0.025873761624097824,-0.1680544763803482
1733751866977461800,6.888461669921875,0.4894009530544281,-0.03991563618183136,-0.12723007798194885
1733751866987436800,6.898436767578125,0.4657101631164551,-0.160221129655838,-0.10561901330947876
1733751866997412900,6.908412841796875,0.3611699044704437,-0.3003332316875458,-0.12260279059410095
1733751867007389000,6.918388916015625,0.23560157418251038,-0.36791694164276123,-0.18455278873443604
1733751867017364700,6.92836474609375,0.17651721835136414,-0.3613780736923218,-0.2699744701385498
1733751867027340000,6.938340087890625,0.21972092986106873,-0.30240893363952637,-0.3201718330383301
1733751867037315800,6.94831591796875,0.3049450218677521,-0.17737643420696259,-0.320809930562973
1733751867047291600,6.958291748046875,0.4057394862174988,-0.042231351137161255,-0.2628495693206787
1733751867057268000,6.96826806640625,0.479510635137558,0.05829605460166931,-0.16686764359474182
1733751867067243800,6.978243896484375,0.5080350637435913,0.12353502959012985,-0.09430166333913803
1733751867077218800,6.98821875,0.4923524856567383,0.10578558593988419,-0.06450115889310837
1733751867087195000,6.99819482421875,0.444391131401062,0.0166938453912735,-0.07004908472299576
1733751867097171000,7.0081708984375,0.390559583902359,-0.09681087732315063,-0.1031268760561943
1733751867107146800,7.018146728515625,0.3443699777126312,-0.21861721575260162,-0.13053347170352936
1733751867117122000,7.0281220703125,0.3076476454734802,-0.3015773296356201,-0.14076745510101318
1733751867127097900,7.038097900390625,0.271607369184494,-0.33425432443618774,-0.11733963340520859
1733751867137073700,7.04807373046875,0.24396321177482605,-0.3122182786464691,-0.07304354012012482
1733751867147050000,7.058050048828125,0.2468130737543106,-0.26509931683540344,-0.006143447011709213
1733751867157024800,7.068024658203125,0.2657308280467987,-0.16815412044525146,0.055089015513658524
1733751867167000800,7.078000732421875,0.2739086449146271,-0.11243130266666412,0.11547315120697021
1733751867176977000,7.087976806640625,0.27545246481895447,-0.07703256607055664,0.1566387116909027
1733751867186952700,7.09795263671875,0.26794296503067017,-0.08344393968582153,0.18367163836956024
1733751867196927700,7.107927734375,0.2672652006149292,-0.10940522700548172,0.18239597976207733
1733751867206904000,7.117904052734375,0.2783636152744293,-0.1337219923734665,0.12776850163936615
1733751867216880400,7.12788037109375,0.30371931195259094,-0.16528870165348053,0.032956771552562714
1733751867226856200,7.137856201171875,0.32542628049850464,-0.19435244798660278,-0.08792755752801895
1733751867236832300,7.147832275390625,0.3422233462333679,-0.23942165076732635,-0.17966972291469574
1733751867246807300,7.157807373046875,0.33524200320243835,-0.29935750365257263,-0.23254920542240143
1733751867256783400,7.167783447265625,0.29836493730545044,-0.3460826575756073,-0.2636317312717438
1733751867266759200,7.17775927734375,0.23165364563465118,-0.3607739508152008,-0.27093270421028137
1733751867276735200,7.1877353515625,0.1995609551668167,-0.3315122127532959,-0.27213218808174133
1733751867286710300,7.197710205078125,0.22034603357315063,-0.30427423119544983,-0.25870782136917114
1733751867296686000,7.20768603515625,0.2801917791366577,-0.2594612240791321,-0.25400733947753906
1733751867306662400,7.217662353515625,0.35771146416664124,-0.21829664707183838,-0.2664996385574341
1733751867316638200,7.22763818359375,0.4447939097881317,-0.1806430220603943,-0.33289703726768494
1733751867326613200,7.23761328125,0.540411651134491,-0.16997137665748596,-0.40944552421569824
1733751867336589300,7.24758935546875,0.6034441590309143,-0.21019816398620605,-0.4325239360332489
1733751867346565000,7.257565185546875,0.6091085076332092,-0.24910369515419006,-0.3906671404838562
1733751867356541200,7.267541259765625,0.5514127016067505,-0.2645646631717682,-0.2879263758659363
1733751867366516200,7.27751611328125,0.45801374316215515,-0.31100139021873474,-0.11392701417207718
1733751867376492300,7.2874921875,0.36495330929756165,-0.33397725224494934,0.05612114816904068
1733751867386468000,7.297468017578125,0.3087650537490845,-0.32178962230682373,0.15372715890407562
1733751867396444400,7.3074443359375,0.29069870710372925,-0.2954336702823639,0.1789981722831726
1733751867406420200,7.317420166015625,0.3026280701160431,-0.2772397994995117,0.15903398394584656
1733751867416395300,7.327395263671875,0.3379532992839813,-0.25415125489234924,0.10330069810152054
1733751867426371300,7.337371337890625,0.39186447858810425,-0.21847547590732574,0.028836358338594437
1733751867436347100,7.34734716796875,0.48484715819358826,-0.20626036822795868,-0.023596487939357758
1733751867446323200,7.3573232421875,0.5794420838356018,-0.20401930809020996,-0.04348870739340782
1733751867456298200,7.36729833984375,0.6434966921806335,-0.22927460074424744,-0.0287233404815197
1733751867466274300,7.3772744140625,0.6541515588760376,-0.23216119408607483,-0.017566462978720665
1733751867476250000,7.38725,0.6218625903129578,-0.21963714063167572,-0.029291827231645584
1733751867486226400,7.397226318359375,0.5634274482727051,-0.19236794114112854,-0.06218785047531128
1733751867496201200,7.407201171875,0.512690007686615,-0.15954262018203735,-0.0979359969496727
1733751867506177300,7.41717724609375,0.4822394549846649,-0.0936443880200386,-0.08863215893507004
1733751867516153300,7.4271533203125,0.4728590250015259,0.009069206193089485,-0.03574709966778755
1733751867526129200,7.437129150390625,0.47273990511894226,0.105911023914814,0.02786366082727909
1733751867536104200,7.447104248046875,0.49616295099258423,0.15503115952014923,0.06968381255865097
1733751867546080300,7.457080322265625,0.5307162404060364,0.12241628021001816,0.08895605057477951
1733751867556056300,7.467056396484375,0.5450712442398071,0.041418105363845825,0.07096745818853378
1733751867566032100,7.4770322265625,0.5154448747634888,-0.04255060479044914,0.018396753817796707
1733751867576007200,7.487007080078125,0.4417375922203064,-0.1290048062801361,-0.019383380189538002
1733751867585983200,7.496983154296875,0.33675894141197205,-0.1939946860074997,-0.02244853973388672
1733751867595959300,7.506959228515625,0.22346140444278717,-0.23425449430942535,-0.020428266376256943
1733751867605935400,7.516935302734375,0.12805357575416565,-0.26046234369277954,-0.004165202379226685
1733751867615911200,7.5269111328125,0.05937012657523155,-0.25370749831199646,0.02829100750386715
1733751867625886200,7.53688623046875,0.03224632143974304,-0.19338002800941467,0.0882347971200943
1733751867635862300,7.5468623046875,0.053392618894577026,-0.1205471083521843,0.17354676127433777
1733751867645838300,7.55683837890625,0.08524411171674728,-0.032363854348659515,0.2654478847980499
1733751867655814100,7.566814208984375,0.1030726432800293,0.018121156841516495,0.3273749053478241
1733751867665789200,7.5767890625,0.10927461087703705,0.033036187291145325,0.33379313349723816
1733751867675765200,7.58676513671875,0.11380384862422943,-0.007180472370237112,0.29349151253700256
1733751867685741300,7.5967412109375,0.09202110767364502,-0.07158666849136353,0.22567902505397797
1733751867695717400,7.60671728515625,0.04429859668016434,-0.15691328048706055,0.16716645658016205
1733751867705692400,7.6166923828125,-0.038989193737506866,-0.24802254140377045,0.12279796600341797
1733751867715668200,7.626668212890625,-0.14535583555698395,-0.30936524271965027,0.10313344746828079
1733751867725644300,7.636644287109375,-0.24796609580516815,-0.3369344174861908,0.13033273816108704
1733751867735620400,7.646620361328125,-0.3222395181655884,-0.2983558475971222,0.21742315590381622
1733751867745595100,7.65659521484375,-0.3397505581378937,-0.20189975202083588,0.3313484191894531
1733751867755571200,7.6665712890625,-0.3171464502811432,-0.09514374285936356,0.44663745164871216
1733751867765547300,7.67654736328125,-0.25525033473968506,-0.024864157661795616,0.5341173410415649
1733751867775523000,7.686523193359375,-0.15336602926254272,-0.016962558031082153,0.5739917755126953
1733751867785499400,7.69649951171875,-0.05408870428800583,-0.06504292041063309,0.5468979477882385
1733751867795474200,7.70647412109375,0.017348196357488632,-0.16217826306819916,0.4740210175514221
1733751867805450200,7.7164501953125,0.04932016134262085,-0.2600424289703369,0.3766709864139557
1733751867815426300,7.72642626953125,0.025335470214486122,-0.3231346011161804,0.2959130108356476
1733751867825402400,7.73640234375,-0.052650682628154755,-0.3074988126754761,0.2549268305301666
1733751867835377200,7.746377197265625,-0.14619049429893494,-0.24097146093845367,0.2784630358219147
1733751867845353200,7.756353271484375,-0.218852236866951,-0.1350070834159851,0.3819054961204529
1733751867855329300,7.766329345703125,-0.254244327545166,-0.04000254347920418,0.5302630066871643
1733751867865305000,7.77630517578125,-0.2901983857154846,-0.0018562667537480593,0.6463897228240967
1733751867875280100,7.786280029296875,-0.32690927386283875,0.0038586107548326254,0.6600078344345093
1733751867885256200,7.796256103515625,-0.3546324670314789,-0.06968050450086594,0.5757984519004822
1733751867895232300,7.806232177734375,-0.3611316680908203,-0.18796639144420624,0.4248270094394684
1733751867905208300,7.816208251953125,-0.3527228832244873,-0.33216044306755066,0.22083893418312073
1733751867915183400,7.826183349609375,-0.31580719351768494,-0.4477056562900543,0.012920618988573551
1733751867925159200,7.8361591796875,-0.2525315582752228,-0.5365618467330933,-0.1446286290884018
1733751867935135200,7.84613525390625,-0.21656900644302368,-0.6019200682640076,-0.2269650548696518
1733751867945111300,7.856111328125,-0.2133171260356903,-0.5809981226921082,-0.23726770281791687
1733751867955087000,7.866087158203125,-0.23315314948558807,-0.5669315457344055,-0.19744572043418884
1733751867965062100,7.876062255859375,-0.26052412390708923,-0.5673096179962158,-0.15088330209255219
1733751867975038200,7.8860380859375,-0.2652648091316223,-0.598905086517334,-0.14792665839195251
1733751867985014300,7.89601416015625,-0.23562674224376678,-0.6540499329566956,-0.18543420732021332
1733751867994990300,7.905990234375,-0.17937839031219482,-0.7358939051628113,-0.263852596282959
1733751868004965400,7.91596533203125,-0.08231205493211746,-0.8416373133659363,-0.35219743847846985
1733751868014941200,7.925941162109375,0.03336368128657341,-0.9539710283279419,-0.4201109707355499
1733751868024917200,7.935917236328125,0.14605990052223206,-1.0214486122131348,-0.47589626908302307
1733751868034893300,7.945893310546875,0.27604398131370544,-1.0232046842575073,-0.5096989870071411
1733751868044868400,7.955868408203125,0.37582045793533325,-0.909407377243042,-0.48951590061187744
1733751868054844200,7.96584423828125,0.4195612967014313,-0.6516861319541931,-0.4262780547142029
1733751868064820200,7.9758203125,0.4057404398918152,-0.30370059609413147,-0.3219031095504761
1733751868074796300,7.98579638671875,0.39213353395462036,-0.030539628118276596,-0.15747927129268646
1733751868084771000,7.99577099609375,0.3875032365322113,0.12345558404922485,0.032819557934999466
1733751868094747400,8.005747314453124,0.37872305512428284,0.16392098367214203,0.1736464500427246
1733751868104723200,8.01572314453125,0.3804567754268646,0.11905474215745926,0.23925963044166565
1733751868114699000,8.025698974609375,0.382300466299057,0.004403793718665838,0.21197687089443207
1733751868124675300,8.03567529296875,0.3909962773323059,-0.13772790133953094,0.10000427812337875
1733751868134650000,8.045650146484375,0.4120616316795349,-0.276935338973999,-0.05838403105735779
1733751868144626200,8.055626220703125,0.44032567739486694,-0.3835436701774597,-0.20780202746391296
1733751868154602200,8.065602294921876,0.475959837436676,-0.39822059869766235,-0.3232167959213257
1733751868164578300,8.075578369140626,0.5305637121200562,-0.34452855587005615,-0.3852926194667816
1733751868174553000,8.085552978515626,0.605131983757019,-0.23675896227359772,-0.4110872149467468
1733751868184529400,8.095529296875,0.697017252445221,-0.1374015361070633,-0.4055459797382355
1733751868194505200,8.105505126953124,0.7695401906967163,-0.07961706817150116,-0.38648518919944763
1733751868204480800,8.115480712890625,0.8271280527114868,-0.09117766469717026,-0.3586735725402832
1733751868214456000,8.1254560546875,0.864980936050415,-0.20511755347251892,-0.3481668531894684
1733751868224431900,8.135431884765625,0.8683142066001892,-0.36018651723861694,-0.3981327712535858
1733751868234408000,8.145407958984375,0.863910973072052,-0.4919501543045044,-0.5173705220222473
1733751868244384000,8.155384033203125,0.9059160947799683,-0.6043710708618164,-0.6695119142532349
1733751868254359000,8.165359130859375,1.00614333152771,-0.6854387521743774,-0.7931550741195679
1733751868264334800,8.1753349609375,1.1253876686096191,-0.666939377784729,-0.86502605676651
1733751868274311200,8.185311279296876,1.2324142456054688,-0.536030650138855,-0.8857755064964294
1733751868284287000,8.195286865234374,1.3406387567520142,-0.3715590834617615,-0.8537848591804504
1733751868294262000,8.205261962890624,1.421067237854004,-0.22501437366008759,-0.7904042601585388
1733751868304238000,8.215238037109375,1.462878942489624,-0.10950589925050735,-0.7253020405769348
1733751868314214000,8.2252138671875,1.4932712316513062,-0.07242058217525482,-0.6949837803840637
1733751868324190000,8.23518994140625,1.5210853815078735,-0.13436029851436615,-0.7009020447731018
1733751868334166000,8.245166015625,1.5490491390228271,-0.23974503576755524,-0.7637044787406921
1733751868344141000,8.25514111328125,1.5837650299072266,-0.32998743653297424,-0.8908759355545044
1733751868354116900,8.265116943359375,1.6147018671035767,-0.3890331983566284,-1.0378259420394897
1733751868364093200,8.27509326171875,1.612390398979187,-0.3490627110004425,-1.1407301425933838
1733751868374069000,8.285069091796874,1.5903109312057495,-0.27311015129089355,-1.1527827978134155
1733751868384044000,8.2950439453125,1.565143346786499,-0.12685106694698334,-1.0829367637634277
1733751868394020000,8.30502001953125,1.5456337928771973,-0.021371515467762947,-0.9531724452972412
1733751868403996000,8.314995849609375,1.535033106803894,0.04009637609124184,-0.8599631786346436
1733751868413972000,8.324971923828125,1.5301376581192017,0.08866683393716812,-0.8408302068710327
1733751868423947000,8.334947021484375,1.5561426877975464,0.035000991076231,-0.8732918500900269
1733751868433923000,8.344923095703125,1.5937620401382446,-0.09766224771738052,-0.9593002796173096
1733751868443899000,8.35489892578125,1.6044843196868896,-0.2775868773460388,-1.083842158317566
1733751868453875000,8.364875,1.5724201202392578,-0.4412514269351959,-1.181259036064148
1733751868463850000,8.37485009765625,1.498810887336731,-0.5322633981704712,-1.2167068719863892
1733751868473826000,8.384825927734376,1.4199120998382568,-0.5477635264396667,-1.2076257467269897
1733751868483802000,8.394802001953124,1.3449316024780273,-0.5063396692276001,-1.1695244312286377
1733751868493778000,8.40477783203125,1.309328317642212,-0.4832282066345215,-1.1298004388809204
1733751868503754000,8.41475390625,1.339027762413025,-0.40936726331710815,-1.1262412071228027
1733751868513729000,8.42472900390625,1.3724757432937622,-0.48336026072502136,-1.0988388061523438
1733751868523705000,8.434705078125,1.4060170650482178,-0.5772590041160583,-1.1012632846832275
1733751868533681000,8.444680908203125,1.4118672609329224,-0.6856051683425903,-1.1372202634811401
1733751868543657000,8.454656982421875,1.3973581790924072,-0.8528309464454651,-1.1621391773223877
1733751868553632000,8.464632080078125,1.3669718503952026,-0.8735929727554321,-1.1848567724227905
1733751868563607800,8.47460791015625,1.3072986602783203,-0.8263543844223022,-1.132763385772705
1733751868573584100,8.484584228515626,1.2490484714508057,-0.6796272397041321,-0.9918763041496277
1733751868583560000,8.494559814453124,1.1976428031921387,-0.5068953633308411,-0.7982901930809021
1733751868593535000,8.504534912109374,1.177592158317566,-0.351645290851593,-0.6061719059944153
1733751868603511000,8.514510986328125,1.1694611310958862,-0.3076297342777252,-0.47363337874412537
1733751868613487000,8.524487060546875,1.165157437324524,-0.2797602713108063,-0.5015323758125305
1733751868623463000,8.534462890625,1.1467061042785645,-0.3256312310695648,-0.6175591945648193
1733751868633438000,8.54443798828125,1.1308131217956543,-0.4955103099346161,-0.7208043336868286
1733751868643414000,8.5544140625,1.1428707838058472,-0.5366238951683044,-0.8408377766609192
1733751868653389800,8.564389892578125,1.1646699905395508,-0.565879225730896,-0.8996409177780151
1733751868663366100,8.5743662109375,1.1991504430770874,-0.6019089818000793,-0.8961347341537476
1733751868673341000,8.5843408203125,1.1860474348068237,-0.6073258519172668,-0.864795446395874
1733751868683317000,8.59431689453125,1.1194632053375244,-0.5713650584220886,-0.8264486193656921
1733751868693293000,8.60429296875,1.0631762742996216,-0.5066715478897095,-0.7736149430274963
1733751868703269000,8.61426904296875,1.0446457862854004,-0.4374692142009735,-0.6957913637161255
1733751868713245000,8.624244873046875,1.0767743587493896,-0.3590391278266907,-0.6266093850135803
1733751868723220000,8.634219970703125,1.1276891231536865,-0.2925877869129181,-0.5890781879425049
1733751868733196000,8.644196044921875,1.1671539545059204,-0.2628072500228882,-0.587489902973175
1733751868743171800,8.654171875,1.1972908973693848,-0.25874635577201843,-0.615687906742096
1733751868753148200,8.664148193359376,1.2278286218643188,-0.3081490397453308,-0.6538933515548706
1733751868763123000,8.674123046875,1.202231764793396,-0.29890552163124084,-0.7226481437683105
1733751868773099000,8.68409912109375,1.1327862739562988,-0.3253922462463379,-0.7455774545669556
1733751868783075000,8.694074951171874,1.0833401679992676,-0.3317507803440094,-0.733113706111908
1733751868793051000,8.70405078125,1.068528175354004,-0.3025151193141937,-0.7151386737823486
1733751868803026000,8.71402587890625,1.0724482536315918,-0.24871109426021576,-0.6886887550354004
1733751868813002000,8.724001953125,1.074078917503357,-0.13109685480594635,-0.6532878875732422
1733751868822978000,8.73397802734375,1.066715955734253,-0.012412238866090775,-0.5988119840621948
1733751868832953900,8.743953857421875,1.0514960289001465,0.07046054303646088,-0.5517616271972656
1733751868842929000,8.753928955078125,1.030476450920105,0.07927819341421127,-0.5305663347244263
1733751868852905000,8.763905029296875,1.0298631191253662,0.036277465522289276,-0.5599492788314819
1733751868862881000,8.773881103515626,1.051477074623108,-0.014365938492119312,-0.6085895299911499
1733751868872857000,8.783857177734374,1.0742191076278687,-0.04506073147058487,-0.677756130695343
1733751868882832100,8.79383203125,1.0812433958053589,-0.042864345014095306,-0.742871880531311
1733751868892808000,8.803807861328124,1.0822501182556152,-0.017054850235581398,-0.8007493019104004
1733751868902783700,8.81378369140625,1.078892469406128,-0.003658684203401208,-0.8286035656929016
1733751868912760000,8.823760009765625,1.070307970046997,0.03089955821633339,-0.8384284973144531
1733751868922735900,8.83373583984375,1.0274879932403564,0.057322822511196136,-0.8233968615531921
1733751868932711000,8.8437109375,0.9743597507476807,0.06985965371131897,-0.7615135312080383
1733751868942687000,8.85368701171875,0.9470164775848389,0.0742097795009613,-0.6745702028274536
1733751868952663000,8.8636630859375,0.9756268262863159,0.05559001863002777,-0.5750553607940674
1733751868962639000,8.87363916015625,1.0549182891845703,0.004120588302612305,-0.5163317322731018
1733751868972614100,8.8836142578125,1.1302300691604614,-0.05760056525468826,-0.5274613499641418
1733751868982590000,8.89358984375,1.1740390062332153,-0.120130755007267,-0.5917446613311768
1733751868992565800,8.903565673828124,1.1774238348007202,-0.19834886491298676,-0.6864514946937561
1733751869002542000,8.9135419921875,1.1637828350067139,-0.13622179627418518,-0.8178814649581909
1733751869012516900,8.923516845703125,1.100793719291687,-0.09743445366621017,-0.8663451075553894
1733751869022493000,8.933492919921875,0.990882158279419,-0.027924222871661186,-0.832511305809021
1733751869032469000,8.943468994140625,0.8716306090354919,0.08918189257383347,-0.7313649654388428
1733751869042445000,8.953445068359375,0.8009139895439148,0.17688730359077454,-0.5704997181892395
1733751869052419800,8.963419921875,0.7980281710624695,0.35793137550354004,-0.4632246494293213
1733751869062396200,8.973396240234376,0.8105733394622803,0.5244245529174805,-0.3954032063484192
1733751869072372000,8.9833720703125,0.814546525478363,0.5308928489685059,-0.3407506048679352
1733751869082347800,8.99334765625,0.8020830154418945,0.5587509274482727,-0.35766589641571045
1733751869092323000,9.003322998046874,0.7668702006340027,0.44214174151420593,-0.3921852707862854
1733751869102299000,9.013298828125,0.7192816734313965,0.2660461366176605,-0.4433627128601074
1733751869112275000,9.02327490234375,0.6377755999565125,0.10179676115512848,-0.5438509583473206
1733751869122251000,9.0332509765625,0.5676606893539429,-0.038947176188230515,-0.6407405138015747
1733751869132226000,9.04322607421875,0.5346859693527222,-0.11954348534345627,-0.6846988797187805
1733751869142201900,9.053201904296875,0.528436005115509,-0.15345972776412964,-0.7007192969322205
1733751869152178200,9.06317822265625,0.5363568067550659,-0.1119847297668457,-0.6949655413627625
1733751869162154000,9.073154052734376,0.5576232671737671,-0.019911307841539383,-0.6547988057136536
1733751869172129800,9.0831298828125,0.5920502543449402,0.06156144663691521,-0.5706386566162109
1733751869182105000,9.09310498046875,0.6259461641311646,0.14470849931240082,-0.47958904504776
1733751869192081000,9.103080810546874,0.6249650716781616,0.22497457265853882,-0.43146997690200806
1733751869202057200,9.11305712890625,0.6093292832374573,0.25923657417297363,-0.4176914095878601
1733751869212033300,9.123033203125,0.5690321922302246,0.21089649200439453,-0.4283001124858856
1733751869222008300,9.13300830078125,0.5309364199638367,0.16761790215969086,-0.4557664394378662
1733751869231984000,9.142984130859375,0.5135582089424133,0.03097004070878029,-0.45956623554229736
1733751869241960200,9.152960205078125,0.4882563650608063,-0.08527525514364243,-0.4708539843559265
1733751869251936300,9.162936279296876,0.4714158773422241,-0.19440440833568573,-0.49723607301712036
1733751869261911000,9.1729111328125,0.43836456537246704,-0.2957754135131836,-0.5289314985275269
1733751869271887400,9.182887451171876,0.39718276262283325,-0.31312963366508484,-0.5499180555343628
1733751869281863200,9.19286328125,0.38182947039604187,-0.22911947965621948,-0.5360517501831055
1733751869291839200,9.202839111328124,0.42409196496009827,-0.054388679563999176,-0.46309104561805725
1733751869301814000,9.21281396484375,0.488468736410141,0.07941284775733948,-0.34107670187950134
1733751869311790300,9.222790283203125,0.543129563331604,0.17045168578624725,-0.2164572775363922
1733751869321766100,9.23276611328125,0.5732852220535278,0.1790212094783783,-0.1259327232837677
1733751869331742200,9.2427421875,0.5676425099372864,0.1217360720038414,-0.10704079270362854
1733751869341717200,9.25271728515625,0.5451909899711609,0.0732308030128479,-0.1945609599351883
1733751869351693000,9.262693115234375,0.5008189678192139,-0.014931274577975273,-0.3311648964881897
1733751869361669400,9.27266943359375,0.44982844591140747,-0.06593538820743561,-0.45415759086608887
1733751869371645200,9.282645263671874,0.3752199709415436,-0.09955060482025146,-0.5103133320808411
1733751869381620200,9.2926201171875,0.3100566864013672,-0.06629499793052673,-0.4819520115852356
1733751869391596000,9.302595947265624,0.2808295488357544,0.01579987071454525,-0.39197099208831787
1733751869401572400,9.312572265625,0.2941785752773285,0.11161965876817703,-0.27517998218536377
1733751869411548200,9.322548095703125,0.36363834142684937,0.2231443226337433,-0.19625668227672577
1733751869421524200,9.332524169921875,0.45246973633766174,0.29220128059387207,-0.16720636188983917
1733751869431499300,9.342499267578125,0.5007331371307373,0.28621503710746765,-0.18092218041419983
1733751869441475000,9.35247509765625,0.4748694598674774,0.19411706924438477,-0.22433067858219147
1733751869451451400,9.362451416015626,0.38699978590011597,0.06353268027305603,-0.3118954002857208
1733751869461427200,9.37242724609375,0.27688148617744446,-0.054339490830898285,-0.39948517084121704
1733751869471402200,9.38240234375,0.15851782262325287,-0.17103415727615356,-0.4477754831314087
1733751869481378000,9.3923779296875,0.04792800173163414,-0.23687154054641724,-0.4663515090942383
1733751869491354000,9.40235400390625,-0.028871437534689903,-0.21457529067993164,-0.45657798647880554
1733751869501330200,9.412330078125,-0.05066455900669098,-0.13158199191093445,-0.38383984565734863
1733751869511305200,9.42230517578125,0.012419336475431919,0.010334663093090057,-0.24108588695526123
1733751869521281300,9.43228125,0.11892980337142944,0.17265619337558746,-0.07405828684568405
1733751869531257000,9.442257080078125,0.1889869123697281,0.23068727552890778,0.09457919746637344
1733751869541233400,9.4522333984375,0.18483835458755493,0.2864200472831726,0.16051538288593292
1733751869551208200,9.462208251953125,0.111083984375,0.22492393851280212,0.14562352001667023
1733751869561184300,9.472184326171876,0.02623533271253109,0.1195702999830246,0.0549435019493103
1733751869571160000,9.48216015625,-0.02773282676935196,-0.02121105045080185,-0.051302243024110794
1733751869581136100,9.49213623046875,-0.021796878427267075,-0.12953300774097443,-0.1426764279603958
1733751869591111200,9.502111083984374,0.02678796648979187,-0.19312822818756104,-0.20588842034339905
1733751869601087000,9.5120869140625,0.07331015914678574,-0.23448967933654785,-0.1873670369386673
1733751869611063300,9.522063232421875,0.09240448474884033,-0.20629826188087463,-0.11714719980955124
1733751869621039000,9.5320390625,0.11265960335731506,-0.09718269854784012,-0.033949870616197586
1733751869631014100,9.54201416015625,0.15811815857887268,0.025211118161678314,0.046560149639844894
1733751869640990200,9.551990234375,0.1849554181098938,0.08735416829586029,0.09833809733390808
1733751869650966300,9.56196630859375,0.17366841435432434,0.0733102560043335,0.1053059920668602
1733751869660942000,9.571942138671876,0.1226954460144043,0.020682597532868385,0.055961329489946365
1733751869670918100,9.581918212890624,0.06438899040222168,-0.030545169487595558,-0.015509923920035362
1733751869680893200,9.59189306640625,0.008339088410139084,-0.0445968434214592,-0.07774147391319275
1733751869690869000,9.601868896484374,-0.031254660338163376,-0.039401281625032425,-0.10636832565069199
1733751869700845300,9.61184521484375,-0.04404370114207268,-0.026481131091713905,-0.1048470214009285
1733751869710821000,9.621821044921875,-0.028972873464226723,-0.02439800649881363,-0.08213585615158081
1733751869720796200,9.631796142578125,-0.021426107734441757,-0.024851733818650246,-0.06188330054283142
1733751869730772200,9.641772216796875,-0.026766544207930565,-0.015559165738523006,-0.06342526525259018
1733751869740748300,9.651748291015625,-0.034342072904109955,0.003151062410324812,-0.09583701938390732
1733751869750724000,9.66172412109375,-0.04115230590105057,0.03763127326965332,-0.09788499027490616
1733751869760699400,9.671699462890626,-0.04759274050593376,0.05339948832988739,-0.05258156359195709
1733751869770675200,9.68167529296875,-0.04072391614317894,0.06433256715536118,0.022152327001094818
1733751869780651000,9.691651123046874,-0.012306044809520245,0.08509132266044617,0.07920848578214645
1733751869790627300,9.70162744140625,0.02620140090584755,0.12077049165964127,0.10108502209186554
1733751869800602000,9.71160205078125,0.05051930621266365,0.14757303893566132,0.09116966277360916
1733751869810578200,9.721578125,0.06307371705770493,0.14854216575622559,0.08239241689443588
1733751869820554200,9.73155419921875,0.061714813113212585,0.11192512512207031,0.08714444190263748
1733751869830530000,9.741530029296875,0.048832572996616364,0.04847877845168114,0.10640841722488403
1733751869840505000,9.751505126953125,0.004457489587366581,-0.010934808291494846,0.11289667338132858
1733751869850481200,9.761481201171875,-0.06788940727710724,-0.05629723146557808,0.11209213733673096
1733751869860457200,9.771457275390626,-0.11670388281345367,-0.07531286776065826,0.09866206347942352
1733751869870433000,9.78143310546875,-0.1323709934949875,-0.07677573710680008,0.08774976432323456
1733751869880408300,9.791408203125,-0.12172164022922516,-0.04550547152757645,0.09868219494819641
1733751869890384100,9.801384033203124,-0.1067781150341034,0.013287536799907684,0.12585629522800446
1733751869900360200,9.811360107421875,-0.08067318797111511,0.0734732374548912,0.15497525036334991
1733751869910336300,9.821336181640625,-0.06574270874261856,0.1483549326658249,0.1818246990442276
1733751869920312000,9.83131201171875,-0.07630587369203568,0.19961519539356232,0.2152596265077591
1733751869930287000,9.841287109375,-0.12303396314382553,0.21205668151378632,0.24611793458461761
1733751869940263200,9.85126318359375,-0.18408940732479095,0.18748889863491058,0.23803183436393738
1733751869950239200,9.8612392578125,-0.24532054364681244,0.12619252502918243,0.19776643812656403
1733751869960215000,9.871215087890626,-0.29391205310821533,0.04432348161935806,0.159586563706398
1733751869970190300,9.8811904296875,-0.32481563091278076,-0.0170701015740633,0.11144965142011642
1733751869980166100,9.891166259765624,-0.3385648727416992,-0.04146439582109451,0.06195130944252014
1733751869990142200,9.90114208984375,-0.32174327969551086,-0.03444536775350571,0.006592448800802231
1733751870000118300,9.9111181640625,-0.2866635322570801,-0.004556392319500446,-0.009953001514077187
1733751870010093300,9.92109326171875,-0.2640594244003296,0.059330713003873825,0.02552083507180214
1733751870020069000,9.931069091796875,-0.2760799825191498,0.0999428778886795,0.10804877430200577
1733751870030045200,9.941045166015625,-0.31073489785194397,0.12706050276756287,0.22281824052333832
1733751870040021200,9.951021240234375,-0.36278924345970154,0.15895578265190125,0.325747549533844
1733751870049996000,9.96099609375,-0.4041321575641632,0.17301221191883087,0.3784717321395874
1733751870059972400,9.970972412109376,-0.4114595651626587,0.15657243132591248,0.36783576011657715
1733751870069948200,9.9809482421875,-0.38901257514953613,0.1335829645395279,0.32806676626205444
1733751870079924200,9.99092431640625,-0.3615005910396576,0.1325906217098236,0.2848362922668457
1733751870089899300,10.000899169921874,-0.3285011053085327,0.14659751951694489,0.2509142756462097
1733751870099875300,10.010875244140625,-0.2837331295013428,0.14669401943683624,0.2597425878047943
1733751870109851100,10.02085107421875,-0.2423500120639801,0.15059928596019745,0.3008151948451996
1733751870119827200,10.0308271484375,-0.23029424250125885,0.15122519433498383,0.3336953818798065
1733751870129802200,10.04080224609375,-0.24550461769104004,0.14707466959953308,0.3215777277946472
1733751870139778000,10.050778076171875,-0.26934778690338135,0.12406133115291595,0.2921541929244995
1733751870149754400,10.06075439453125,-0.2867448925971985,0.07357791066169739,0.2612767219543457
1733751870159730200,10.070730224609376,-0.308395117521286,-0.021809104830026627,0.24061013758182526
1733751870169706000,10.0807060546875,-0.32604897022247314,-0.07865800708532333,0.19535398483276367
1733751870179681300,10.090681396484374,-0.3302357792854309,-0.11093635857105255,0.1568642109632492
1733751870189657000,10.100656982421874,-0.31893277168273926,-0.08969391882419586,0.142194464802742
1733751870199633200,10.110633056640625,-0.30546826124191284,0.0005615835543721914,0.1690765917301178
1733751870209609000,10.12060888671875,-0.2963911294937134,0.12760500609874725,0.23566226661205292
1733751870219584000,10.130583984375,-0.2980137765407562,0.2530260384082794,0.29636073112487793
1733751870229559800,10.140559814453125,-0.31687507033348083,0.29589787125587463,0.33710789680480957
1733751870239536000,10.1505361328125,-0.34862980246543884,0.26911720633506775,0.3577898144721985
1733751870249512000,10.160511962890626,-0.36466309428215027,0.1746242791414261,0.3451525866985321
1733751870259487000,10.170487060546876,-0.38484567403793335,0.09622973203659058,0.3094579577445984
1733751870269463000,10.180463134765626,-0.42869699001312256,0.08925730735063553,0.28018397092819214
1733751870279438800,10.19043896484375,-0.4860169589519501,0.11905661225318909,0.3030650019645691
1733751870289415000,10.200414794921874,-0.5315068960189819,0.14988963305950165,0.3508804440498352
1733751870299390000,10.210389892578124,-0.541933536529541,0.18572169542312622,0.41410011053085327
1733751870309366000,10.220365966796875,-0.5060061812400818,0.2081598937511444,0.4706629812717438
1733751870319341800,10.230341796875,-0.46092939376831055,0.19217614829540253,0.5042915344238281
1733751870329318100,10.240318115234375,-0.43497955799102783,0.1689683049917221,0.5000171661376953
1733751870339293000,10.25029296875,-0.4587775468826294,0.1386823058128357,0.4817763864994049
1733751870349269000,10.26026904296875,-0.5193256139755249,0.10832066088914871,0.4552699327468872
1733751870359245000,10.2702451171875,-0.5830249786376953,0.07292952388525009,0.429413378238678
1733751870369220900,10.280220947265626,-0.6340024471282959,0.03583701699972153,0.44004926085472107
1733751870379196000,10.29019580078125,-0.6705135703086853,0.02301858738064766,0.480306476354599
1733751870389172000,10.300171875,-0.6855841279029846,0.04537209868431091,0.5280420184135437
1733751870399148000,10.31014794921875,-0.6792417168617249,0.1025652140378952,0.5387303829193115
1733751870409123800,10.320123779296875,-0.6515786647796631,0.14753614366054535,0.5287110209465027
1733751870419099100,10.33009912109375,-0.5908176302909851,0.15823684632778168,0.5379417538642883
1733751870429075000,10.340074951171875,-0.5160014629364014,0.15329694747924805,0.5774763226509094
1733751870439051000,10.350051025390625,-0.45517396926879883,0.1252334713935852,0.673298180103302
1733751870449027000,10.360027099609376,-0.4230186939239502,0.09109387546777725,0.7686763405799866
1733751870459003000,10.3700029296875,-0.4454919099807739,0.09331778436899185,0.8265642523765564
1733751870468978000,10.37997802734375,-0.4934871196746826,0.13733850419521332,0.8527489900588989
1733751870478954000,10.3899541015625,-0.5545450448989868,0.21773169934749603,0.8694503307342529
1733751870488930000,10.399929931640624,-0.6085236072540283,0.31283876299858093,0.9001171588897705
1733751870498905900,10.40990576171875,-0.6282902956008911,0.3907635509967804,0.9522755146026611
1733751870508881200,10.419881103515625,-0.6134628653526306,0.4325583875179291,0.9866784811019897
1733751870518857000,10.42985693359375,-0.5756192803382874,0.42857271432876587,0.992557168006897
1733751870528833000,10.4398330078125,-0.5382868051528931,0.40149369835853577,0.9924882054328918
1733751870538809000,10.44980908203125,-0.5215345025062561,0.38288944959640503,1.000424861907959
1733751870548784000,10.4597841796875,-0.5195440649986267,0.3729335069656372,0.9932635426521301
1733751870558760000,10.469760009765626,-0.5312423706054688,0.4148375391960144,0.955031156539917
1733751870568736000,10.479736083984376,-0.5431677103042603,0.4634269177913666,0.9027858376502991
1733751870578712000,10.489712158203124,-0.5472593903541565,0.47219687700271606,0.8476852178573608
1733751870588686800,10.499686767578124,-0.5617578625679016,0.4709707796573639,0.797400176525116
1733751870598663200,10.5096630859375,-0.5877304077148438,0.47370445728302,0.7401121258735657
1733751870608639000,10.519638916015625,-0.6222396492958069,0.48387986421585083,0.6812487840652466
1733751870618615000,10.529614990234375,-0.6470043659210205,0.5390175580978394,0.6228894591331482
1733751870628589800,10.53958984375,-0.6477207541465759,0.6516557335853577,0.5708613991737366
1733751870638566100,10.549566162109375,-0.6136137247085571,0.7133802175521851,0.5320315957069397
1733751870648542000,10.5595419921875,-0.5540302991867065,0.6949745416641235,0.49625787138938904
1733751870658518000,10.56951806640625,-0.49676206707954407,0.5999336838722229,0.48041513562202454
1733751870668493000,10.5794931640625,-0.46370211243629456,0.43195241689682007,0.5243359208106995
1733751870678468900,10.58946875,-0.503192663192749,0.3266623020172119,0.6255185008049011
1733751870688445200,10.599445068359374,-0.5788000226020813,0.33378997445106506,0.7200646996498108
1733751870698421000,10.6094208984375,-0.6567609906196594,0.3980698585510254,0.7643099427223206
1733751870708396000,10.61939599609375,-0.7082273960113525,0.43410298228263855,0.7464699745178223
1733751870718371800,10.629371826171875,-0.7167751789093018,0.40509623289108276,0.6461406946182251
1733751870728348000,10.639347900390625,-0.7002396583557129,0.3231995105743408,0.45793086290359497
1733751870738324000,10.649323974609375,-0.6429859399795532,0.21693089604377747,0.26104244589805603
1733751870748300000,10.659300048828126,-0.5834200382232666,0.1327822059392929,0.16145965456962585
1733751870758275000,10.669275146484376,-0.553209662437439,0.1644783914089203,0.1645088791847229
1733751870768251000,10.6792509765625,-0.538563072681427,0.2736749053001404,0.2677375078201294
1733751870778227200,10.689227294921874,-0.5087789297103882,0.3943868577480316,0.41695350408554077
1733751870788203000,10.699203125,-0.47661009430885315,0.47104570269584656,0.5629985928535461
1733751870798178000,10.709177978515624,-0.45628803968429565,0.4967496395111084,0.6762667894363403
1733751870808153900,10.71915380859375,-0.46528124809265137,0.4664306044578552,0.7285004258155823
1733751870818130000,10.7291298828125,-0.5171540379524231,0.41577088832855225,0.70236736536026
1733751870828106000,10.73910595703125,-0.5964896082878113,0.3618629276752472,0.6207050085067749
1733751870838080800,10.749080810546875,-0.6691047549247742,0.33710992336273193,0.5437150001525879
1733751870848057000,10.75905712890625,-0.7247392535209656,0.3381168842315674,0.534892201423645
1733751870858033000,10.769032958984376,-0.7591912746429443,0.3815920650959015,0.5903056859970093
1733751870868009200,10.77900927734375,-0.7695949673652649,0.4351375699043274,0.6810148358345032
1733751870877984000,10.78898388671875,-0.7765516638755798,0.4675661027431488,0.7912814021110535
1733751870887960000,10.7989599609375,-0.7888323068618774,0.47435128688812256,0.8902615308761597
1733751870897936000,10.808935791015625,-0.8329677581787109,0.4556446969509125,0.9677258133888245
1733751870907912000,10.818911865234375,-0.8938425183296204,0.42082706093788147,1.0122908353805542
1733751870917887000,10.828886962890625,-0.9558544754981995,0.37274959683418274,1.038409948348999
1733751870927862800,10.83886279296875,-1.001062273979187,0.31997373700141907,1.052747368812561
1733751870937839000,10.848839111328125,-1.0063248872756958,0.27330055832862854,1.085434079170227
1733751870947815000,10.85881494140625,-0.9740898013114929,0.21179619431495667,1.128013014793396
1733751870957790000,10.8687900390625,-0.9052121639251709,0.18235626816749573,1.1581367254257202
1733751870967766000,10.87876611328125,-0.8288518786430359,0.22956186532974243,1.1850687265396118
1733751870977742000,10.8887421875,-0.7903035879135132,0.28380346298217773,1.2237826585769653
1733751870987718100,10.89871826171875,-0.7903821468353271,0.3458455502986908,1.228286623954773
1733751870997693200,10.908693115234374,-0.8085543513298035,0.41267427802085876,1.1959096193313599
1733751871007669000,10.9186689453125,-0.813279390335083,0.49076375365257263,1.1639554500579834
1733751871017644800,10.928644775390625,-0.8019463419914246,0.5476125478744507,1.162794589996338
1733751871027621000,10.93862109375,-0.7835639119148254,0.6207796931266785,1.1752846240997314
1733751871037596000,10.948595947265625,-0.7590126395225525,0.6650635004043579,1.197879433631897
1733751871047572000,10.958572021484375,-0.7205289006233215,0.6341215968132019,1.2216159105300903
1733751871057548000,10.968548095703126,-0.6894911527633667,0.5772106051445007,1.2290574312210083
1733751871067523800,10.97852392578125,-0.6828513741493225,0.5301227569580078,1.1909846067428589
1733751871077499000,10.988498779296876,-0.7000786066055298,0.476419597864151,1.1059480905532837
1733751871087475000,10.998474853515624,-0.7316405177116394,0.44983726739883423,0.9987505674362183
1733751871097451000,11.008450927734375,-0.7420478463172913,0.4496704936027527,0.9245443940162659
1733751871107426800,11.0184267578125,-0.7218126058578491,0.45942381024360657,0.8855624198913574
1733751871117403100,11.028403076171875,-0.6710973978042603,0.492794007062912,0.867221474647522
1733751871127378000,11.0383779296875,-0.6113320589065552,0.5360956192016602,0.8680907487869263
1733751871137354000,11.04835400390625,-0.5632949471473694,0.5841462016105652,0.8958268761634827
1733751871147330000,11.058330078125,-0.5430320501327515,0.5838353633880615,0.9094973802566528
1733751871157305900,11.068305908203126,-0.5539261102676392,0.5344452857971191,0.8814485669136047
1733751871167281000,11.078281005859376,-0.6002842783927917,0.47598493099212646,0.8316298723220825
1733751871177257000,11.088257080078124,-0.659254252910614,0.4575309455394745,0.7877143025398254
1733751871187233000,11.09823291015625,-0.6783602833747864,0.5034571290016174,0.7295284867286682
1733751871197208800,11.108208740234375,-0.634965181350708,0.5834490656852722,0.6871268153190613
1733751871207185200,11.11818505859375,-0.5676751136779785,0.6272444725036621,0.6756517887115479
1733751871217161200,11.1281611328125,-0.5398440957069397,0.5922089219093323,0.6853433847427368
1733751871227137000,11.138136962890625,-0.5500804781913757,0.5871302485466003,0.6799973845481873
1733751871237113000,11.148113037109376,-0.578981876373291,0.5939687490463257,0.6834045052528381
1733751871247088000,11.158088134765626,-0.6009774208068848,0.5846242308616638,0.6992326974868774
1733751871257064200,11.168064208984376,-0.6012413501739502,0.6319496631622314,0.6788116097450256
1733751871267040000,11.1780400390625,-0.5588536858558655,0.6976988911628723,0.601984441280365
1733751871277016000,11.18801611328125,-0.49961668252944946,0.6628438234329224,0.546980619430542
1733751871286991000,11.1979912109375,-0.4417280852794647,0.5237218737602234,0.5109227895736694
1733751871296967000,11.207966796875,-0.43149489164352417,0.39890941977500916,0.45652955770492554
1733751871306943200,11.217943115234375,-0.4838518500328064,0.32987043261528015,0.3825560212135315
1733751871316919000,11.2279189453125,-0.5678185820579529,0.28158727288246155,0.32688000798225403
1733751871326894000,11.23789404296875,-0.6501227617263794,0.23857693374156952,0.3127641975879669
1733751871336870100,11.2478701171875,-0.7185361981391907,0.2397243231534958,0.3396579921245575
1733751871346846200,11.25784619140625,-0.7366430163383484,0.3320947289466858,0.3935326635837555
1733751871356822000,11.267822021484376,-0.6941525936126709,0.4526906907558441,0.47492194175720215
1733751871366797300,11.27779736328125,-0.6057226061820984,0.5403659343719482,0.572225034236908
1733751871376773000,11.287773193359374,-0.5344906449317932,0.5545347929000854,0.6357256770133972
1733751871386749000,11.2977490234375,-0.5353942513465881,0.5234498381614685,0.6201032996177673
1733751871396725200,11.307725341796875,-0.5862722396850586,0.46713384985923767,0.5494104623794556
1733751871406701000,11.317701171875,-0.6459171772003174,0.36275872588157654,0.4423588514328003
1733751871416676000,11.327676025390625,-0.6790903806686401,0.2721866965293884,0.3186996281147003
1733751871426652200,11.337652099609375,-0.6643205285072327,0.2556244730949402,0.21113958954811096
1733751871436628200,11.347628173828125,-0.5899613499641418,0.31955164670944214,0.1690167486667633
1733751871446604000,11.35760400390625,-0.4969211518764496,0.4231441020965576,0.22179049253463745
1733751871456579300,11.367579345703126,-0.42938724160194397,0.555550754070282,0.32690078020095825
1733751871466555100,11.37755517578125,-0.37673839926719666,0.6486260890960693,0.41320744156837463
1733751871476531000,11.387531005859374,-0.31377652287483215,0.6501451730728149,0.43240517377853394
1733751871486507300,11.39750732421875,-0.2191285789012909,0.5608611106872559,0.3843678832054138
1733751871496482000,11.40748193359375,-0.13299468159675598,0.42385366559028625,0.32137352228164673
1733751871506458000,11.4174580078125,-0.11115168780088425,0.31257668137550354,0.2642066478729248
1733751871516434200,11.42743408203125,-0.16751369833946228,0.2806195914745331,0.1905059516429901
1733751871526410000,11.437409912109375,-0.268702894449234,0.2729928195476532,0.11106039583683014
1733751871536385000,11.447385009765625,-0.3733922243118286,0.2860798239707947,0.062236785888671875
1733751871546361000,11.457361083984376,-0.43936485052108765,0.3100874423980713,0.08083604276180267
1733751871556337200,11.467337158203126,-0.46358057856559753,0.3431504964828491,0.15005303919315338
1733751871566313000,11.47731298828125,-0.45249462127685547,0.4095582664012909,0.2622799873352051
1733751871576288300,11.487288330078124,-0.41912633180618286,0.44790664315223694,0.3953375816345215
1733751871586264000,11.49726416015625,-0.38595691323280334,0.43975630402565,0.5055946111679077
1733751871596240100,11.507240234375,-0.36631765961647034,0.39603909850120544,0.5653747320175171
1733751871606216200,11.51721630859375,-0.37013956904411316,0.29710903763771057,0.579807460308075
1733751871616191200,11.527191162109375,-0.3898046016693115,0.15418678522109985,0.5460553169250488
1733751871626167000,11.5371669921875,-0.44033515453338623,-0.009498023428022861,0.47834262251853943
1733751871636143000,11.54714306640625,-0.530336320400238,-0.1393505185842514,0.4119033217430115
1733751871646119200,11.557119140625,-0.6492661833763123,-0.19893795251846313,0.37820929288864136
1733751871656094000,11.567093994140626,-0.7692407965660095,-0.18812137842178345,0.4118994176387787
1733751871666070300,11.5770703125,-0.8342243432998657,-0.13948166370391846,0.4649740755558014
1733751871676046000,11.587046142578124,-0.840858519077301,-0.03825977072119713,0.5111774802207947
1733751871686022100,11.597022216796875,-0.7818474173545837,0.0727892518043518,0.5406421422958374
1733751871695997000,11.606996826171875,-0.6714853644371033,0.1402856409549713,0.5556902885437012
1733751871705973200,11.61697314453125,-0.5495626926422119,0.17006510496139526,0.5430977940559387
1733751871715949000,11.626948974609375,-0.4509640634059906,0.12712031602859497,0.5161471962928772
1733751871725925000,11.636925048828125,-0.377716988325119,0.04757622629404068,0.48029544949531555
1733751871735900200,11.646900146484375,-0.3618267774581909,-0.09433426707983017,0.4500814974308014
1733751871745876000,11.6568759765625,-0.40315771102905273,-0.2507758140563965,0.41408592462539673
1733751871755852300,11.666852294921876,-0.48109421133995056,-0.35593417286872864,0.33209100365638733
1733751871765828000,11.676828125,-0.5625829100608826,-0.3602852523326874,0.22984294593334198
1733751871775804200,11.68680419921875,-0.6069619655609131,-0.22671157121658325,0.1857418566942215
1733751871785779000,11.696779052734374,-0.5881882905960083,-0.050786618143320084,0.2164560854434967
1733751871795755300,11.70675537109375,-0.5119996070861816,0.10804227739572525,0.2884387969970703
1733751871805731000,11.71673095703125,-0.43121612071990967,0.22509805858135223,0.3751891255378723
1733751871815707100,11.72670703125,-0.38408660888671875,0.28057271242141724,0.4337334930896759
1733751871825682200,11.73668212890625,-0.35590848326683044,0.2534361779689789,0.45502573251724243
1733751871835658000,11.746657958984375,-0.33602654933929443,0.17303968966007233,0.4370846748352051
1733751871845634300,11.75663427734375,-0.35342738032341003,0.009100298397243023,0.41043922305107117
1733751871855610000,11.766610107421876,-0.432686984539032,-0.20828400552272797,0.37616226077079773
1733751871865585200,11.776585205078124,-0.5703049898147583,-0.3870931565761566,0.32250887155532837
1733751871875561000,11.78656103515625,-0.7204585075378418,-0.41405409574508667,0.26837795972824097
1733751871885537000,11.796537109375,-0.8319650292396545,-0.3047763407230377,0.26334086060523987
1733751871895513000,11.80651318359375,-0.8728298544883728,-0.14141923189163208,0.3461204767227173
1733751871905488100,11.816488037109375,-0.8880804181098938,0.08033740520477295,0.4907125234603882
1733751871915464200,11.826464111328125,-0.882567822933197,0.22827914357185364,0.6759527325630188
1733751871925440000,11.83643994140625,-0.8744211792945862,0.24060052633285522,0.8433119058609009
1733751871935416300,11.846416259765626,-0.8884380459785461,0.1519753336906433,0.9405325651168823
1733751871945391000,11.85639111328125,-0.9431662559509277,-0.004988449160009623,0.9659463167190552
1733751871955367200,11.8663671875,-1.0238391160964966,-0.12467300146818161,0.9141530394554138
1733751871965343000,11.876343017578124,-1.1030253171920776,-0.17655111849308014,0.8151241540908813
1733751871975319000,11.886319091796874,-1.154198169708252,-0.17166642844676971,0.7490561008453369
1733751871985294000,11.896294189453124,-1.170125126838684,-0.09669950604438782,0.791109025478363
1733751871995270000,11.906269775390625,-1.145397663116455,-0.0062826527282595634,0.9368593692779541
1733751872005246200,11.91624609375,-1.0927566289901733,0.09490761160850525,1.0671095848083496
1733751872015222000,11.926221923828125,-1.0108466148376465,0.15441745519638062,1.1564807891845703
1733751872025197000,11.936197021484375,-0.9369140863418579,0.15701696276664734,1.1943999528884888
1733751872035173000,11.946173095703125,-0.9273720383644104,0.09010167419910431,1.1895568370819092
1733751872045149200,11.956149169921876,-0.9870476126670837,-0.038505032658576965,1.1271499395370483
1733751872055125000,11.966125,-1.0690428018569946,-0.19463680684566498,0.9920511245727539
1733751872065100300,11.976100341796876,-1.1295673847198486,-0.2825445532798767,0.8196159601211548
1733751872075076000,11.986076171875,-1.1413516998291016,-0.26626333594322205,0.7053496241569519
1733751872085052000,11.996052001953124,-1.0793408155441284,-0.2267308235168457,0.6940231919288635
1733751872095028200,12.0060283203125,-0.9856869578361511,-0.15350784361362457,0.7494665384292603
1733751872105003000,12.0160029296875,-0.9000836610794067,-0.014403222128748894,0.8657041788101196
1733751872114979000,12.02597900390625,-0.8268090486526489,0.1050933226943016,1.0037829875946045
1733751872124955100,12.035955078125,-0.7995529174804688,0.20325104892253876,1.1109319925308228
1733751872134931200,12.04593115234375,-0.8282890319824219,0.2569066882133484,1.1407002210617065
1733751872144906000,12.055906005859375,-0.8653115034103394,0.2681652009487152,1.081044316291809
1733751872154882300,12.06588232421875,-0.8718612790107727,0.2693493962287903,0.956041157245636
1733751872164858000,12.075858154296874,-0.839553952217102,0.23982959985733032,0.8096168041229248
1733751872174834000,12.085833984375,-0.7982334494590759,0.1775873601436615,0.6713530421257019
1733751872184809200,12.095809326171874,-0.77753746509552,0.047843217849731445,0.5735146403312683
1733751872194785000,12.105784912109375,-0.7965399622917175,-0.11462750285863876,0.5069160461425781
1733751872204761000,12.115760986328125,-0.8511864542961121,-0.2245635837316513,0.4095683991909027
1733751872214736100,12.125736083984375,-0.9180585145950317,-0.17136122286319733,0.28627896308898926
1733751872224712200,12.135712158203125,-0.9562442302703857,-0.013258667662739754,0.17941321432590485
1733751872234687000,12.14568701171875,-0.9162022471427917,0.16506783664226532,0.1337960809469223
1733751872244663300,12.155663330078125,-0.8380824327468872,0.29734545946121216,0.15010128915309906
1733751872254639000,12.16563916015625,-0.7765091061592102,0.3306560814380646,0.2011781632900238
1733751872264615400,12.175615478515626,-0.753896176815033,0.25024646520614624,0.2316383421421051
1733751872274590200,12.185590087890626,-0.7562469840049744,0.1062847152352333,0.24620293080806732
1733751872284566300,12.195566162109374,-0.7650330066680908,-0.04093722254037857,0.2163587361574173
1733751872294542300,12.205542236328125,-0.7806659936904907,-0.15811750292778015,0.18010488152503967
1733751872304518100,12.21551806640625,-0.7975011467933655,-0.17864860594272614,0.14610004425048828
1733751872314493200,12.2254931640625,-0.7740284204483032,-0.09236188232898712,0.1448030322790146
1733751872324469000,12.235468994140625,-0.6838297843933105,0.042353324592113495,0.1704825609922409
1733751872334445300,12.2454453125,-0.5441337823867798,0.1214916855096817,0.20215311646461487
1733751872344421000,12.255421142578125,-0.4128289818763733,0.12406882643699646,0.2477610856294632
1733751872354396200,12.265396240234375,-0.34603118896484375,0.09400493651628494,0.28032171726226807
1733751872364372200,12.275372314453126,-0.3650818467140198,0.054914526641368866,0.2522972822189331
1733751872374348300,12.285348388671874,-0.45982295274734497,0.01193541195243597,0.15736240148544312
1733751872384324400,12.295324462890624,-0.5656518936157227,-0.0108122443780303,0.03542159125208855
1733751872394299400,12.30529931640625,-0.6020949482917786,-0.038044705986976624,-0.05844142660498619
1733751872404275200,12.315275146484375,-0.5987564325332642,-0.025708945468068123,-0.11908213794231415
1733751872414251000,12.3252509765625,-0.5616076588630676,-0.022837884724140167,-0.1305021494626999
1733751872424227300,12.335227294921875,-0.5052685141563416,-0.031907279044389725,-0.11950622498989105
1733751872434202000,12.3452021484375,-0.4560616910457611,-0.04755130782723427,-0.0996050238609314
1733751872444178200,12.35517822265625,-0.465221643447876,-0.09824483841657639,-0.052074261009693146
1733751872454154200,12.365154296875,-0.47670769691467285,-0.16101767122745514,-0.02873668447136879
