time,seconds_elapsed,z,y,x
1733751393110293500,0.02429345703125,-0.10465805982649326,0.008367741378117351,0.026484102299809454
1733751393120269300,0.034269287109375,-0.07111819379627704,0.0374971157560125,0.028937925192713737
1733751393130245000,0.0442451171875,-0.025173604223132133,0.042411492676706984,0.04671776590272784
1733751393140220200,0.05422021484375,0.0060679217368364334,0.06284923661751672,0.02298091648444533
1733751393150196200,0.0641962890625,0.03993628906905651,0.045660950326174496,-0.009748656076192855
1733751393160172300,0.07417236328125,0.07097089428007602,-0.006241122879274189,-0.04964373635202646
1733751393170148400,0.0841484375,0.08290624674558639,-0.028087500642146913,-0.07923208827748894
1733751393180123400,0.094123291015625,-0.05722410847842693,-0.007894762704661116,-0.01628375693336129
1733751393190099200,0.10409912109375,-0.14685644860863684,0.009680586675507948,0.013398410755395888
1733751393200075300,0.1140751953125,-0.14668752178251743,0.005579900757875293,0.025819793172180652
1733751393210050300,0.12405029296875,-0.13823475073575972,-0.002686462604999542,0.012846037569642066
1733751393220026400,0.1340263671875,-0.09759878896474837,-0.011293547430634498,-0.00029956746846437454
1733751393230002200,0.144002197265625,-0.062205404022336,0.010830569561384618,0.00842544464841485
1733751393239978200,0.153978271484375,-0.05613339063227176,0.05764613328278064,0.055646922289580104
1733751393249953300,0.163953369140625,-0.08178805637061595,0.11150825451482087,0.10024301986321807
1733751393259929000,0.17392919921875,-0.11280921757817268,0.18225270136157048,0.1587735347650945
1733751393269905400,0.183905517578125,-0.15287936215996742,0.20465954428510738,0.16392960235401988
1733751393279881200,0.193881103515625,-0.16345862384140492,0.1894819036964327,0.13207681262791157
1733751393289856300,0.203856201171875,-0.12858370981514453,0.15510423513520508,0.13320216339603067
1733751393299832300,0.213832275390625,-0.10475801306962966,0.09068418727070092,0.0875881209515035
1733751393309808000,0.22380810546875,-0.11339081685841083,0.04120254614520818,0.09971592724919319
1733751393319783200,0.233783203125,-0.11976093641221523,0.03373969945125282,0.13143018528744577
1733751393329759200,0.24375927734375,-0.19230536361932754,0.04424008721020072,0.1467804607629776
1733751393339735300,0.2537353515625,-0.2879723077386617,0.05540562434699386,0.12705562346503138
1733751393349711000,0.263711181640625,-0.3375181366741657,0.15049122491441666,0.14432809917479753
1733751393359686400,0.273686279296875,-0.3873609027296305,0.21663897335436194,0.19333368375375865
1733751393369662200,0.283662109375,-0.45281683298051356,0.2968245994970202,0.1924794050119817
1733751393379638300,0.29363818359375,-0.49401218219995496,0.36564153061360116,0.16878887895345687
1733751393389614300,0.3036142578125,-0.46157355540990824,0.45214309843741357,0.10041501542925835
1733751393399589400,0.31358935546875,-0.3502501924753189,0.47568263518530873,0.07332607910409569
1733751393409565200,0.323565185546875,-0.20996143181920052,0.4107336315432563,0.1082188210479915
1733751393419541200,0.333541259765625,-0.062438043734431264,0.29696028164066374,0.12806933055222033
1733751393429516300,0.343516357421875,0.06602876170277595,0.1687755810804665,0.15456059324517846
1733751393439492400,0.353492431640625,0.146988550555706,0.022126126286014913,0.12705270085558296
1733751393449468400,0.363468505859375,0.14385492870509622,-0.12338358388878404,0.07903042822554707
1733751393459444200,0.3734443359375,0.14253332471251487,-0.21946831502877173,0.049063744506984946
1733751393469419300,0.383419189453125,0.18565934973359108,-0.2439939036719501,0.04506371508538723
1733751393479395300,0.393395263671875,0.22465163595080373,-0.24436003357060251,0.0054179333955049515
1733751393489371400,0.403371337890625,0.25746611031591893,-0.2256125168722123,-0.052473991341888904
1733751393499347200,0.41334716796875,0.27548458208739757,-0.19153657120391726,-0.15788360018804667
1733751393509322200,0.423322265625,0.2166676514595747,-0.1374473997503519,-0.1617038891285658
1733751393519298300,0.43329833984375,0.07795417729616165,-0.03857223417423665,-0.10870923491343855
1733751393529274000,0.443274169921875,-0.09119535166323184,0.05905373505838215,-0.0028485212989151475
1733751393539249200,0.453249267578125,-0.31769583035111426,0.21202903187349437,0.12105389883220195
1733751393549225200,0.46322509765625,-0.5035223533451557,0.31818865536935625,0.21364771911650896
1733751393559201300,0.473201171875,-0.6247428409159184,0.3804261350303888,0.27872897083610293
1733751393569177300,0.48317724609375,-0.6261918706804513,0.4097353046882897,0.26584844647496936
1733751393579152400,0.49315234375,-0.5419792175114154,0.4824982700169086,0.42942689730376005
1733751393589128200,0.503128173828125,-0.35580958016812797,0.498530098015815,0.4870893971994519
1733751393599104300,0.513104248046875,-0.16797931613624095,0.3434229768037796,0.24002324647530912
1733751393609080300,0.523080322265625,-0.029793665239214895,0.1869976126000285,0.0692161595672369
1733751393619055400,0.533055419921875,0.027359131568670272,-0.014996639732271432,-0.05970452711731195
1733751393629031200,0.54303125,0.07078267823159694,-0.15662300566770135,-0.1505899360485375
1733751393639007200,0.55300732421875,0.11726736603081225,-0.26378376903012396,-0.22001199345141648
1733751393648983300,0.5629833984375,0.12098960142433643,-0.2306961768120527,-0.2230992919422686
1733751393658958000,0.5729580078125,0.12244038475453853,-0.27804449570327994,-0.2555475633434951
1733751393668934400,0.582934326171875,0.14778057771623135,-0.28763664604350925,-0.23443463268801568
1733751393678910200,0.59291015625,0.16663783839941024,-0.2592369924459606,-0.2681004631854594
1733751393688886300,0.60288623046875,0.17292378680109977,-0.27671660810038445,-0.19359218855947255
1733751393698861300,0.612861328125,0.18963468310534953,-0.2896291350349784,-0.1131036704801023
1733751393708837400,0.62283740234375,0.2222960127353668,-0.2986883475422859,-0.05741802361533045
1733751393718813200,0.632813232421875,0.26671909182965753,-0.3209862501986325,-0.05808233274295926
1733751393728788000,0.6427880859375,0.31730420068502424,-0.2978473666734993,-0.029121611196547745
1733751393738764000,0.652763916015625,0.3597562719672918,-0.262097715639323,0.025909955673664806
1733751393748739800,0.66273974609375,0.3583580956071615,-0.24580226826816795,0.028965982243418693
1733751393758716000,0.6727158203125,0.298221899074316,-0.22982290110886094,-0.004728489826619625
1733751393768691000,0.68269091796875,0.16864216395914552,-0.15830445594862103,0.0515862487219274
1733751393778667000,0.6926669921875,0.029724107134342193,-0.03730871704444289,0.12745558256804942
1733751393788642800,0.702642822265625,-0.0920031609147787,0.10210559886470437,0.1806464900076389
1733751393798619100,0.712619140625,-0.18189035258889197,0.21014058777838945,0.1818891835451126
1733751393808594000,0.722593994140625,-0.2253589074373245,0.20798034100458024,0.14103300315216183
1733751393818570000,0.732570068359375,-0.2315858191281557,0.1846326370343566,0.07000336442217231
1733751393828546000,0.742546142578125,-0.2039396873116493,0.14368746318370104,0.053570700537413356
1733751393838521000,0.75252099609375,-0.06567220335006714,0.019014935462921857,0.0027406770102679726
1733751393848497000,0.762496826171875,-0.0024649288088083266,-0.0749193396449089,-0.00005859831944108009
1733751393858473000,0.772472900390625,-0.12529460514187812,-0.05961202652826905,-0.004301642716675997
1733751393868449000,0.782448974609375,-0.30214988617300986,-0.0064095747813582415,-0.023175708404183388
1733751393878423800,0.792423828125,-0.424706590783596,0.05745499462485313,-0.012935761679708956
1733751393888400000,0.80239990234375,-0.45789632820188997,0.13956015412062406,0.05986760872453451
1733751393898376000,0.8123759765625,-0.4150508736878633,0.1917494833022356,0.11015475754663348
1733751393908352000,0.82235205078125,-0.4205173224002123,0.2869527554325759,0.12320873877853154
1733751393918326800,0.832326904296875,-0.35142449695169925,0.33085794813260433,0.15695990947186947
1733751393928303000,0.84230322265625,-0.1807990502208471,0.24481720275357363,0.14708879605978725
1733751393938279000,0.85227880859375,0.07229366731643676,0.022141396920382975,0.010286416214704512
1733751393948254000,0.86225390625,0.2634422621160745,-0.14987272768989204,-0.051744508023560044
1733751393958230000,0.87222998046875,0.2762052975773811,-0.20168153312131762,-0.0040939913153648375
1733751393968205800,0.882205810546875,0.18702070121467113,-0.20459610539376735,-0.015337562124431133
1733751393978182000,0.892181884765625,0.03193067726790905,-0.12069076460823416,-0.006969692882150411
1733751393988157000,0.902156982421875,-0.07304302437901497,-0.06363032225891947,0.0009212064981460571
1733751393998133000,0.912133056640625,-0.08902969806194305,-0.059111821921169753,-0.027411446277797222
1733751394008108800,0.92210888671875,-0.05704115312695503,-0.020404928516596553,-0.04804419220089912
1733751394018085000,0.932085205078125,-0.030125673672556877,-0.05263809586241841,-0.057648032978922126
1733751394028060000,0.942059814453125,-0.004935118314623833,-0.04736541615650058,-0.02378960251882672
1733751394038036000,0.952035888671875,-0.05324409893155098,-0.05711217253655195,-0.012348171050101518
1733751394048012000,0.962011962890625,-0.10474106193482875,-0.03829451321139932,0.020592560043185947
1733751394057987000,0.971987060546875,-0.16405308260321616,-0.0009463409394025802,-0.0032271453529596327
1733751394067963000,0.981962890625,-0.22462182533442973,0.02692059402093291,-0.022215046678483483
1733751394077939000,0.99193896484375,-0.209281632861495,0.09652180738300084,-0.027788901288062332
1733751394087915000,1.0019150390625,-0.15630232234597205,0.13741948883011937,0.02563493812456727
1733751394097889800,1.011889892578125,-0.07827566433548927,0.1888788963019848,0.08884659657999873
1733751394107866000,1.0218662109375,-0.0306605112016201,0.18390929119586943,0.1370361886009574
1733751394117842000,1.031842041015625,0.011326280656456947,0.17431641020327807,0.1453203250825405
1733751394127818000,1.04181787109375,0.035333763709664345,0.1311319329932332,0.11915610238686203
1733751394137793000,1.05179296875,0.012230536019802092,0.16211203153803944,0.07317614923939109
1733751394147769000,1.06176904296875,0.02730944720804691,0.10055208581238985,0.09541180031448603
1733751394157745000,1.071744873046875,-0.015885551396012304,0.06925444575101136,0.08252455395162105
1733751394167720000,1.081719970703125,-0.09754910460412501,0.05259001893699169,0.10283639735728502
1733751394177696000,1.091696044921875,-0.08188333343863487,0.04864376552924513,0.10219137745201587
1733751394187671800,1.101671875,-0.03787409584224224,0.049417672511190176,0.07368599845767021
1733751394197648100,1.111648193359375,0.07606850968003273,0.018732465259730813,0.026642215470969677
1733751394207623000,1.121622802734375,0.14931611672043799,-0.08916399196609855,-0.0001781330458819866
1733751394217599000,1.131598876953125,0.15963175902962684,-0.15227525878697634,-0.06478606816530227
1733751394227575000,1.141574951171875,0.09079144703745841,-0.1684130313783884,-0.0991603391930461
1733751394237550800,1.15155078125,0.035578093859553336,-0.2007376763999462,-0.09610343584045768
1733751394247526000,1.16152587890625,-0.07107903082966804,-0.17013561738729477,-0.07484627440869808
1733751394257502000,1.171501953125,-0.25364801333248616,-0.15167071702256799,-0.06822758692130446
1733751394267478000,1.18147802734375,-0.4279179540455341,-0.029356004474312067,-0.055821840465068814
1733751394277453800,1.191453857421875,-0.47312487699389455,0.05715922654867172,-0.055729924397915596
1733751394287428900,1.201428955078125,-0.359105114582181,0.1277788231730461,-0.05816723454743623
1733751394297405000,1.211405029296875,-0.1842635114610195,0.15717296770066022,-0.011962386602908373
1733751394307381000,1.221381103515625,0.029828152030706403,0.11265563445165752,0.05740691769942641
1733751394317355800,1.231355712890625,0.15084230337440965,0.07511062443330883,-0.008275076392292975
1733751394327332000,1.24133203125,0.15108137282729148,0.05948956919237971,-0.05280599977523088
1733751394337308000,1.251307861328125,0.1061719715207815,0.07369213593751192,-0.04475348009243607
1733751394347284000,1.261283935546875,0.04405950647890568,0.0921637583039701,0.06431538191363215
1733751394357259000,1.271259033203125,-0.08574468504190444,0.15017039546221495,0.11212927248999476
1733751394367235000,1.281235107421875,-0.17303835309147833,0.18284253874719142,0.13820581690222025
1733751394377211000,1.2912109375,-0.09699088619947432,0.14168679088577626,0.11671265475749969
1733751394387187000,1.30118701171875,0.07189736147522927,0.07875570293739438,0.03542202651500702
1733751394397162000,1.311161865234375,0.11899112108349799,0.013381605751067399,-0.09394655006751418
1733751394407137800,1.3211376953125,0.12391162635087966,-0.0222306826390326,-0.022810966745018958
1733751394417114000,1.331114013671875,0.10807692835927009,-0.07416691384240985,-0.04472366947606206
1733751394427089000,1.3410888671875,-0.0031377135038375852,-0.09250906461030245,0.003580050443857908
1733751394437065000,1.35106494140625,-0.08418985681533812,-0.04029766972735524,0.05950988132804632
1733751394447041000,1.361041015625,-0.20931787321865558,-0.01300093587040901,0.0995452468574047
1733751394457016800,1.371016845703125,-0.23304420124292372,0.020523732590675352,0.19508608037903905
1733751394466991900,1.380991943359375,-0.23868425295650958,0.054595659670978784,0.1423296188339591
1733751394476968000,1.390968017578125,-0.147408237272501,0.04442161778956651,0.1080181839093566
1733751394486944000,1.400944091796875,-0.1213087503761053,0.045131227363646026,0.06847147867977618
1733751394496919800,1.410919921875,-0.12196633750200271,0.0009102467127144337,0.11600889040231704
1733751394506894800,1.420894775390625,-0.1817506518572569,0.06404723249673842,0.036518881841003895
1733751394516871000,1.430870849609375,-0.284400294470787,0.1579357687667012,-0.02922404865771532
1733751394526847000,1.440846923828125,-0.14860241549313066,0.07104848956093192,0.028372108003497123
1733751394536821800,1.45082177734375,-0.13489596170186996,0.125936410176754,-0.03930617447197437
1733751394546798000,1.460798095703125,-0.15550211187899113,0.17495646167248485,-0.13050912491977215
1733751394556774000,1.47077392578125,-0.013674305087327957,0.058066989043354986,0.04609919561296701
1733751394566750000,1.48075,0.12219722364842892,-0.11283727462887763,0.10841668170765041
1733751394576725000,1.49072509765625,0.15063888975679873,-0.15752631118297575,-0.0659784928202629
1733751394586700800,1.50070068359375,0.06720598878860473,-0.13750789776593447,-0.3206396287180483
1733751394596676900,1.5106767578125,0.0049812955439090725,-0.1306762981802225,-0.09417802073583006
1733751394606653000,1.52065283203125,0.014543489137291907,-0.0980924177005887,0.04303995417281985
1733751394616628000,1.5306279296875,-0.08469780633747577,-0.05543342566937208,0.1291007194265723
1733751394626603800,1.540603759765625,-0.21715631175935268,0.018623305796831847,0.09696852823719382
1733751394636580000,1.550580078125,-0.23646423881947992,0.06871507817730307,0.042361616519838566
1733751394646555000,1.560554931640625,-0.18878595732152462,0.023876111758500337,0.16930734986960888
1733751394656531000,1.570531005859375,-0.1971300072968006,0.024998101525753734,0.16309417444318533
1733751394666507000,1.580507080078125,-0.2080576440244913,0.15256635068804025,0.010121727172285318
1733751394676482800,1.59048291015625,-0.00815992558002472,0.05639364900365471,-0.004736380872130394
1733751394686457900,1.600457763671875,-0.028331191471219062,0.12200783855617045,0.17628668736293912
1733751394696434000,1.610433837890625,-0.14960077888071535,0.3178283706896007,0.09694909288436174
1733751394706410000,1.620409912109375,-0.0846703338086605,0.25655352551564575,0.3697499888457358
1733751394716385800,1.6303857421875,0.0027227029621601103,0.06789747818410397,0.314834449570626
1733751394726360300,1.6403603515625,-0.11089373934566973,0.12439838695451616,-0.1090153782531619
1733751394736336400,1.65033642578125,-0.21894027256667611,0.38819004703015086,-0.1427846691250801
1733751394746312400,1.6603125,0.13259879067540167,0.24113676067516207,0.019648118799924848
1733751394756287200,1.670287353515625,0.19142974982857702,-0.0369185486830771,0.09869272168129682
1733751394766263600,1.680263671875,-0.14175298798978328,0.1482617853619158,-0.18970906351581215
1733751394776239400,1.6902392578125,-0.14562427646517753,0.13158026128262282,-0.07721841036751866
1733751394786215400,1.70021533203125,0.021083120039105414,-0.05951192715466022,0.08703574776574968
1733751394796190500,1.7101904296875,0.0641705666154623,-0.2707714359603822,0.19241218499466775
1733751394806166500,1.72016650390625,-0.1910001262396574,-0.09652633742764592,0.12187266786918044
1733751394816142300,1.730142333984375,-0.13438333600461483,-0.326416166292876,0.130470254214108
1733751394826118400,1.740118408203125,-0.21318916169404983,-0.14937223082184792,0.13934943397939203
1733751394836093400,1.750093505859375,-0.21487842995524406,-0.023712445629388092,0.06240779472663998
1733751394846069200,1.7600693359375,-0.11159808822274207,-0.16128405628129838,0.30438378270491956
1733751394856045600,1.770045654296875,-0.10724515371024608,-0.19363339735269544,0.14984642420485614
1733751394866020400,1.780020263671875,-0.2024158387452364,-0.04099047429710626,-0.05062865573614835
1733751394875996400,1.789996337890625,-0.2813742246478796,0.48959480414912104,-0.23752295409217475
1733751394885972500,1.799972412109375,0.05488718996345997,0.17665201354399324,0.009696925888955592
1733751394895948300,1.8099482421875,0.15677753864228725,-0.1861146922856569,0.046369536986947055
1733751394905923300,1.81992333984375,-0.05762041431963443,-0.08652531402558088,-0.28033962090313436
1733751394915899400,1.8298994140625,-0.1683089864820242,0.4106858103461563,-0.4733452417463064
1733751394925875500,1.83987548828125,0.26570786896049975,0.0624625936537981,-0.12908596024885774
1733751394935850500,1.8498505859375,0.15799275965094564,0.19519290175437926,-0.18230653217434883
1733751394945826300,1.859826416015625,0.2487000355362892,-0.013428513632714748,-0.1443339443936944
1733751394955802400,1.86980224609375,0.15525953529477118,0.20141586792245506,-0.32293183130845426
1733751394965778400,1.8797783203125,0.3763444186747074,-0.2508906774483621,-0.04456877117529511
1733751394975753200,1.889753173828125,0.08721241950690746,0.07116203293800354,-0.18663199415802956
1733751394985729500,1.8997294921875,0.13338964879214762,-0.19432225639969108,0.009479337615519761
1733751394995705300,1.909705322265625,-0.12396364879906177,-0.2693799816019833,-0.11946896772831678
1733751395005681400,1.919681396484375,-0.16582184584140777,-0.18813348476216196,-0.3612934184066951
1733751395015656400,1.929656494140625,0.018572014001011848,-0.507275860659778,0.13009718311801552
1733751395025632300,1.93963232421875,-0.22882804485261438,-0.19027999527156353,0.28605288398340345
1733751395035608300,1.9496083984375,-0.2959229744821787,0.0011294424213469027,0.11999489129856228
1733751395045583400,1.959583251953125,-0.16422843917012214,0.0013249649934470654,-0.00027457915768027303
1733751395055559400,1.969559326171875,-0.062113634085655206,-0.07116773202642798,-0.07409720960706472
1733751395065535200,1.97953515625,-0.0998328316271305,-0.055985214333236215,-0.0686133713684976
1733751395075511600,1.989511474609375,-0.31172260116040706,0.27377193295061586,-0.3376794647157192
1733751395085486300,1.999486328125,-0.05451075786650181,-0.0020123627357184885,-0.2401945113889873
1733751395095462400,2.00946240234375,-0.2145195335149765,0.12423691278249024,-0.21908494173437357
1733751395105438500,2.0194384765625,-0.24580431409478187,0.11568009683936833,-0.3885236628986895
1733751395115414300,2.029414306640625,-0.15721359197199344,-0.21766586871668694,0.04023483362421393
1733751395125389300,2.039389404296875,-0.32843349746465683,0.14530775786191225,0.013167816869914532
1733751395135365400,2.049365478515625,-0.06356324837207794,0.03203691412135958,-0.17930179740041494
1733751395145341400,2.059341552734375,0.057525137251615524,-0.2032246709100902,-0.04409428553134203
1733751395155316500,2.06931640625,0.01248246495425701,0.024278408949077127,0.13302593004629015
1733751395165292500,2.07929248046875,0.047613399568200106,0.2920063855603337,0.0446294153213501
1733751395175268400,2.089268310546875,0.36057284904718395,-0.2078638750180602,-0.07046411380171776
1733751395185244400,2.099244384765625,0.30018413905799385,-0.30774171483069657,0.07462108735069632
1733751395195219500,2.109219482421875,-0.03181728002130985,0.08780541696399449,0.09343991571962833
1733751395205195500,2.119195556640625,0.13386661865413188,0.06484715070277453,0.1115226848989725
1733751395215171300,2.12917138671875,0.1626011302292347,-0.23853140048235655,0.05555456783100962
1733751395225147400,2.1391474609375,0.007080898171663284,-0.15754574653580783,0.12024930445104837
1733751395235122400,2.149122314453125,-0.13022154015004633,0.16862594347670673,0.04855637950673699
1733751395245098200,2.15909814453125,0.003204348999261856,-0.06834902134388685,-0.21854162863790988
1733751395255074600,2.169074462890625,0.1299970837444067,-0.184087278111279,-0.06160612295493483
1733751395265049300,2.17904931640625,-0.027562545186281203,0.15424597433805465,0.014219956271350384
1733751395275025400,2.189025390625,-0.04429974497556686,0.05496610041856766,-0.12829027982652186
1733751395285001500,2.19900146484375,0.18686288030445575,-0.03137742729932069,-0.008402794425189495
1733751395294977500,2.2089775390625,0.2026420487165451,0.008109802827984094,0.06882803703248501
1733751395304952300,2.218952392578125,0.20803718575835226,0.015319441945850849,0.14936390138491987
1733751395314928400,2.228928466796875,0.16848200496137142,0.028720921441167592,0.16480521614477037
1733751395324904400,2.238904541015625,0.039143092864751816,0.05590966487899422,0.1824279665969312
1733751395334879500,2.24887939453125,-0.11032383050322532,0.08909969455823302,0.15013678545355796
1733751395344855300,2.258855224609375,-0.2339379352122545,0.05400485417097806,0.10615224390700459
1733751395354831400,2.268831298828125,-0.3316758403867483,0.09816168354451656,0.10762816167846322
1733751395364807400,2.278807373046875,-0.31833179016709323,0.148272599016875,0.16075696366727352
1733751395374782200,2.2887822265625,-0.27110125243663785,0.0764497640825808,0.12534063624069094
1733751395384758500,2.298758544921875,-0.21238076792061328,0.005170972897112369,0.17409312284141779
1733751395394734300,2.308734375,-0.14903963786661625,0.004530483036488294,0.15628464055880903
1733751395404710400,2.31871044921875,-0.14930501080453396,0.00608545739352703,0.1031812652722001
1733751395414685400,2.328685546875,-0.13985796802341938,0.020478724405169485,0.05670592982321977
1733751395424661500,2.33866162109375,-0.14227262794971465,0.02354527236893773,0.04033274104073643
1733751395434637300,2.34863720703125,-0.11510931121408939,0.04193462327942252,0.05207242480367422
1733751395444612600,2.358612548828125,-0.07960895876586437,0.06453603892698884,0.09118322283402085
1733751395454588400,2.36858837890625,-0.08006371679604053,0.10250102792307735,0.11195698466300964
1733751395464564200,2.378564208984375,-0.1496948869049549,0.31217706692963837,0.25126973989382384
1733751395474540500,2.38854052734375,-0.10061959809064865,0.3649232993416488,0.3228654880739748
1733751395484515300,2.398515380859375,-0.05328267737627029,-0.12947013726085424,-0.07693930116519332
1733751395494491400,2.408491455078125,-0.03555880463719368,-0.10944646314680576,0.17753040381371973
1733751395504467500,2.418467529296875,-0.04992401459813118,0.014125555986166,0.18876272257640958
1733751395514442500,2.4284423828125,-0.087824998447299,0.1679344540812075,0.13024462876468895
1733751395524418300,2.438418212890625,-0.09796236158013344,0.566862898877263,0.4606812827453017
1733751395534394600,2.44839453125,-0.3168359986513853,0.09360738124102354,-0.04464125188961625
1733751395544370400,2.458370361328125,-0.3004962737470865,-0.2951990441218018,-0.09257073166966438
1733751395554345500,2.468345458984375,-0.08733984527885913,-0.20459873574227094,-0.10882599316090345
1733751395564321500,2.478321533203125,-0.04209200579822063,-0.07644538016840816,-0.15752178113833068
1733751395574297300,2.48829736328125,-0.05772445921599865,-0.01011032899543643,-0.057853054031729696
1733751395584273400,2.4982734375,-0.08675240077972411,0.035287732610851524,0.04040902114734053
1733751395594248200,2.508248291015625,-0.09343699311017989,0.05860401852950453,0.07595511243343353
1733751395604224500,2.518224609375,-0.08623743699491024,0.06603212270364164,0.10261062577739358
1733751395614200300,2.528200439453125,-0.11396773996353149,0.04112856759354472,0.1303521807923913
1733751395624175400,2.53817529296875,-0.16700608718991278,0.04545490636005997,0.14879238510727882
1733751395634151400,2.5481513671875,-0.1548012701332569,-0.006605243483930826,0.1082721586704254
1733751395644127500,2.55812744140625,-0.11331716710031031,-0.01994125652760267,0.09197145060226321
1733751395654103600,2.568103515625,-0.08423135786950588,-0.017736586090177295,0.06174275494664907
1733751395664078600,2.57807861328125,-0.028074001839756963,-0.023830957442522047,0.027535803309828043
1733751395674054400,2.588054443359375,0.029295652589201925,0.003525543777644634,0.008291589135676621
1733751395684030200,2.5980302734375,0.1469575708955526,0.7741035274304449,0.4535677974782884
1733751395694006500,2.608006591796875,0.12065817751288413,0.3133529788412154,-0.16007584953531623
1733751395703981300,2.617981201171875,-0.04559036930799484,-0.5227614529527723,-0.32583953544870015
1733751395713957400,2.627957275390625,0.1813093378305435,-0.08394362696930766,0.2667356045730412
1733751395723933400,2.637933349609375,0.0978331822425127,-0.3933196650035679,-0.23007819104418156
1733751395733908500,2.647908447265625,-0.029680852514505383,-0.47558439897522325,0.044733314087241884
1733751395743884500,2.657884521484375,-0.11224866108596324,-0.2544023388311267,0.14633856221437452
1733751395753860400,2.6678603515625,-0.21005203271210193,-0.04836348728314042,0.0990605320803821
1733751395763836700,2.677836669921875,-0.2285924825310707,0.06705605892390012,0.13019655183926224
1733751395773811500,2.6878115234375,-0.21110592567920683,0.09182955791354179,0.21115663295313714
1733751395783787500,2.69778759765625,-0.1219973171621561,0.5402032938800752,0.6948813760250806
1733751395793763600,2.707763671875,-0.07127835279405116,0.3760553726002574,0.13639204547852277
1733751395803738600,2.717738525390625,-0.32833529778718945,-0.3595645487874746,-0.34777985683903095
1733751395813714400,2.72771435546875,-0.1491156257122755,0.30871099825426934,0.5029176654502749
1733751395823690500,2.7376904296875,-0.19072773903906345,-0.002650076117366552,-0.035057284855842585
1733751395833666600,2.74766650390625,-0.3742816409260034,-0.40062925736457106,-0.13789280543029309
1733751395843641600,2.7576416015625,-0.353012058404088,-0.25403014451786876,-0.000737082102894783
1733751395853617400,2.767617431640625,-0.36563656217753887,-0.28112565671429035,0.16175284283682703
1733751395863593500,2.777593505859375,-0.27853870896100996,-0.19783830169662833,0.09755451143160462
1733751395873569500,2.787569580078125,-0.20160159975290298,0.07692600329220295,0.27362726378291846
1733751395883544300,2.79754443359375,0.03143500270545482,0.8301239592075348,0.6685643008552491
1733751395893520600,2.807520751953125,-0.03248012784421444,0.0196066177457571,-0.30967984328642484
1733751395903496400,2.817496337890625,0.02505436175763607,0.20974968876466155,0.2619628372132778
1733751395913471500,2.827471435546875,-0.023401918375492093,-0.2236610174782574,-0.1682720154725015
1733751395923447600,2.837447509765625,-0.06183715523183345,0.04216770138293505,0.15808102245628833
1733751395933423600,2.847423583984375,-0.07132277645766735,-0.16755115385204553,-0.25926819130182266
1733751395943399400,2.8573994140625,-0.27613398590683935,-0.5546349932059645,-0.30261238911822436
1733751395953374700,2.867374755859375,-0.2811760717272758,-0.4072419535025954,-0.0456271941870451
1733751395963350500,2.8773505859375,-0.24561259091496465,-0.2403681143902242,-0.02034779150187969
1733751395973326300,2.887326416015625,-0.2459118661224842,-0.10897153911143541,-0.022260347124934195
1733751395983301600,2.897301513671875,-0.15010697483718394,-0.13526888666748998,-0.050906595894694325
1733751395993277400,2.90727734375,-0.0846662421554327,-0.09633139937743544,-0.04163958585560321
1733751396003253500,2.91725341796875,-0.031605683097243306,-0.06671192166134715,-0.019184446810930966
1733751396013229600,2.9272294921875,-0.016210545566678045,0.3852595465362072,0.3296424348630011
1733751396023204600,2.93720458984375,0.22427111220061777,1.0379914874874054,0.40127047787755726
1733751396033180400,2.947180419921875,0.16611469130814074,0.3962152403146028,-0.28078897210583087
1733751396043156700,2.95715673828125,0.25117139408588407,0.45827977456152436,0.056767889143526554
1733751396053132500,2.967132568359375,0.08108838366866111,0.050259237901866434,-0.14228636421412227
1733751396063107600,2.977107666015625,0.25350714355707166,0.11087445012331008,-0.009892156200110911
1733751396073083600,2.987083740234375,0.011030512580275535,-0.2123350290827453,-0.015226502965390682
1733751396083059500,2.9970595703125,0.16049392881691454,-0.2544666362389922,-0.08026727654412388
1733751396093034500,3.007034423828125,-0.0766097769498825,-0.8786112190008163,-0.2560306706853211
1733751396103010300,3.01701025390625,0.0027349779218435286,-0.7224481589950621,-0.028161241731792686
1733751396112986600,3.026986572265625,0.017452070060372353,-0.49003494913205503,-0.052633273556828494
1733751396122962400,3.03696240234375,-0.05649111802875995,-0.25599472258910533,-0.1484540930636227
1733751396132937500,3.0469375,-0.08514671914875507,-0.08632526140883565,-0.17117255921959876
1733751396142913500,3.05691357421875,-0.08595862005352974,0.04128989563509822,-0.18169848327860236
1733751396152889600,3.0668896484375,-0.03867079917788505,0.14145049791187048,-0.1711025627233088
1733751396162864400,3.076864501953125,0.03554302254617214,0.2247403371475637,-0.1510248203344643
1733751396172840700,3.0868408203125,0.04222293870151043,0.2563772921659052,-0.13091902089491486
1733751396182816500,3.09681640625,0.06851297973394394,0.2174110171727836,-0.12681523883789778
1733751396192792300,3.106792236328125,0.09700549924671649,0.15625015376731752,-0.16524404595345257
1733751396202767600,3.116767578125,0.14505962831974029,0.07609919707924127,-0.19261399117708206
1733751396212743400,3.126743408203125,0.1928039607912302,0.042394934267550706,-0.23623963628336786
1733751396222719500,3.136719482421875,0.006852350112795829,-0.051118777340650554,-0.1530938816934824
1733751396232695600,3.146695556640625,-0.042486558073759076,-0.1226528584614396,-0.0797786162443459
1733751396242670600,3.156670654296875,-0.015237316620349883,-0.10647548451200127,-0.07988295340165495
1733751396252646400,3.166646484375,-0.0214279879540205,-0.06776888336837292,-0.008125146527588367
1733751396262622700,3.176622802734375,-0.014518354696035385,-0.04467895355150103,0.09908975817486643
1733751396272597500,3.186597412109375,0.011800912430882453,0.009183131147921084,0.13192498306706546
1733751396282573600,3.196573486328125,-0.007484218275547027,0.020769962436705827,0.09981032753437757
1733751396292549600,3.206549560546875,0.038141806867718696,0.06864712750762701,0.01762231206074357
1733751396302525400,3.216525390625,-0.11811784538030623,0.014556202488392591,-0.018121493754535912
1733751396312500500,3.22650048828125,-0.1800590455085039,-0.07065685989484191,-0.005548574037849903
1733751396322476500,3.2364765625,-0.11641980929076672,-0.06662701985687017,-0.10800766251534223
1733751396332452600,3.24645263671875,-0.11868483161330222,-0.06955678969845175,-0.14322715219557283
1733751396342427400,3.256427490234375,-0.16536065807044506,-0.018767390442639587,-0.1588578520476818
1733751396352403700,3.26640380859375,-0.21423896300792694,0.10470803644806145,-0.08712371831014752
1733751396362379500,3.276379638671875,0.061171969321370125,-0.1470870424941182,-0.1562507382892072
1733751396372355600,3.28635546875,-0.024998247656226158,-0.15264131562039254,-0.18800488994643091
1733751396382330400,3.296330322265625,-0.08637070798575877,-0.10769348199963569,-0.11739026175811886
1733751396392306700,3.306306640625,-0.05398235007822513,-0.0549751605078578,-0.10271145580336451
1733751396402282500,3.316282470703125,-0.057124155235290526,-0.03743482764214277,-0.06503361318558454
1733751396412258600,3.326258544921875,-0.0813812291353941,-0.08432225102335214,-0.03267915754765272
1733751396422233600,3.336233642578125,-0.13773206191062926,-0.08617766963168978,0.02963789015561342
1733751396432209400,3.34620947265625,-0.18391630545854568,-0.05216317182704806,0.07874050536826252
1733751396442185700,3.356185791015625,-0.2129974385142326,0.0050955695733428,0.12143749132230877
1733751396452160500,3.366160400390625,-0.23612053994834423,0.18008885612487793,0.0896983911037445
1733751396462136600,3.376136474609375,-0.13067162200510501,0.09697714993506669,0.2336643789678812
1733751396472112400,3.3861123046875,-0.18444412872493265,-0.0894397401675582,0.29933307518661023
1733751396482088400,3.39608837890625,-0.1350204648643732,-0.08707856399416923,0.13339388657584786
1733751396492063500,3.4060634765625,-0.10653145248293876,-0.05694762962460517,0.13257087975516915
1733751396502039600,3.41603955078125,-0.07956161249279975,-0.051354193531721826,0.14251958844810722
1733751396512015600,3.426015625,-0.10501578722298145,-0.05545227650031447,0.18102672149688004
1733751396521991400,3.435991455078125,-0.12171499308943748,-0.027102672589570283,0.1915558604262769
1733751396531966500,3.445966552734375,-0.13007424063384532,0.02743263519629836,0.17614391789138317
1733751396541942500,3.455942626953125,-0.051499885612726205,-0.007090104391425847,0.20836261832043526
1733751396551918600,3.465918701171875,-0.017566051828861236,-0.05123860432803631,0.20051190482005476
1733751396561893400,3.475893310546875,-0.05342646976113319,-0.054791328373551364,0.20925971329063175
1733751396571869700,3.48586962890625,-0.05875204869806766,-0.027763912977278232,0.200651313290745
1733751396581845500,3.495845458984375,-0.041103579282760615,-0.00398322441726923,0.1790605359904468
1733751396591821300,3.5058212890625,-0.010851064360141754,0.016629355500638484,0.17273396331742405
1733751396601796600,3.515796630859375,0.0004389759391546249,0.028291590113192794,0.14933540594279765
1733751396611772400,3.5257724609375,0.053687166523933405,-0.0003498363509774208,0.14430895608291028
1733751396621748500,3.53574853515625,0.056363107734918594,-0.018233575826883314,0.10193740269094705
1733751396631723500,3.5457236328125,0.021689269238710403,-0.026508652219176292,0.06092457043156027
1733751396641699600,3.555699462890625,0.0028138883769512177,-0.019038024077564476,0.034992549056559796
1733751396651675400,3.56567529296875,-0.017945991057157516,0.02023673234283924,0.004968143801391125
1733751396661651700,3.575651611328125,-0.02100479410588741,0.08576777365654706,-0.011006839443743229
1733751396671626500,3.58562646484375,-0.0019669161587953566,0.12461115292236208,-0.009269201996177435
1733751396681602600,3.5956025390625,-0.03140753017663955,0.1231442952401936,-0.012138327691704033
1733751396691578600,3.60557861328125,-0.13290800275504588,0.2252427337117493,-0.02843056019246578
1733751396701553700,3.6155537109375,0.03618132044970989,0.16262509562671185,0.0322888430558145
1733751396711529500,3.625529541015625,-0.06331774917840957,0.2998812105886638,0.1281615388803184
1733751396721505500,3.635505615234375,-0.055362990781664845,-0.1003404888883233,-0.06433116400465369
1733751396731481900,3.64548193359375,-0.16090367866158484,-0.2989865998364985,-0.07841887219846248
1733751396741457000,3.655456787109375,-0.23142682917416094,-0.17757848073914645,0.12191650701090692
1733751396751433000,3.665432861328125,-0.24400632476210593,-0.09476283488646149,0.19315467392504215
1733751396761408800,3.67540869140625,-0.2008604259967804,-0.051724926540255546,0.2586993053726852
1733751396771384800,3.685384765625,-0.16996610603928564,-0.053141076948493716,0.27312822821959853
1733751396781359900,3.69535986328125,-0.13376315827965735,-0.030361674385517835,0.24361703318357467
1733751396791336000,3.7053359375,-0.11039163504242896,-0.035904987726360554,0.22076602668911216
1733751396801312000,3.71531201171875,-0.06569733779132365,-0.05996990005522966,0.13988032598569988
1733751396811287000,3.725287109375,-0.09985679702460765,-0.05464461337924003,0.05044365455806255
1733751396821262800,3.735262939453125,-0.1473515386492014,-0.0662559945873916,-0.03844268951043486
1733751396831239000,3.745239013671875,-0.09121756349503994,-0.03774374746084213,-0.05639233382940292
1733751396841215000,3.755215087890625,-0.003229483440518379,-0.025725831278413533,-0.08266308563947677
1733751396851189800,3.765189697265625,0.15517828675210474,0.011982990999519823,-0.07530380891785025
1733751396861166000,3.775166015625,0.2707856106162071,0.06922653483077883,-0.05383475830107927
1733751396871142000,3.785141845703125,0.33014848468899727,0.0994102223008871,-0.02620207048803568
1733751396881117000,3.795116943359375,0.37402912746965883,0.11481441992074251,0.0347657545633614
1733751396891093000,3.805093017578125,0.3640998541295528,0.13923589060232042,0.03235460176840425
1733751396901068800,3.81506884765625,0.3410474798440933,0.12912541547641157,-0.00390782109349966
1733751396911044900,3.825044921875,0.31558103015422817,0.16700871753841637,-0.03148381028324365
1733751396921020000,3.83502001953125,0.3048305035591125,0.2106871157452464,-0.04954992058873176
1733751396930996000,3.844995849609375,0.3601186755388975,0.008252718430012464,-0.05966901741251349
1733751396940971800,3.8549716796875,0.43636137274205683,-0.07249956515207887,-0.14405162032097577
1733751396950948000,3.864947998046875,0.37846389504671096,-0.07235971828997134,-0.1746846589937806
1733751396960923000,3.8749228515625,0.3036129444628954,-0.04832578562125563,-0.16771818098202346
1733751396970899000,3.88489892578125,0.20176058970689772,0.07333265497535467,-0.054935120758414266
1733751396980875000,3.894875,0.10542086089253425,0.9279643018431961,0.40666590718030926
1733751396990850000,3.90485009765625,0.2920528550505638,0.31238676415756345,-0.5271029892884195
1733751397000825900,3.914825927734375,0.1525783333867788,-0.5944875495143235,-0.6429810929179192
1733751397010802000,3.924802001953125,-0.01965630210638046,-0.6498647149518132,-0.13206789866909385
1733751397020778000,3.934778076171875,-0.11673545111119746,-0.47332288378402587,-0.13344357093647122
1733751397030753000,3.9447529296875,-0.13063012095093726,-0.2031673877649009,-0.11685352453291416
1733751397040728800,3.954728759765625,-0.16572364616394042,-0.06357844594120979,0.007422258955240249
1733751397050705000,3.964704833984375,-0.20431378132104872,-0.04498056684657931,0.05265387795343995
1733751397060680000,3.974679931640625,-0.13910510382950306,-0.010793781214952468,0.10061316834986209
1733751397070655700,3.98465576171875,-0.03236497703194618,-0.03339636590629816,0.146540076135844
1733751397080632000,3.994632080078125,-0.09544716388881205,-0.03863236686363816,0.10382511613368987
1733751397090607900,4.00460791015625,-0.17465455611646175,-0.023743717550486324,0.060439271132647986
1733751397100583000,4.0145830078125,-0.22566811951696872,-0.01482245220914483,-0.010302052175253628
1733751397110559000,4.02455908203125,-0.24139058930575846,-0.0165633045271039,-0.043478199459612364
1733751397120534800,4.03453466796875,-0.19048282436728475,-0.01294058398529887,-0.09590835165977478
1733751397130510800,4.0445107421875,-0.16199322746396064,-0.012572481325268744,-0.10769611234813928
1733751397140486000,4.05448583984375,-0.12233517081439495,-0.026383272273838517,-0.09144859577193856
1733751397150462000,4.0644619140625,-0.07525777781903743,-0.041215807485580444,-0.06632891369313001
1733751397160437800,4.074437744140625,-0.06107318512201309,-0.06111132517531514,-0.015780629716813564
1733751397170413000,4.0844130859375,-0.01760463027358055,-0.04632686688899994,-0.008242050905525685
1733751397180388900,4.094388916015625,0.0008013795107603073,0.010133271479606628,0.00431084893643856
1733751397190365000,4.104364990234375,0.04192600158154964,0.08247530798241495,0.12297244580462574
1733751397200341000,4.114341064453125,0.04919394675791263,0.12009952071681618,0.132989835819602
1733751397210316000,4.12431591796875,0.053611178678274155,0.10992314074784516,0.12787205441445113
1733751397220291800,4.134291748046875,0.05462941581010818,0.07001797746941447,0.10918182086125015
1733751397230268000,4.144267822265625,0.10046645335555077,0.042555677787214516,0.05824789856821298
1733751397240243000,4.154242919921875,0.1155401038467884,0.009824643921852111,-0.027392303185909985
1733751397250218800,4.16421875,0.1108779572546482,-0.02577186237722635,-0.08382686872184276
1733751397260195000,4.174195068359375,0.09253273774683475,-0.05916778989210725,-0.10383505300581454
1733751397270171000,4.1841708984375,0.0949140799254179,-0.05161971260011196,-0.10343392485901713
1733751397280146000,4.19414599609375,0.07421732885539531,-0.04031535151451826,-0.09255173470824957
1733751397290121700,4.204121826171875,0.023971242696046828,0.0006549567773938179,-0.07510916312858462
1733751397300098000,4.21409814453125,-0.015022212564945221,0.07707447185218334,-0.05931918106153607
1733751397310072800,4.22407275390625,-0.012611644291877746,0.10941183022484183,-0.009814122527837752
1733751397320049000,4.234048828125,-0.020199907463788986,0.12391308765560388,0.01711465479955077
1733751397330025000,4.24402490234375,-0.022663082706928253,0.09596168928220868,0.03527326569408178
1733751397340000800,4.254000732421875,-0.05078092368841171,0.041001287952065466,0.073129679749161
1733751397349975800,4.263975830078125,-0.09371288744211197,0.014245529104024171,0.07627426138520241
1733751397359952000,4.273951904296875,-0.1258703592032194,-0.010894465110450982,0.06222732359319925
1733751397369928000,4.283927978515625,-0.10123276155292987,-0.0310723068729043,0.05846431779786944
1733751397379903700,4.29390380859375,-0.09308335736691951,-0.055591977231949564,0.06797112794220447
1733751397389879000,4.303879150390625,-0.041429157975316044,-0.0678835957892239,0.05768865725025534
1733751397399854800,4.313854736328125,-0.021630232527852056,-0.07916019208505749,0.062009589189290996
1733751397409831000,4.323830810546875,0.015828852772712707,-0.0839843973711133,0.07157046760842203
1733751397419806000,4.333805908203125,0.07355506555438042,-0.06865691824927926,0.054850072823464865
1733751397429782000,4.343781982421875,0.09804127203524111,-0.028355302999168632,0.06836991800144314
1733751397439757800,4.3537578125,0.09795359375178814,0.018072101654857398,0.07059738479256629
1733751397449734000,4.36373388671875,0.08925064733624458,0.020475363404303788,0.0675635700546205
1733751397459709000,4.373708984375,0.08863339222073555,0.023332506401091812,0.06332432504966855
1733751397469684700,4.383684814453125,0.07519464945495129,0.021236995426565406,-0.005257189875841141
1733751397479661000,4.3936611328125,0.11326456013023853,-0.004023994819074869,-0.014397066403925417
1733751397489635800,4.4036357421875,0.1404232006907463,-0.04535466085597872,-0.03941401876062155
1733751397499612000,4.41361181640625,0.14488953244984148,-0.006085749654471874,-0.04879267248064279
1733751397509588000,4.423587890625,0.154500825881958,0.00593713496401906,-0.025770254942029714
1733751397519564000,4.43356396484375,0.13213935647010802,0.012435118681192398,0.014644173032790421
1733751397529538800,4.443538818359375,0.11954583235681056,0.007096972523629665,0.04190758914202451
1733751397539515100,4.45351513671875,0.10719546934962272,0.0046843584239482875,0.05447524816170334
1733751397549491000,4.463490966796875,-0.016970424023270606,0.0279068285793066,0.03590469546541571
1733751397559466800,4.473466796875,-0.18376608333289624,0.06317264161929488,0.006897942820191383
1733751397569441800,4.48344189453125,-0.34819033733606336,0.10293342799097299,0.006604658962041139
1733751397579417900,4.49341796875,-0.4919324533164501,0.11696604499667883,0.02512538116723299
1733751397589394000,4.503393798828125,-0.6238923615664244,0.1293153850905597,0.04763488074764609
1733751397599368700,4.51336865234375,-0.7270388477861881,0.08837240319699048,0.11146335592716931
1733751397609345000,4.523344970703125,-0.7579834366261958,0.018089929572492836,0.19573621485084294
1733751397619320800,4.53332080078125,-0.6698527332305908,-0.08452566464096307,0.22913623401895164
1733751397629297000,4.543296875,-0.533533460727334,-0.20209026005268096,0.2589059338606894
1733751397639272000,4.55327197265625,-0.3456716325134039,-0.30967984328642484,0.30915932654365896
1733751397649248000,4.563248046875,-0.17662790201604364,-0.37101284838840365,0.2699601195774972
1733751397659223800,4.573223876953125,0.0016214637219905852,-0.3499979712799191,0.21210940363332628
1733751397669199000,4.58319921875,0.13828501961827278,-0.29794542022049425,0.12776231042966246
1733751397679175000,4.5931748046875,0.31747838820815083,-0.16458412073999643,0.008723843073099851
1733751397689150700,4.603150634765625,0.460080101981759,-0.022887685243040322,-0.08500774906948208
1733751397699127000,4.613126953125,0.5375462035000323,0.12148103820309042,-0.1339835230320692
1733751397709101800,4.623101806640625,0.5350643235564232,0.23638138284161686,-0.24437793455347417
1733751397719078000,4.633077880859375,0.40675533902943134,0.3124960697509348,-0.2822260191716254
1733751397729053700,4.6430537109375,0.2944774518489838,0.34009441690295933,-0.24161636088564992
1733751397739028700,4.65302880859375,0.16884616209864614,0.316576324801892,-0.1518862594693899
1733751397749004800,4.6630048828125,0.074971362093091,0.23077494113668798,-0.08045432354882359
1733751397758980900,4.67298095703125,-0.01933481506705284,0.0548158782929182,-0.018841040200740098
1733751397768956700,4.682956787109375,-0.07512333778440952,-0.1323255266919732,-0.0025169512569904328
1733751397778932000,4.692931884765625,-0.07994505885243415,-0.2760835708938539,-0.010063567244261502
1733751397788907800,4.70290771484375,-0.07516016266345978,-0.34648572537526484,-0.0032053719125688072
1733751397798883600,4.712883544921875,-0.09406243153214454,-0.33921821859031914,-0.02670373639985919
1733751397808860000,4.72285986328125,-0.088304306396842,-0.24312983418852088,-0.038263241290301085
1733751397818834700,4.732834716796875,-0.052287821120023725,-0.11249152993112801,-0.03418605497926473
1733751397828810800,4.742810791015625,-0.00326864640712738,0.023499825792014598,-0.0036009471014142036
1733751397838786800,4.752786865234375,0.06413724886775016,0.1391587337128818,0.013514584480971098
1733751397848761900,4.762761962890625,0.15031740271747113,0.16604162607192993,0.04772869651094079
1733751397858737700,4.772737548828125,0.2050812585622072,0.17236133061274886,0.048777767172455785
1733751397868713700,4.782713623046875,0.2164753437578678,0.12428630488216877,0.03694982060417533
1733751397878689800,4.792689697265625,0.16898936996161937,0.08552461255043745,0.045364305467158555
1733751397888664800,4.802664794921875,0.10657236901521683,0.04798369418531656,0.0680240271732211
1733751397898641000,4.812640869140625,0.01047346321940422,0.02589256614744663,0.11420184098035097
1733751397908616700,4.82261669921875,-0.12416998502612113,0.029586159968376158,0.11916034017056226
1733751397918591700,4.832591796875,-0.24224632935225962,0.03421542720422149,0.0878770208954811
1733751397928567800,4.84256787109375,-0.275849323746562,0.040355975785851476,0.07040799970030784
1733751397938543900,4.8525439453125,-0.2319640047907829,-0.0021234218947589396,0.05271043044626712
1733751397948519700,4.862519775390625,-0.14521744922995566,-0.068385115570575,0.015077596013993024
1733751397958494700,4.87249462890625,-0.08287877421677112,-0.16075974014624952,-0.06642097589075564
1733751397968470800,4.882470703125,-0.0009445873737335205,-0.19246260000765322,-0.12340382295921444
1733751397978446800,4.89244677734375,0.07368366037011147,-0.19673501662984488,-0.170262897028774
1733751397988423000,4.9024228515625,0.0964560486704111,-0.15934811978265642,-0.1810284750625491
1733751397998398000,4.91239794921875,0.10389935041368006,-0.08713219387754798,-0.20436025081127882
1733751398008373800,4.922373779296875,0.07282850484549999,0.005273702619224787,-0.20673443259671329
1733751398018349800,4.932349853515625,0.0840472334742546,0.07162643557935952,-0.18375629259124396
1733751398028324900,4.942324951171875,0.11395137335062026,0.16068828234523533,-0.13453823430538175
1733751398038300700,4.95230078125,0.15203180541992187,0.18552271774187684,-0.14091712168753145
1733751398048276700,4.96227685546875,0.12732815679609774,0.18750775407925246,-0.13585750021040438
1733751398058252800,4.972252685546875,0.1563525912284851,0.1409767429202795,-0.13826485361307858
1733751398068227800,4.982227783203125,0.1416436823964119,0.034594635780155654,-0.1199700491182506
1733751398078203600,4.99220361328125,0.09579963058829306,-0.030098201143741607,-0.04797507248744368
1733751398088179700,5.0021796875,0.010706687453389168,-0.06069499945938587,-0.005653787977993488
1733751398098154800,5.01215478515625,-0.06823533183634281,-0.07567176544740796,0.06085954237133264
1733751398108130800,5.022130859375,-0.12230009950101375,-0.06000555589050054,0.08184460886344314
1733751398118107000,5.03210693359375,-0.14867898786067962,-0.03238412012383342,0.135672645162791
1733751398128082700,5.042082763671875,-0.18152035023272037,-0.001168166996538639,0.1568501654870808
1733751398138057700,5.0520576171875,-0.20503332776725292,0.026096125895529985,0.12902268575429915
1733751398148033800,5.06203369140625,-0.22423428732156753,0.02617547474205494,0.10720920561403036
1733751398158009900,5.072009765625,-0.22188158671557903,0.019432284092158077,0.10392565389871597
1733751398167984600,5.081984619140625,-0.186097741150856,-0.00012435703203082083,0.06243672856017947
1733751398177961000,5.0919609375,-0.15753157187998293,-0.010566402199864386,0.002872778957337141
1733751398187936800,5.101936767578125,-0.10877017132043838,-0.023115210388600826,-0.01520692148208618
1733751398197912600,5.11191259765625,-0.02444821255803108,-0.009777151518315076,-0.01833162937387824
1733751398207888000,5.121887939453125,0.12981938908994198,0.016707389172911643,0.0503751193664968
1733751398217863700,5.13186376953125,0.15644728377461434,0.04312865536957979,-0.06629340398833156
1733751398227839700,5.14183984375,0.15418810667097568,0.12913009165152906,-0.04797507248744368
1733751398237814800,5.151814697265625,0.17470657856464386,0.19360241769254208,-0.018850830942392347
1733751398247790800,5.161790771484375,0.1302361531972885,0.25461130540668964,0.00800035110414028
1733751398257766700,5.1717666015625,0.034655718317627905,0.27025939478501676,0.03096870036795735
1733751398267743000,5.181742919921875,-0.00841653068959713,0.19373072024732826,0.06190042972639203
1733751398277717800,5.1917177734375,-0.06399462552666664,0.10429857886433601,0.05283332617357373
1733751398287693800,5.20169384765625,0.0013444003462791442,-0.03645049277991056,0.09793415839895606
1733751398297670000,5.211669921875,0.07410977682769299,-0.1759773291528225,0.12386822560057044
1733751398307645700,5.221645751953125,0.11120295142531395,-0.21287790378779173,0.12344576240479946
1733751398317620700,5.231620849609375,0.08225801196992397,-0.21653642629534006,0.12393296139985323
1733751398327596500,5.241596435546875,0.010487491744756699,-0.14776727984324098,0.12052461426109075
1733751398337572900,5.25157275390625,0.01905073742866516,-0.0072635612621903415,0.23851927165314554
1733751398347547600,5.261547607421875,-0.23949966099262235,0.07905600105822086,-0.14283698383420704
1733751398357523700,5.271523681640625,-0.32356969082057474,0.17352306786850094,-0.12113149411305785
1733751398367499800,5.281499755859375,-0.2130067908644676,0.2381551145158708,0.01587079221829772
1733751398377475800,5.291475830078125,-0.22209435268342495,0.23340295155271887,-0.06838248522207141
1733751398387450600,5.30145068359375,-0.16304653590917587,0.17379852380901575,-0.05220584192499518
1733751398397427000,5.311427001953125,-0.09472294126749038,0.07499649653434753,-0.01754851617217064
1733751398407402800,5.32140283203125,-0.07888707423210144,-0.04121814557313919,0.024449673862755296
1733751398417377800,5.331377685546875,-0.07815992900133133,-0.11643676042556762,0.08990487346127629
1733751398427353900,5.341353759765625,-0.08825871368944645,-0.15639555358737706,0.13954510268196463
1733751398437329700,5.35132958984375,-0.11368716945648193,-0.1460588684901595,0.2041799258083105
1733751398447305700,5.3613056640625,-0.09781155493259429,-0.11889818210303783,0.25465397550463675
1733751398457280800,5.37128076171875,-0.06212883165478706,-0.08636690859347582,0.2992338525958359
1733751398467256800,5.3812568359375,0.08940554563701152,-0.07500175723135472,0.4062112952806055
1733751398477232600,5.391232666015625,0.06766191586256026,-0.01466886908262968,0.23798428799360988
1733751398487209000,5.401208984375,-0.043161680856347084,0.013935001850128173,0.056241673312336204
1733751398497183700,5.411183837890625,0.006547229686379432,0.05784224037677049,0.1355881817497313
1733751398507159800,5.421159912109375,-0.02736088513433933,0.07936404409408569,0.06858852918818592
1733751398517136000,5.431135986328125,-0.07092763966023921,0.06004062720388174,0.025162059915810824
1733751398527111000,5.44111083984375,-0.0745668729454279,0.01780161415040493,0.019915026107802988
1733751398537086700,5.451086669921875,-0.10040858568847179,-0.008117255482077599,0.038704701447486875
1733751398547062800,5.461062744140625,-0.0861906752437353,-0.03996171577125787,0.057336409746482964
1733751398557038800,5.471038818359375,-0.02125847660601139,-0.04803483985066414,0.10486775705441832
1733751398567013600,5.481013671875,0.0969394482731819,-0.09133242204636335,0.1445444453392178
1733751398576990000,5.490989990234375,0.17378303397893904,-0.0426399950698018,0.24610643884651362
1733751398586965800,5.5009658203125,0.03661854282319545,-0.04655658399164676,-0.08519713416174053
1733751398596940800,5.51094091796875,0.004442366361618042,-0.06585077478736638,-0.03333009573705494
1733751398606916600,5.52091650390625,0.021877485287189483,-0.06031359892636537,0.04932422207407653
1733751398616893000,5.530892822265625,-0.04060790472030639,-0.07125526417940854,0.044542102364078164
1733751398626868700,5.54086865234375,-0.11745908921062946,-0.10601298156678676,0.028608547107875346
1733751398636843800,5.55084375,-0.23210195195674896,-0.13148264612704513,0.03369498352669179
1733751398646819800,5.56081982421875,-0.2725473595917225,-0.1593675551354885,0.06478767560049892
1733751398656795600,5.570795654296875,-0.21575170565843582,-0.1536333953976631,0.0579543224491179
1733751398666770700,5.580770751953125,-0.11145429583787918,-0.1592459745824337,0.05082783157005906
1733751398676746800,5.590746826171875,-0.041028760480880735,-0.16916063487529753,0.014666896321251987
1733751398686722800,5.600722900390625,0.022369652718305585,-0.17133680987060068,-0.016861995212733745
1733751398696698600,5.61069873046875,0.13546411697864533,-0.18655220692008734,-0.06478679881766439
1733751398706674000,5.620673828125,0.20207506248354912,-0.16528057857155798,-0.12913652139231563
1733751398716649700,5.630649658203125,0.1940723732918501,-0.1475116976469755,-0.16116313331536947
1733751398726626000,5.6406259765625,0.054554597008228296,-0.10029431165903806,-0.2699829889964312
1733751398736601000,5.65060107421875,-0.016773440146446227,-0.07565408366024494,-0.28062515984624625
1733751398746577200,5.6605771484375,-0.03140226947963238,-0.030151977157592772,-0.2514403472203761
1733751398756553200,5.67055322265625,0.02196341000497341,-0.02535100661665201,-0.21060447896309195
1733751398766529000,5.680529052734375,0.15152677850723265,-0.055603813800215715,-0.2034015618469566
1733751398776504000,5.690504150390625,0.26388532970845696,-0.17054799758046865,-0.19557488680928944
1733751398786480000,5.700480224609375,0.39954233891069885,-0.292416135405004,-0.22903686529770492
1733751398796456200,5.710456298828125,0.5205377855539322,-0.3819537829890847,-0.2687919525809586
1733751398806432300,5.720432373046875,0.5351116698294878,-0.44186683829054235,-0.3241907453283667
1733751398816407300,5.7304072265625,0.27447511278390885,-0.4200412293210625,-0.5500771837711333
1733751398826383000,5.740383056640625,-0.0021639000356197357,-0.2891603484794497,-0.5759272259511053
1733751398836359200,5.750359130859375,-0.2678980724811554,-0.07011573875546455,-0.45935076479390263
1733751398846334200,5.760334228515625,-0.4427069423764944,0.1375182730294764,-0.36158202608972784
1733751398856310000,5.77031005859375,-0.4009522057086229,0.31899200764149427,-0.02418283962011337
1733751398866286000,5.7802861328125,-0.2594113991647959,0.4018697589449584,0.25374519009664653
1733751398876262100,5.79026220703125,-0.037827918612957,0.3631279403574765,0.46068639731183647
1733751398886237200,5.8002373046875,0.19324059864282606,0.22203633888587354,0.5808475850880146
1733751398896213000,5.810212890625,0.3251630974918604,-0.03208060713261366,0.5920448325373232
1733751398906189300,5.820189208984375,0.3001467296570539,-0.2723413156256079,0.4889689273357391
1733751398916164000,5.8301640625,0.13939794929623603,-0.45554757311865685,0.30141353472247717
1733751398926140200,5.84014013671875,-0.10221768093705176,-0.5358062279649078,0.10192541999220847
1733751398936116200,5.8501162109375,-0.3673001114755869,-0.47773500113785267,-0.10473331701979041
1733751398946092000,5.860092041015625,-0.5516898796647787,-0.3199117528349161,-0.2597849086523056
1733751398956067000,5.870067138671875,-0.5663385827422142,-0.07458353181928395,-0.3512964866578579
1733751398966043100,5.880043212890625,-0.4451940830171108,0.12111688106581568,-0.3266502673096955
1733751398976019200,5.890019287109375,-0.21942659477889537,0.2514076870597899,-0.20384557928740976
1733751398985994000,5.899993896484375,-0.014186346262693404,0.29266265751197934,-0.09280819368734955
1733751398995970300,5.90997021484375,0.0917898104250431,0.26535087221637366,0.02099295753762126
1733751399005946000,5.919946044921875,0.1580260773986578,0.19386209154203532,0.05839505195394158
1733751399015922200,5.929922119140625,0.20243863509893417,0.10938976452350616,0.06943506301492453
1733751399025897200,5.939897216796875,0.17207623006105421,0.000971621511131525,0.014007774825394153
1733751399035873300,5.949873291015625,0.07715221326351165,-0.07753945901542901,-0.09238295401260256
1733751399045849000,5.95984912109375,0.014393851533532141,-0.1579587112508714,-0.20644728621840475
1733751399055824100,5.96982421875,0.024641104781627652,-0.18884572468474506,-0.31002763381078835
1733751399065800200,5.97980029296875,0.01787467938661575,-0.20653905615508555,-0.3080193627282977
1733751399075776000,5.98977587890625,0.06821078191697597,-0.21581205754354596,-0.2445771103873849
1733751399085752300,5.99975244140625,0.1638601903796196,-0.21898425783887504,-0.16260449123010037
1733751399095727000,6.00972705078125,0.2602157012850046,-0.19369681797772645,-0.08108546105921267
1733751399105703200,6.019703125,0.3288146057367325,-0.16239698595926164,-0.020767185957729816
1733751399115679200,6.02967919921875,0.3060492316991091,-0.10155936315879226,-0.030625147627294062
1733751399125655300,6.0396552734375,0.09445990641713142,0.010667232225835323,-0.1051727313503623
1733751399135630000,6.049630126953125,-0.2112900500744581,0.16568258350118995,-0.17367855069115756
1733751399145606100,6.059606201171875,-0.5036363351136446,0.33707550747320053,-0.12762845491692423
1733751399155582200,6.069582275390625,-0.7837351329982281,0.5040818869240582,-0.031813919020444156
1733751399165557200,6.07955712890625,-0.9363421079576015,0.5832080306090415,0.03525236903652548
1733751399175533000,6.089532958984375,-0.9519453352808952,0.6119461954459547,0.12855331467688083
1733751399185509000,6.099509033203125,-0.8107073110759258,0.535619473221153,0.22187048079967497
1733751399195485200,6.109485107421875,-0.5803647700071335,0.3227672883965075,0.35947029463276264
1733751399205460000,6.1194599609375,-0.31020693590044973,0.0240682733297348,0.502128560899198
1733751399215436300,6.129436279296875,-0.06302782632112502,-0.3017176322355866,0.5715756066128611
1733751399225412000,6.139412109375,0.14301730883717537,-0.5746802946299314,0.560669304934144
1733751399235387100,6.14938720703125,0.2409311551004648,-0.72908219018206,0.4879474753335118
1733751399245363200,6.15936328125,0.26657880657613275,-0.7461595817111432,0.3779598910473287
1733751399255339300,6.16933935546875,0.23854221413731574,-0.6247866800576448,0.20606632407680153
1733751399265315000,6.179315185546875,0.14594693254828453,-0.4130361728645861,0.06362652286663652
1733751399275290400,6.189290283203125,0.11618833862245082,-0.16044059119448065,-0.07382686823308468
1733751399285266200,6.19926611328125,0.11225801343619823,0.05423310996890068,-0.12311959919035434
1733751399295242000,6.209241943359375,0.11251987924277781,0.19724910363182424,-0.12928367477804423
1733751399305217300,6.21921728515625,0.16566753206253051,0.27279950772188605,-0.09793912683501839
1733751399315193000,6.229193115234375,0.20294366201162337,0.2752715238586068,-0.05998144436255097
1733751399325169200,6.239169189453125,0.1953957308501005,0.20940255582742393,-0.0076480305351316925
1733751399335145200,6.249145263671875,0.13628595475554464,0.14414397477954624,0.017580372615158556
1733751399345120300,6.259120361328125,-0.011476502782106398,0.10372582047767936,0.028896716399490832
1733751399355096000,6.269095947265625,-0.180168935623765,0.12022643503211437,-0.0022696984976530075
1733751399365072100,6.279072021484375,-0.3105009504109621,0.15161701407395303,-0.019140607669204474
1733751399375048200,6.289048095703125,-0.39741175662279127,0.15423041144274174,-0.05834639050662517
1733751399385023200,6.299023193359375,-0.4153133240163326,0.06997377300150692,-0.11399828123226761
1733751399394999300,6.308999267578125,-0.3564508006811142,-0.0595772474758327,-0.18674685270935296
1733751399404975000,6.31897509765625,-0.20061258871555326,-0.2279006278093904,-0.2664955122068524
1733751399414950100,6.3289501953125,0.0006739537388086318,-0.4235918344747275,-0.33409839135855435
1733751399424926000,6.338926025390625,0.1948603087991476,-0.6009172903008758,-0.3339035994388163
1733751399434902300,6.34890234375,0.3338157750248909,-0.7103013557359575,-0.31568960509523747
1733751399444878000,6.358878173828125,0.3583528349101543,-0.7086270658481866,-0.27503903027698395
1733751399454853000,6.36885302734375,0.23519524179697035,-0.5573458595998585,-0.20410846800729632
1733751399464829200,6.3788291015625,0.08037292887568473,-0.236171758678928,-0.1110142969854176
1733751399474805000,6.388804931640625,-0.127090840908885,0.13620653284378348,-0.02025353734716773
1733751399484780000,6.398780029296875,-0.3257844442605972,0.47736061486750836,0.09477394080236554
1733751399494756000,6.408756103515625,-0.4393237296789884,0.7087660359274596,0.20878727347329257
1733751399504732200,6.418732177734375,-0.4430407043755054,0.8062089767433702,0.31868411073610187
1733751399514708000,6.4287080078125,-0.33357319844067096,0.7486817205999046,0.4310172352351248
1733751399524683300,6.438683349609375,-0.2214987248778343,0.5546803667176514,0.41623862216770646
1733751399534659000,6.4486591796875,-0.11399696605801582,0.24366744819656014,0.3452376250103116
1733751399544635100,6.45863525390625,-0.06530804621279239,-0.09910524800494312,0.29243732432350517
1733751399554611200,6.468611083984375,-0.08175356957912444,-0.38291824410706754,0.20024784705638884
1733751399564586200,6.478586181640625,-0.11539806502759456,-0.5723506826385856,0.0738068483583629
1733751399574562000,6.48856201171875,-0.1743243012487888,-0.6139924604512751,-0.05322656327486038
1733751399584538000,6.4985380859375,-0.26919688012003895,-0.5410413886720314,-0.10349895291924475
1733751399594513200,6.50851318359375,-0.3361123615294695,-0.3588003229493275,-0.0889456730403006
1733751399604489200,6.5184892578125,-0.3266471985697746,-0.1477094852413982,-0.07518924262747168
1733751399614465300,6.52846533203125,-0.2686474295437336,0.03969696388784796,-0.038569969151914116
1733751399624440300,6.5384404296875,-0.13897358640432356,0.1636272949391976,-0.01070522614866495
1733751399634416000,6.548416015625,0.016325696378946302,0.20601722423806784,0.022430004603415727
1733751399644392200,6.55839208984375,0.12472995699644088,0.20419256609417497,0.02930734302699566
1733751399654368300,6.5683681640625,0.17277181110978126,0.124863081856817,0.02809694432392716
1733751399664343000,6.578343017578125,0.1653811163365841,0.027833544147387146,0.012908873672783374
1733751399674319400,6.5883193359375,0.13900164345502852,-0.02721384134646505,0.005176818116009235
1733751399684295200,6.598295166015625,0.13718436489999294,-0.05774535587355494,-0.025792759034782647
1733751399694271000,6.60827099609375,0.04603168333470821,-0.07645619382336735,-0.04118643526062369
1733751399704246000,6.61824609375,-0.08104863618016242,-0.018381459864974022,-0.07400412449613213
1733751399714222000,6.62822216796875,-0.1494254223138094,0.029223098809644577,-0.12190715466067194
1733751399724198100,6.6381982421875,-0.14759353071153164,0.025394991888850926,-0.1287441610738635
1733751399734173200,6.648173095703125,-0.08778642000257969,-0.015529431434720754,-0.11264540531858801
1733751399744149200,6.658149169921875,-0.06109539695382118,-0.09039674863144755,-0.09176745246276259
1733751399754125000,6.668125,-0.07616904744505881,-0.15313087096931413,-0.08371420212760568
1733751399764101400,6.678101318359375,-0.12128361593484878,-0.175249361938145,-0.04948474639803171
1733751399774076200,6.688076171875,-0.17064473595321178,-0.1518619287457317,0.030418665269762276
1733751399784052200,6.69805224609375,-0.22897417532503603,-0.1251641471626237,0.069253276707232
1733751399794028300,6.7080283203125,-0.2534697341561317,-0.07586082174610347,0.091143767606467
1733751399804003300,6.71800341796875,-0.24605390494167803,-0.027638889224966986,0.1219264438830316
1733751399813979100,6.727979248046875,-0.18478548950850962,0.05553574439953081,0.1672485176436603
1733751399823955200,6.737955078125,-0.13479893106818197,0.1446330734707415,0.15913155442252755
1733751399833931300,6.74793115234375,-0.2443728199869394,0.08262755766836925,0.339417102163285
1733751399843906000,6.757906005859375,-0.21352701534628868,0.05439082128126174,0.2551774148568511
1733751399853882400,6.76788232421875,-0.18553426204919815,0.05378413779211696,0.18022972590029238
1733751399863858200,6.777858154296875,-0.14089958603084088,0.052321216499549336,0.15984934730306266
1733751399873833200,6.787833251953125,-0.10487725553512572,0.01367471151270438,0.10561009985432028
1733751399883809000,6.79780908203125,-0.03369710241854191,-0.06946327076267916,0.006955810487270355
1733751399893785300,6.807785400390625,0.06564414629936217,-0.15135705709666944,-0.05427168841361999
1733751399903761200,6.81776123046875,0.14883154807388782,-0.23053019086169077,-0.10070493828654288
1733751399913736200,6.827736083984375,0.18730828598439692,-0.28165579980192706,-0.1287833240404725
1733751399923712300,6.837712158203125,0.2017261029154062,-0.2904634487009607,-0.11227496457099914
1733751399933688000,6.84768798828125,0.2141051074951887,-0.2784851704091765,-0.032667905501276254
1733751399943664400,6.857664306640625,0.20426994217932223,-0.2614437087099999,0.03660378364548087
1733751399953639200,6.86763916015625,0.22574878353774547,-0.21573733007321133,0.11105214477777481
1733751399963615200,6.877615234375,0.22480419616401195,-0.17122744947830215,0.17801204985082147
1733751399973591000,6.887591064453125,0.1730348459601402,-0.1075590510981623,0.23716201182529328
1733751399983566300,6.89756640625,0.16490648456215856,-0.03956247818744741,0.2521788175627589
1733751399993542100,6.907542236328125,0.1362099669098854,-0.004354176621511579,0.22141046207249163
1733751400003518200,6.917518310546875,0.06827098767161369,0.04414999777395278,0.15885405265539884
1733751400013494300,6.927494384765625,-0.009141337832808493,0.1131542681561783,0.09782251471802592
1733751400023469300,6.93746923828125,-0.1113923365175724,0.28961773685812947,-0.03533478662297129
1733751400033445000,6.947445068359375,-0.4368681532204151,0.2678788015251048,0.052374184229224914
1733751400043421200,6.957421142578125,-0.5034726689845324,0.24785868934132158,0.031303485280275344
1733751400053396200,6.967396240234375,-0.49531917314529417,0.22212856548028065,-0.10204334728345274
1733751400063372000,6.9773720703125,-0.4456131852120161,0.14170945937531068,-0.09207768745571375
1733751400073348400,6.987348388671875,-0.3815338040113449,0.049745918084867294,-0.05519713269546628
1733751400083324200,6.99732421875,-0.32739012589156624,-0.03934727366734296,-0.05829919036403298
1733751400093299200,7.00729931640625,-0.258829215362668,-0.11716354033015668,-0.03096577775850892
1733751400103275300,7.017275146484375,-0.16763620178699493,-0.16547270361017435,0.06019947102740407
1733751400113251300,7.027251220703125,-0.10535831705033778,-0.15203860048688947,0.13099369356632232
1733751400123226000,7.03722607421875,-0.05676116714179515,-0.13010978687126187,0.19352000010609627
1733751400133202400,7.047202392578125,-0.008535188633203506,-0.14524897687938063,0.19399258605390787
1733751400143178200,7.05717822265625,0.03768938692510128,-0.12041859660334885,0.11818608831092714
1733751400153154000,7.067154052734375,0.04774667055904865,-0.0701524905692786,0.07357537769004702
1733751400163129000,7.077129150390625,0.06470365057885646,-0.04335442694947123,-0.001298223116993904
1733751400173105200,7.087105224609375,0.06180500652790069,-0.014541881702095269,-0.042776773191988464
1733751400183081200,7.097081298828125,0.04234335021078586,-0.011445596187189221,-0.07634557305574417
1733751400193057300,7.107057373046875,0.010734744504094123,-0.016101166908070445,-0.09402429147884249
1733751400203032300,7.1170322265625,0.05871814642846584,0.04095755840819329,-0.14602584300339222
1733751400213008100,7.127008056640625,0.007294248661398888,0.05049275439679622,-0.09188172649219632
1733751400222984200,7.136984130859375,-0.05942658695876598,-0.08371595569327474,0.07106281034722924
1733751400232959200,7.146959228515625,-0.024173487269878387,-0.10184501169975846,-0.08114829716235399
1733751400242935300,7.156935302734375,-0.05391571458280086,-0.07840053282417357,-0.02426277298852801
1733751400252911000,7.1669111328125,-0.1305804365903139,-0.0023532120626419783,0.0009564239419996738
1733751400262886400,7.176886474609375,-0.2159387526631355,0.06678188162501901,0.028120325199514625
1733751400272862200,7.1868623046875,-0.2969277676105499,0.13717208994030952,0.05142886620312929
1733751400282838000,7.196838134765625,-0.3542062366247177,0.19696378388442098,0.05808320952579379
1733751400292814300,7.206814453125,-0.38533845699131486,0.22279643653817474,0.04784516249746084
1733751400302789000,7.2167890625,-0.3560661852777004,0.23537943925745783,0.08824658486023544
1733751400312765200,7.22676513671875,-0.2777794150263071,0.17561507171168922,0.18593056789040566
1733751400322741200,7.2367412109375,-0.1895084263771772,0.05818111694231629,0.20826368799060582
1733751400332717000,7.246717041015625,-0.07464227626919746,-0.05187171459980309,0.2321339545302093
1733751400342692000,7.256692138671875,0.010272387689352035,-0.13949008455909787,0.19743527385368942
1733751400352668200,7.266668212890625,0.0799339529365301,-0.2082472483124584,0.13700506281033156
1733751400362644200,7.276644287109375,0.10656126309931277,-0.2675741012237966,0.06378069051504134
1733751400372619300,7.286619384765625,0.11363280892074107,-0.26515235396958886,-0.029632191067188975
1733751400382595300,7.29659521484375,0.12724398564398287,-0.22240721802487967,-0.06968231577426194
1733751400392571100,7.306571044921875,0.15072656804025172,-0.17987375206947326,-0.12352525738179683
1733751400402547200,7.316547119140625,0.15131810419261454,-0.0918843568406999,-0.149981887152791
1733751400412522000,7.32652197265625,0.15402034888863564,0.0043352527253329755,-0.18104250358790158
1733751400422498300,7.336498291015625,0.09905658655762672,0.11513429952487349,-0.22540055462196468
1733751400432474000,7.34647412109375,-0.14657178644835947,0.017104790992662308,-0.013452917421609163
1733751400442449200,7.35644921875,-0.17319149782657622,-0.004526318318024278,-0.08461348905488848
1733751400452425200,7.36642529296875,-0.19963409907221794,0.009532748303189873,-0.04938946933001279
1733751400462401000,7.376401123046875,-0.2334282321244478,0.05290967934541404,0.040458559377491474
1733751400472377300,7.38637744140625,-0.29256840335726736,0.07483597221039236,0.14818725882098077
1733751400482352400,7.396352294921875,-0.34295360572636124,0.10227467182129621,0.18920622856020927
1733751400492328200,7.406328125,-0.31591128502190113,0.1021949576485902,0.24343524687588214
1733751400502304000,7.416303955078125,-0.2966144638776779,0.09067198537625372,0.21832491714730856
1733751400512279300,7.426279296875,-0.24187924960553644,0.0521715743292123,0.20449425245448946
1733751400522255000,7.436255126953125,-0.1778717645972967,-0.019628610381856558,0.22525515480190514
1733751400532231200,7.446231201171875,-0.11931494621038437,-0.08479001466557383,0.19502587462440132
1733751400542207200,7.456207275390625,-0.055068391749262806,-0.12296046310588717,0.12372794034704565
1733751400552182300,7.466182373046875,0.008740355816483497,-0.15270619755014778,0.06531535273641348
1733751400562158000,7.476157958984375,0.042243981489539145,-0.15057437315322458,0.022112024695426225
1733751400572134100,7.486134033203125,0.06498948178291321,-0.1437641086164862,0.03660977499485016
1733751400582110200,7.496110107421875,0.08629705822765826,-0.13749657265432177,0.06382789065763354
1733751400592085200,7.506085205078125,0.11142039356827735,-0.119020931699872,0.09502382391020656
1733751400602061300,7.516061279296875,0.08107903131842613,-0.09311134135238826,0.09633695233538746
1733751400612037000,7.526037109375,0.02865969277322292,-0.050625002474337814,0.10980433667376636
1733751400622012200,7.53601220703125,-0.04034837700128555,-0.003854191210120916,0.08793211208358406
1733751400631988200,7.54598828125,-0.07803776392638682,0.050022725732252,0.028353111042082307
1733751400641964300,7.55596435546875,-0.13549626568257808,0.07975771958678961,0.09057736589536071
1733751400651939000,7.56593896484375,-0.21065993547737596,0.10069748563244939,0.09601371173039078
1733751400661915400,7.575915283203125,-0.23247663048803804,0.09286087372265756,0.0638404578782618
1733751400671891200,7.58589111328125,-0.2027805804044008,0.08112265126444398,0.07135331772640346
1733751400681867000,7.595866943359375,-0.15698679747879504,0.030059257372841236,0.11949570960476993
1733751400691842000,7.605842041015625,-0.12585457711219786,0.02293897703886032,0.09623334583044052
1733751400701818000,7.615818115234375,-0.10273439828753471,0.04013093485832214,0.11144216700866817
1733751400711794200,7.625794189453125,-0.07173311082422733,0.055869113672897215,0.11516118753179908
1733751400721770200,7.635770263671875,-0.04246902241706848,0.07290266606025397,0.1672315665088594
1733751400731746300,7.645746337890625,-0.002189034476876259,0.10838869772218167,0.20826938707903025
1733751400741722000,7.65572216796875,0.04725450312793254,0.14421667468957602,0.2098182239562273
1733751400751698200,7.6656982421875,0.0674555796355009,0.12830043589435516,0.28893413850814104
1733751400761673200,7.675673095703125,0.09164309543073176,0.07102532788105309,0.16712649869918822
1733751400771649000,7.68564892578125,0.09291618410646915,0.06295563786774873,0.09224266875907779
1733751400781625300,7.695625244140625,0.06652502078711986,0.007518997327983379,0.06681450525298714
1733751400791601200,7.70560107421875,0.007021861460804939,-0.05861198264025151,0.030261136620491742
1733751400801576200,7.715576171875,-0.03345744844377041,-0.14000139508210122,-0.054700873611122365
1733751400811552000,7.725552001953125,-0.0843003314524889,-0.24174101017862556,-0.24970599770843982
1733751400821528300,7.7355283203125,-0.13666355589628218,-0.3174944625601172,-0.15318404419496653
1733751400831503000,7.745503173828125,-0.23655308614671228,-0.37052418808862564,-0.13793854426816105
1733751400841479200,7.755479248046875,-0.30827158392369747,-0.34174912530742585,-0.08932619679048658
1733751400851455200,7.765455322265625,-0.32083705098628995,-0.2128393253430724,-0.011018968272954226
1733751400861431000,7.77543115234375,-0.26056933702826496,-0.02862929763495922,0.03493307395428419
1733751400871406000,7.785406005859375,-0.1765250261634588,0.1587113562490791,0.04744695696011186
1733751400881382100,7.795382080078125,-0.09712181910276413,0.3402363095916807,0.02510594581440091
1733751400891358200,7.805358154296875,-0.010163082095980644,0.4624702119886875,-0.013607523461431265
1733751400901333000,7.8153330078125,0.029499066206812856,0.5403433599378913,-0.08410846214219928
1733751400911309300,7.825309326171875,0.05008066646456718,0.5584057439163327,-0.11490852794498205
1733751400921285000,7.83528515625,0.043160511812567706,0.5167470149688422,-0.19108020573854445
1733751400931261200,7.84526123046875,-0.007236380994319915,0.3915481983516365,-0.22590908866599202
1733751400941236200,7.855236328125,-0.01700783342421055,0.24546149200648068,-0.2183364614546299
1733751400951212300,7.86521240234375,-0.03684942896962166,0.07035078962035476,-0.21812486453056334
1733751400961188000,7.87518798828125,-0.10457622676193713,-0.051003480397909876,-0.1872068714365363
1733751400971164200,7.8851640625,-0.13174655776023864,-0.154152523900941,-0.12722104315981267
1733751400981139200,7.89513916015625,-0.1901683515906334,-0.21440533255077898,-0.11991057401597499
1733751400991115000,7.905114990234375,-0.2140361339122057,-0.23550460000708698,-0.08496201023161411
1733751401001091300,7.91509130859375,-0.21057927145659922,-0.24676607179902493,-0.04211421763002872
1733751401011066000,7.925066162109375,-0.18998130458593368,-0.2349053189396858,-0.010060206243395806
1733751401021042200,7.935042236328125,-0.13666180233061312,-0.21060564800687134,0.0052076516456902025
1733751401031018200,7.945018310546875,-0.11461772830486297,-0.17935645019710064,-0.005962707796692848
1733751401040994000,7.954994140625,-0.12567688245773315,-0.1217111206319183,0.013232698799669741
1733751401050969000,7.964968994140625,-0.1728828702688217,-0.049253787186369295,0.014264672195911406
1733751401060945200,7.974945068359375,-0.18413550116717814,-0.0009038169719278812,0.043135961893200875
1733751401070921200,7.984921142578125,-0.21418167986273765,0.012903612975776194,0.05667378111928701
1733751401080896300,7.994896240234375,-0.2215297045379877,0.031244960026070474,0.06685819826424122
1733751401090872000,8.0048720703125,-0.2142395475298166,0.01783821983374655,0.05142024450525641
1733751401100848000,8.01484814453125,-0.2433405543297529,0.004570522785931825,0.04659750052392483
1733751401110824200,8.02482421875,-0.3077642189234495,-0.043487551809847355,0.06617547669708729
1733751401120799000,8.034799072265624,-0.369935136154294,-0.13510996977873146,-0.01043006246909499
1733751401130775300,8.044775390625,-0.3074023998737335,-0.23317557253763077,-0.00761412826552987
1733751401140751000,8.054751220703125,-0.22992636148333548,-0.3535403931271285,0.008917904340475798
1733751401150726100,8.06472607421875,-0.0805354259610176,-0.4415613525379449,0.024659955612570048
1733751401160702200,8.0747021484375,0.06210545077919959,-0.4881790921323001,0.018166648070514203
1733751401170678000,8.084677978515625,0.1798503711938858,-0.4407533971559256,0.030465280890464783
1733751401180654000,8.094654052734375,0.27325755368769167,-0.29969131403975185,0.0684796619862318
1733751401190629000,8.104629150390625,0.2686819163352251,-0.09278006357140839,0.07783347352594137
1733751401200605200,8.114605224609376,0.20434125384986399,0.13198409284316004,0.10891031044349074
1733751401210581000,8.1245810546875,0.15434475853741167,0.33067528504207727,0.11247297136113046
1733751401220556300,8.134556396484374,0.09695230775475501,0.4559087345812469,0.14609174784645437
1733751401230532000,8.144531982421874,0.057656070154905315,0.5177130835220217,0.11269991198480128
1733751401240508200,8.154508056640625,0.04345101919174194,0.5003101863656193,0.06567176495864988
1733751401250484200,8.164484130859375,0.046987376624345774,0.4087237164929509,0.02039294581785798
1733751401260459300,8.174459228515625,0.03520341532826424,0.26040318668112156,-0.03536678919643164
1733751401270435000,8.18443505859375,0.04289163174331188,0.0835983206629753,-0.07797668138891459
1733751401280411100,8.1944111328125,0.0633557431012392,-0.032465807057917115,-0.10435907687991856
1733751401290386200,8.20438623046875,0.06314122356772423,-0.10174275690168141,-0.13091902089491486
1733751401300362000,8.214362060546875,0.08045125480890274,-0.11649250920079648,-0.1312716337248683
1733751401310338300,8.22433837890625,0.08778583548069,-0.09705058049745857,-0.12713131904974578
1733751401320314000,8.234314208984374,0.08247545411288738,-0.02177256360799074,-0.1192887888558209
1733751401330289200,8.2442890625,0.08298807981014251,0.04848565235808491,-0.12718626410737632
1733751401340265000,8.254264892578124,0.045353637942671776,0.15347235961705447,-0.12357114235013722
1733751401350241300,8.2642412109375,-0.012916764718294144,0.23353461510837076,-0.11893193824216723
1733751401360216000,8.274216064453125,-0.05667173529267311,0.31107173603624105,-0.07025806983560323
1733751401370192100,8.284192138671875,-0.10858487788140773,0.3471011538598686,-0.06374298885315656
1733751401380168200,8.294168212890625,-0.09403729709088801,0.34735585927329954,-0.04847381578981876
1733751401390144000,8.30414404296875,-0.07434241653978824,0.291801656768471,-0.030414135225117205
1733751401400119000,8.314119140625,-0.07075579022467136,0.21946225061416624,-0.02266995083913207
1733751401410095000,8.32409521484375,-0.07705576715171336,0.1447558961328119,-0.024046353758871555
1733751401420071200,8.3340712890625,-0.0645195261836052,0.06509864124581217,-0.022888854286819697
1733751401430047000,8.344046875,-0.09776479318141937,-0.021809826878458262,-0.00006166705936193466
1733751401440022300,8.354022216796874,-0.08332301085293292,-0.09147482619173825,-0.004588496834039688
1733751401449998000,8.363998046875,-0.04463175340890884,-0.12149703948982059,0.024912907460331916
1733751401459974100,8.37397412109375,-0.006478840625286102,-0.1397980545297265,0.05377236058935523
1733751401469949200,8.38394921875,0.02532967156767845,-0.12093867495469748,0.0662161009684205
1733751401479925200,8.39392529296875,0.04113748155236244,-0.07799706658981741,0.09174450997859239
1733751401489901000,8.403901123046875,0.035061376509070395,-0.011710165407508612,0.10075798364803194
1733751401499877000,8.413877197265625,0.0304600201934576,0.023565876765549183,0.10056684499010443
1733751401509852200,8.42385205078125,0.02797171050906181,0.0674954001892358,0.0876873435422778
1733751401519828000,8.433827880859376,0.020061375775933265,0.08832410707585513,0.06914294820055365
1733751401529804300,8.44380419921875,0.032227029865980146,0.07261318159438669,0.05066504222378134
1733751401539779000,8.453779052734374,0.04538578664660454,0.05324738686718046,0.05622910609170794
1733751401549755100,8.463755126953124,0.06343699164390564,0.023867855386808513,0.028379560657590626
1733751401559731200,8.473731201171875,0.09979717579185962,-0.029088439579308033,0.026661650823801755
1733751401569707300,8.483707275390625,0.1422480780303478,-0.03633760698996484,0.048722237592935556
1733751401579682000,8.49368212890625,0.17390519905388355,-0.013419307412952185,0.0353401934504509
1733751401589658400,8.503658447265625,0.19295885909199714,0.017637655760347842,0.01800400485470891
1733751401599634200,8.51363427734375,0.125281745660305,0.08237389343455434,-0.010672931314259768
1733751401609609200,8.523609130859375,0.00500233833193779,0.15919789765700698,-0.0029812077678740023
1733751401619585000,8.5335849609375,-0.19410043034255503,0.24312493881769476,-0.009137976831942797
1733751401629561000,8.54356103515625,-0.3490618594735861,0.2809226084228605,-0.04132409016564488
1733751401639537200,8.553537109375,-0.40958267140984533,0.26610154445320366,-0.016370266173034904
1733751401649512000,8.563511962890624,-0.3497358132123947,0.12149674722887575,-0.023227584721893072
1733751401659488300,8.57348828125,-0.25872867759764195,-0.09641323244199156,-0.05913228018730878
1733751401669464000,8.583464111328125,-0.14389292262792586,-0.3022451632410288,-0.08898498213738203
1733751401679439000,8.593439208984375,-0.08416472237408161,-0.4537029681652784,-0.12956219945847988
1733751401689415200,8.603415283203125,-0.058035424861311906,-0.4882254154920578,-0.15766381995752454
1733751401699391200,8.61339111328125,-0.07993336841464042,-0.42377325545623895,-0.14310177225023507
1733751401709367000,8.623366943359375,-0.11557575968205928,-0.27098376353681086,-0.11389540537968278
1733751401719342300,8.63334228515625,-0.13314882577359677,-0.07968472741581499,-0.06873363674730062
1733751401729317000,8.643317138671875,-0.13913666801154612,0.11053761938437819,-0.056254678924381726
1733751401739293200,8.653293212890626,-0.13185937048494814,0.30673867526799437,0.005407119740545749
1733751401749269200,8.663269287109374,-0.04949672909677028,0.36663222215138375,0.015983166551589965
1733751401759244300,8.673244384765624,-0.015054361268877983,0.3463664098445326,0.05450009034201502
1733751401769220000,8.68322021484375,-0.0004582651615142822,0.270911721213907,0.07792232085317373
1733751401779196200,8.693196044921875,0.019429507613182066,0.1646494410611689,0.09606032735109328
1733751401789171200,8.703171142578125,0.06286942088901996,0.07679455893225967,0.07911430711671709
1733751401799147000,8.71314697265625,0.06538871023356914,-0.00006765840873122215,0.10383519913628697
1733751401809123000,8.723123046875,0.05691664996445179,-0.048145533683523534,0.10637918453067541
1733751401819099100,8.73309912109375,-0.003895253872871399,-0.11236373883299529,0.08047828894630074
1733751401829074200,8.74307421875,-0.014575053319334983,-0.15022066434472797,0.06170140002295375
1733751401839050000,8.753050048828126,-0.05202946244478225,-0.14898790767937897,0.05004924841299653
1733751401849026300,8.7630263671875,-0.02432487843930721,-0.12529073268435895,0.011430763944238424
1733751401859001000,8.7730009765625,-0.02284662258028984,-0.09546784135065972,-0.002705459566414356
1733751401868977200,8.78297705078125,-0.022743746727705,-0.02411788462512195,-0.025078034894168374
1733751401878953200,8.792953125,-0.022630349481105802,-0.013792013182863593,-0.056298664196580646
1733751401888929000,8.802928955078125,-0.08327800266742706,0.013947057614102958,-0.09193126472234725
1733751401898904000,8.812904052734375,-0.1360538995653391,0.07561068290993571,-0.07557868033647537
1733751401908880100,8.822880126953125,-0.15329671078920362,0.06763356655091046,-0.09079495416879653
1733751401918856200,8.832856201171875,-0.14205109415352343,0.060215326183661814,-0.07538359615579247
1733751401928831000,8.8428310546875,-0.12912263899743556,0.02331508034225553,-0.04312149497643113
1733751401938807300,8.852807373046875,-0.10436930601298808,-0.021904665555059908,-0.018911036697030065
1733751401948783000,8.862783203125,-0.12150807234048842,-0.05733819984477013,-0.02961830867230892
1733751401958759200,8.87275927734375,-0.09050561583340168,-0.08214176517911255,0.019442805486172436
1733751401968734200,8.882734130859374,-0.08565992936789989,-0.10716164014525711,0.03446414126828313
1733751401978710300,8.892710205078124,-0.08181552889943122,-0.11508527275137602,0.04467953807339072
1733751401988686000,8.90268603515625,-0.1052490114569664,-0.11090922917574643,0.06403188879713416
1733751401998661000,8.9126611328125,-0.10054419476687908,-0.0840755097206682,0.05317863247990608
1733751402008637200,8.92263720703125,-0.09133505239486694,-0.06126826930269599,0.06456584954336285
1733751402018613000,8.932613037109375,-0.09074819241762161,-0.015319149684906004,0.04321034230366349
1733751402028589300,8.94258935546875,-0.06167641171216964,0.01281399846356362,0.02173077029287815
1733751402038564000,8.952564208984375,-0.05207914680540562,0.060148361894674596,0.03587430032715201
1733751402048540200,8.9625400390625,-0.027559038054943082,0.08932670824714005,0.055032589783519506
1733751402058516200,8.97251611328125,-0.008033668851852416,0.09172489196266978,0.06152984284833073
1733751402068491300,8.9824912109375,-0.013325345519185065,0.07863266107961535,0.12521978633999825
1733751402078467000,8.992467041015624,0.05988543664216995,0.030243345235474405,0.2095861687660217
1733751402088443100,9.002443115234374,-0.10959025553166865,0.04836341421790421,0.0011795651733875275
1733751402098419200,9.012419189453125,-0.10922200674116611,0.054699631502106785,0.1398668819822371
1733751402108394200,9.022394287109375,-0.08101298034489154,0.0062201166238635775,0.12021247957199811
1733751402118370000,9.0323701171875,-0.07140460952222347,-0.045855559582822024,0.11146131010055542
1733751402128346000,9.04234619140625,-0.06966214976906776,-0.09043404843453318,0.06764978703334927
1733751402138321200,9.052321044921875,-0.06598083090782166,-0.11782547483760863,0.021892975117266178
1733751402148297000,9.062296875,-0.08331248945891857,-0.13286730541847647,-0.03949351373761892
1733751402158273300,9.072273193359376,-0.0917418796300888,-0.12480141479745506,-0.05911196805164218
1733751402168249000,9.0822490234375,-0.0947352162271738,-0.09634316288046538,-0.0925438436627388
1733751402178224000,9.09222412109375,-0.09819558581411839,-0.08404537031073123,-0.0796902073085308
1733751402188200200,9.1022001953125,-0.1054664535999298,-0.06076528821662068,-0.03634644788354635
1733751402198176300,9.11217626953125,-0.11179448757767677,-0.04228577480465173,0.02696121829226613
1733751402208152000,9.122152099609375,-0.09020750966966151,-0.02527282681390643,0.046059886515885586
1733751402218127400,9.13212744140625,-0.06773205848932266,0.00481682569719851,0.046078737346827985
1733751402228103200,9.142103271484375,-0.07084872920513152,0.023354060645774007,0.032771804267168046
1733751402238079000,9.152078857421875,-0.05923486377894878,0.06244684809539467,0.02494432551190257
1733751402248054300,9.16205419921875,-0.05437339522242546,0.07147321777902543,0.021552783377468583
1733751402258030000,9.172030029296875,-0.04366086255013942,0.06428527903631329,0.0014624737679958342
1733751402268006100,9.182006103515626,-0.013657353952527046,0.06035042380541562,-0.02770341496169567
1733751402277982200,9.191982177734374,-0.003868365865945816,0.04010799237415194,-0.053595542717725035
1733751402287957200,9.201957275390624,-0.025074235501885412,0.0272162159666419,-0.06388999610841274
1733751402297933000,9.21193310546875,-0.04210778788924217,0.013039916173927486,-0.058630760405957695
1733751402307909400,9.221909423828125,-0.06585691226720809,-0.00009330430664122104,-0.06372925258874892
1733751402317884200,9.23188427734375,-0.06776420719325542,-0.018647417324781417,-0.07752543049007654
1733751402327860200,9.241860107421875,-0.09719137720763683,-0.03024659663848579,-0.08292831244692206
1733751402337836300,9.251836181640625,-0.09483750755786895,-0.0392111531322822,-0.08079276172295212
1733751402347812000,9.26181201171875,-0.07331541157960891,-0.02068776404596865,-0.06998100645989179
1733751402357787100,9.271787109375,-0.08483516898155212,-0.006477744646742939,-0.04819207623898983
1733751402367763000,9.281762939453126,-0.0737649089127779,0.009765680276229977,-0.03893251885399222
1733751402377739300,9.2917392578125,-0.060735915991663926,0.025054946279525755,-0.0029864684648811817
1733751402387714000,9.301714111328126,-0.09099544517695904,0.020993761255219578,0.042916766184568404
1733751402397690000,9.311690185546874,-0.09239595962464808,0.052364868411608034,0.04607625312879681
1733751402407666200,9.321666259765625,-0.08558861769735812,0.06991612453013658,0.07613309934884309
1733751402417642200,9.331642333984375,-0.08210019105970859,0.09028959846254438,0.055002486906200646
1733751402427617000,9.341616943359375,-0.09315408451557158,0.12022135699819772,0.04681844979822635
1733751402437593300,9.35159326171875,-0.09835632933378219,0.1470633693575859,0.049721770024299616
1733751402447569200,9.361569091796875,-0.17978841187357902,0.14387206250298767,0.05021086871549487
1733751402457544200,9.371544189453125,-0.24563012657165526,0.15408687478620559,0.058571431434154504
1733751402467520300,9.381520263671876,-0.19268705641329287,0.1520590222204104,0.07871069475188851
1733751402477496000,9.39149609375,-0.10996434954106807,0.0936409181844443,0.06355564958751202
1733751402487472000,9.40147216796875,-0.00997194343805313,0.0071980582779273385,0.04414835380613803
1733751402497447200,9.411447265625,0.021115268743038176,-0.07371464003026484,0.04633008175939321
1733751402507423200,9.42142333984375,-0.0011252046376466751,-0.17049217574000358,0.022180413756519555
1733751402517399000,9.43139892578125,-0.08461246614158154,-0.18635723233725873,0.03498743449002504
1733751402527374300,9.441374267578125,-0.20071429552435874,-0.1751592177029699,0.03941431102156639
1733751402537350100,9.45135009765625,-0.24201076703071592,-0.1612152288287878,0.01613178124204278
1733751402547326200,9.461326171875,-0.26226445050835606,-0.1519678002730012,-0.0013075754672288893
1733751402557302300,9.47130224609375,-0.25868483845591544,-0.12972696156613528,-0.0429646969795227
1733751402567277300,9.48127734375,-0.2284621341496706,-0.09224785639084875,-0.08588438577353953
1733751402577253000,9.491253173828126,-0.19433891527354716,-0.012554068885743617,-0.09816241419687867
1733751402587229200,9.501229248046876,-0.14083528862297534,0.09946001625936478,-0.11513254595920443
1733751402597204200,9.511204345703124,-0.07479366743862628,0.22680362635292112,-0.08717267201840877
1733751402607180000,9.521179931640624,-0.018091537007689475,0.3148500124659389,-0.04782601940557361
1733751402617156400,9.53115625,0.013107903376221657,0.35223237926848233,0.0020322364799678326
1733751402627132200,9.541132080078125,0.016233341920375823,0.34188773006051776,0.04203150778263807
1733751402637107200,9.551107177734375,0.04206628683507442,0.25840456020981073,0.07588453141525388
1733751402647083000,9.5610830078125,0.04333645290136337,0.14651088657397776,0.06763166685476898
1733751402657059000,9.57105908203125,0.009116203391551971,0.029574506063200532,0.05817877885475754
1733751402667035100,9.58103515625,-0.04309329179525375,-0.060434996816329654,0.018690379683673382
1733751402677010200,9.59101025390625,-0.08440320730507374,-0.1459387127092108,-0.026930530893057584
1733751402686986200,9.600986328125,-0.09632745385468006,-0.18988938851878046,-0.045164545111358166
1733751402696962000,9.610962158203124,-0.1428589034050703,-0.19572353803236037,-0.049171881056576966
1733751402706937000,9.62093701171875,-0.13763620032072066,-0.15925287924725562,0.02258124964237213
1733751402716913200,9.6309130859375,-0.20740122594237326,-0.10490158625878393,-0.05674480052888393
1733751402726889200,9.64088916015625,-0.17241408371329306,-0.012299473070167004,-0.018586042526364324
1733751402736865300,9.650865234375,-0.08913140487074851,0.08784668055614456,0.03253828777223825
1733751402746840300,9.66084033203125,-0.03549333818554878,0.16968637578245252,0.0456488214969635
1733751402756816400,9.67081640625,-0.01288461601436138,0.23190668511297552,0.0673144175991416
1733751402766792200,9.680792236328125,0.0038116672426462173,0.27913535967990755,0.09981149657815694
1733751402776767200,9.690767333984375,0.14767127212285994,0.2618141494575888,0.15463088200241326
1733751402786743000,9.700742919921876,0.035410336077213285,0.2512658674363047,-0.03564209900647402
1733751402796719400,9.71071923828125,0.11088964769244193,0.1900719420114532,0.04357420717999339
1733751402806695200,9.720695068359374,0.20511983700692651,0.08114584947694092,0.09737667064666747
1733751402816670200,9.730670166015624,0.24221418064832687,-0.046195148534420874,0.0632281711988151
1733751402826646300,9.740646240234375,0.09940086995065212,-0.12800139814885333,-0.09031915335059165
1733751402836622300,9.750622314453125,0.05987140811681747,-0.20915663650864735,0.026738223191350698
1733751402846597000,9.76059716796875,-0.13618190985918044,-0.2330882047814317,0.008722674029320478
1733751402856573400,9.770573486328125,-0.3731535136789083,-0.21824735839907078,-0.08813362600505352
1733751402866549200,9.78054931640625,-0.4412690185278654,-0.19364788253577425,-0.028270255064219235
1733751402876525000,9.790525146484375,-0.47136429706215854,-0.13129475887212902,-0.042661476249247786
1733751402886500400,9.800500244140625,-0.43423897376060483,-0.10701335424836725,0.00756079064309597
1733751402896476200,9.81047607421875,-0.3057388505756855,-0.05857869229200296,-0.07215761984661222
1733751402906452200,9.8204521484375,-0.1530547187268734,0.009006240211054683,-0.06286167597398161
1733751402916427300,9.83042724609375,-0.002808043158054352,0.07864213216085918,0.02983560468479991
1733751402926403300,9.8404033203125,0.10775661036372185,0.1279095825463999,0.028052959051728246
1733751402936379100,9.850379150390625,0.1606084951072931,0.18095610394608228,0.046707829030603165
1733751402946355500,9.86035546875,0.16199381198585033,0.1892267233589664,0.01776435087993741
1733751402956330200,9.870330322265625,0.10532324573695659,0.17892302721589803,0.004261310706287622
1733751402966306300,9.880306396484375,0.016046294915676117,0.15606321636047213,0.020524024851620196
1733751402976282400,9.890282470703125,-0.08818740201890468,0.1171110429579392,0.021642361357063055
1733751402986257400,9.90025732421875,-0.17632921133041382,0.028978111072629688,0.054608373022079465
1733751402996233200,9.910233154296876,-0.22475042015016078,-0.05309531984431669,0.07181245967075228
1733751403006209300,9.920209228515626,-0.22090426611602304,-0.11809923201138153,0.03635068566724658
1733751403016185300,9.930185302734374,-0.22064473839700222,-0.1967418482294306,0.015729191790521145
1733751403026160000,9.94016015625,-0.1936579472720623,-0.2539466126865707,0.02591989254578948
1733751403036136400,9.950136474609375,-0.2024152542233467,-0.243405052667018,0.03498012796640396
1733751403046112300,9.9601123046875,-0.2421867081195116,-0.1730219134133309,0.00653100920394063
1733751403056088300,9.97008837890625,-0.30980186223089695,-0.11514845591438934,0.0347333135984838
1733751403066063000,9.98006298828125,-0.3080389442116022,-0.049509953904524444,0.05349924273639917
1733751403076039400,9.990039306640625,-0.2346528054833412,-0.014953458177670836,0.10129691283032298
1733751403086015200,10.00001513671875,-0.15783669230639932,-0.03988280531615018,0.16843378190547226
1733751403095990300,10.009990234375,-0.0447948350161314,-0.06590948270466178,0.21117139213085173
1733751403105966300,10.01996630859375,0.025417934373021124,-0.11720127852465957,0.2147794996254146
1733751403115942100,10.029942138671874,0.015514964517951011,-0.14258096324652433,0.19761150720342993
1733751403125918500,10.03991845703125,-0.03583060731589794,-0.13827150254957377,0.16029416846111416
1733751403135893200,10.049893310546874,-0.1304360596835613,-0.10304412182383238,0.12027809215411543
1733751403145869300,10.059869384765625,-0.19706278727948665,-0.03943122562374919,0.08353679973408579
1733751403155845000,10.06984521484375,-0.2625701554566622,0.0034070319645106793,0.041971594288945195
1733751403165820400,10.0798203125,-0.2910948236733675,0.05434391339961439,0.0054747781492769714
1733751403175796200,10.089796142578125,-0.26840777556896206,0.0732376701682806,0.028507570951431988
1733751403185772300,10.099772216796875,-0.22707389466166494,0.08281893378831445,0.06945537515059114
1733751403195748400,10.109748291015626,-0.1868728171765804,0.07315945383291692,0.0803496941305697
1733751403205723400,10.119723388671876,-0.20317279459238052,0.08345566078927368,0.03923252471387386
1733751403215699200,10.12969921875,-0.2126408801615238,0.09345007178746163,0.0003546586565673351
1733751403225675300,10.13967529296875,-0.2868582090169191,0.10823588178064673,-0.026541823836416005
1733751403235650300,10.149650390625,-0.3540408169299364,0.12306629810053854,-0.052295858296006914
1733751403245626000,10.159626220703124,-0.35266485240161416,0.11361768441684543,-0.05099763517901301
1733751403255602400,10.1696025390625,-0.3098948012113571,0.12878321444261817,-0.013442980549484491
1733751403265578200,10.179578125,-0.2574918292790651,0.11038871243298053,0.022944676127284763
1733751403275553300,10.18955322265625,-0.17494681706130505,0.09792444072254002,0.11310293982774018
1733751403285529300,10.199529296875,-0.07726853311955928,0.06547321017924695,0.12922522258907557
1733751403295505400,10.20950537109375,0.02545066759884357,0.031377646495029325,0.11611717308238148
1733751403305480200,10.219480224609375,0.11828443411886691,-0.0024822452697902918,0.11037965234369039
1733751403315456500,10.22945654296875,0.1883808836519718,-0.08465930095799266,0.0845218652486801
1733751403325432300,10.239432373046874,0.22387246827185153,-0.15630626786872745,0.08600684310942888
1733751403335408000,10.249408203125,0.26850071454942226,-0.1866823361057788,0.07705152936801314
1733751403345383200,10.259383056640624,0.31804771252870556,-0.18547844020873308,0.0729379565693438
1733751403355359200,10.269359130859375,0.3699398123294115,-0.15588972295708953,0.0605466770298779
1733751403365335300,10.279335205078125,0.3853974937021732,-0.11298128620944917,0.043889702869951724
1733751403375310000,10.28931005859375,0.3988654625624418,-0.08005889449045062,0.02019961520284414
1733751403385286400,10.299286376953125,0.3739256670951843,-0.04072247101068496,0.047561669380962845
1733751403395262200,10.30926220703125,0.34883214237093924,0.025656419304013252,0.039844665262848133
1733751403405238300,10.31923828125,0.301282455688715,0.08815934496819973,0.057996408025175326
1733751403415213300,10.32921337890625,0.22954817582070827,0.16595409391894936,0.09386486313343048
1733751403425189400,10.339189453125,0.1412730955183506,0.22379640736095607,0.10186726006418466
1733751403435165200,10.349165283203124,0.01103811136484146,0.25493673796877264,0.11331599805653095
1733751403445140500,10.359140380859374,-0.11391630203723907,0.2513333797145635,0.1013227779239416
1733751403455116300,10.3691162109375,-0.21269524069726467,0.22862981886677441,0.08689078633710741
1733751403465092000,10.379092041015625,-0.32484219497442246,0.16887699562832711,0.06013605040237307
1733751403475068400,10.389068359375,-0.3939186538100242,0.10454086318761109,0.019603256744891405
1733751403485043200,10.399043212890625,-0.44938627400994297,0.07452317993417382,-0.025718232493847606
1733751403495019300,10.409019287109375,-0.4651145890176296,0.05322283694781363,-0.030344577120244503
1733751403504995300,10.418995361328125,-0.4557634078264236,0.06682020434141159,-0.023631635478138922
1733751403514970400,10.428970458984375,-0.4189151479005813,0.07708981555178761,-0.03142228935435414
1733751403524946200,10.4389462890625,-0.37629414979219433,0.073711571290344,-0.05359232784733176
1733751403534922200,10.448922119140626,-0.30465222438275813,0.07988543761968613,-0.0692627751879394
1733751403544898300,10.458898193359374,-0.24241116452515124,0.057497007135674356,-0.10174918664246797
1733751403554873300,10.468873291015624,-0.19625673159360885,0.06533880667723715,-0.10069850854575634
1733751403564849400,10.478849365234375,-0.1645259608119726,0.05069434138350189,-0.07429653157144785
1733751403574825200,10.4888251953125,-0.13333645730018615,0.039706279705464836,-0.09296966785937547
1733751403584800300,10.49880029296875,-0.13571838400065897,0.06838000100404024,-0.0869217659972608
1733751403594776300,10.5087763671875,-0.14599427882134913,0.05287205074876546,-0.043806408500671384
1733751403604752400,10.51875244140625,-0.1551022989064455,0.06323518546149134,-0.032841362372040744
1733751403614728200,10.528728271484376,-0.1531973420679569,0.051635494691133495,-0.027931963020563125
1733751403624703200,10.538703125,-0.1331909113496542,0.05138941097557544,0.0059619771443307394
1733751403634679300,10.54867919921875,-0.10727847145795821,0.05889262621253728,0.037175153792649504
1733751403644655000,10.558655029296874,-0.12776128751635552,0.0156559804238379,0.019865414812415837
1733751403654631400,10.56863134765625,-0.11512976948022842,-0.038258857376128434,0.025105215162038803
1733751403664606200,10.578606201171874,-0.0903477949231863,-0.023065233767032622,0.06118629010766744
1733751403674582300,10.588582275390625,-0.06469605179429054,-0.009527852932363749,0.06645458589941262
1733751403684558300,10.598558349609375,-0.04008534215092659,0.023005028012394905,0.08162687445953488
1733751403694533400,10.608533447265625,-0.06537468170821667,0.019516016852855683,0.10344166977405547
1733751403704509200,10.61850927734375,-0.10303250445127486,-0.00005801379755139351,0.10902224638536571
1733751403714485200,10.6284853515625,-0.1285632515490055,-0.007239595864713191,0.10593421724215149
1733751403724461300,10.63846142578125,-0.1350777480095625,0.004696194992214441,0.0846406693227589
1733751403734435600,10.648435546875,-0.09539689500629901,0.00393529362231493,0.03261369109600782
1733751403744411600,10.65841162109375,-0.05371230096518993,0.006034457858651876,0.02867459808140993
1733751403754387700,10.6683876953125,-0.0015729484051465988,-0.005274433271586895,0.005737812999635935
1733751403764362500,10.678362548828124,0.026176059263944625,-0.005525193162262439,0.006288286489248275
1733751403774338800,10.6883388671875,0.0567635052293539,0.007921879040449857,-0.02502513566315174
1733751403784314600,10.698314697265625,0.04099368916749954,0.021794190917909143,-0.022638386657088994
1733751403794290400,10.70829052734375,-0.019109189617633818,0.020565379775315522,-0.028696079260855913
1733751403804265700,10.718265625,-0.07735679592490195,0.05125862420275807,-0.01794482201337814
1733751403814241500,10.728241455078125,-0.05793254900872707,0.10529738064333796,-0.017423866879194973
1733751403824217600,10.738217529296875,-0.006598083090782165,0.1338107968136668,0.05775806922465562
1733751403834192600,10.748192626953125,0.06644435676634311,0.16277356418669223,0.10514204395115374
1733751403844168700,10.758168701171876,0.0894721811324358,0.08534633337408304,0.04269420947507024
1733751403854144500,10.76814453125,0.10021510894298553,-0.006089695177227258,0.014250205279141663
1733751403864120800,10.778120849609374,0.15410218195319175,-0.05299655391126871,0.018758768744766712
1733751403874095600,10.788095703125,0.19246084644198416,-0.06288651815429329,0.042299218808114526
1733751403884071700,10.79807177734375,0.15488134963214398,-0.0882470232516527,0.02609232650324702
1733751403894047700,10.8080478515625,0.07810732203125953,-0.08969459171146153,-0.008802169006317853
1733751403904022800,10.818022705078125,0.0017810381978750228,-0.10488529271110891,-0.04996507726088166
1733751403913998600,10.82799853515625,-0.08275894722938537,-0.09242883898094297,-0.07728153873160482
1733751403923974700,10.837974609375,-0.15275076734423637,-0.0581730797663331,-0.08351502629369496
1733751403933950700,10.84795068359375,-0.2095294701427221,-0.006059592299908399,-0.08577683374583721
1733751403943925500,10.857925537109375,-0.2669295197099447,0.01836202451214194,-0.06448299356549977
1733751403953901800,10.86790185546875,-0.35450843444168567,0.018282237274199722,-0.04040156849324703
1733751403963877600,10.877877685546874,-0.3964613240301609,0.01823401421830058,-0.009343874667584896
1733751403973852700,10.887852783203124,-0.4020201272010803,-0.01870630790516734,0.043875820475071665
1733751403983828500,10.897828369140624,-0.3559966271728277,-0.05089812032729387,0.08235533486455679
1733751403993804800,10.9078046875,-0.31330724000334736,-0.04839885085746646,0.1094001397870481
1733751404003780600,10.917780517578125,-0.28685236379802226,-0.0730593909919262,0.11929857959747314
1733751404013755600,10.927755615234375,-0.22574469188451765,-0.09875307356640696,0.10157529138028622
1733751404023731700,10.937731689453125,-0.1416682323157787,-0.05395005524381995,0.07115107315257191
1733751404033707500,10.94770751953125,-0.0866828426748514,-0.07835530544295907,0.024469839867949483
1733751404043682600,10.9576826171875,-0.018981179323792455,-0.10491598011031747,0.022729279810935258
1733751404053658600,10.96765869140625,-0.0035696751803159714,-0.09726853409707546,0.029532237824052572
1733751404063634700,10.977634765625,-0.029935704058408737,-0.11467413466721772,0.032482319801300764
1733751404073610500,10.987610595703124,-0.04196107289493084,-0.1389142574325204,0.056657122245430944
1733751404083585800,10.997585693359374,-0.016813187634944916,-0.11951046878248453,0.09759250535443424
1733751404093561600,11.0075615234375,-0.007001403194665908,-0.09643938979655503,0.09535773203969002
1733751404103537700,11.01753759765625,-0.022253332862257957,-0.04288008743599057,0.05097469269484281
1733751404113512700,11.0275126953125,-0.061190089499950404,0.0029665947206318375,0.002660012989491224
1733751404123488800,11.03748876953125,-0.10039806429445743,0.09212591051161288,-0.02536430448964238
1733751404133464600,11.047464599609375,-0.11195055492222308,0.18847557619810104,-0.07871244831755757
1733751404143440600,11.057440673828125,-0.15004150838553904,0.24942893433272836,-0.08072291135713458
1733751404153415700,11.067415771484375,-0.14942191518247128,0.24020313308686017,-0.06080766605362296
1733751404163391500,11.0773916015625,-0.12694120330512523,0.19332433140352367,-0.017624942409247158
1733751404173367800,11.087367919921874,-0.15936638609170914,0.15609759355410932,-0.026449615508317946
1733751404183342600,11.097342529296874,-0.17231003881692886,0.09180836899504065,0.016399346137046814
1733751404193318700,11.107318603515624,-0.14278525364696978,0.03834259013682604,0.000023819267004728315
1733751404203294700,11.117294677734375,-0.1477957752853632,-0.003520283080637455,-0.027237989407032728
1733751404213270800,11.127270751953125,-0.13367197286486626,-0.03388181133568287,-0.004433160141855478
1733751404223245600,11.13724560546875,-0.1169300969004631,-0.05050488322600722,-0.06816328951343893
1733751404233222000,11.147221923828125,-0.07816109804511069,-0.07763707417100668,-0.03466609358116984
1733751404243197700,11.15719775390625,-0.03706628659069538,-0.07811068303212523,-0.014410218146443367
1733751404253172700,11.1671728515625,0.04412029675543308,-0.044567163740098475,0.016972908241301776
1733751404263148500,11.1771484375,0.10174772533774375,-0.029747341879457233,0.020242431431263683
1733751404273124600,11.18712451171875,0.13679039714634417,-0.0006555412992835045,0.06032762745171785
1733751404283100700,11.1971005859375,0.11619769097268581,0.026175913133472204,0.021363544415682553
1733751404293075500,11.207075439453124,0.08251227899193764,0.053809185468405483,-0.012474135517328977
1733751404303051800,11.2170517578125,0.050152562656998634,0.0580205195531249,-0.018431582617014646
1733751404313027600,11.227027587890625,0.02809153749644756,0.04675064525902271,0.021591654083132742
1733751404323003600,11.237003662109375,-0.028613515543937682,0.06458323906958102,0.02466214756965637
1733751404332978700,11.246978759765625,-0.09051964435875415,0.0676890961304307,0.01071136362850666
1733751404342954800,11.256954833984375,-0.10704875435531139,0.04314385293871164,0.028120325199514625
1733751404352930600,11.2669306640625,-0.09247311651408671,0.015303952115774153,0.05885331711545586
1733751404362905900,11.27690576171875,-0.08932429709434508,-0.030451252365112303,0.03488163602799177
1733751404372881700,11.286881591796876,-0.07902619044184685,-0.07963073220625519,0.06871756239533423
1733751404382857500,11.296857421875,-0.07759703442156314,-0.1208240355990827,0.06328939986675977
1733751404392833800,11.306833740234374,-0.11275661060810088,-0.11585910666808485,-0.01785743599087
1733751404402808600,11.31680859375,-0.1323193892121315,-0.1081809732556343,-0.06893909619152545
1733751404412784600,11.32678466796875,-0.12603694794178008,-0.05805266825705766,-0.07103402264416217
1733751404422760700,11.3367607421875,-0.062417585468292236,0.010211159021407365,-0.12143076932057738
1733751404432735700,11.34673583984375,-0.03880991538763046,0.025549597928673028,-0.2038322814144194
1733751404442711600,11.356711669921875,0.013268646895885467,0.040188802525401114,-0.17528174810409544
1733751404452687600,11.3666875,0.03621346915364265,0.047131169009208676,-0.18734438021108507
1733751404462663700,11.37666357421875,0.0018564415216445922,0.05648585733175277,-0.19238924251049755
1733751404472638700,11.386638671875,-0.013956629160046577,0.055972208721190686,-0.20143530327528714
1733751404482614800,11.39661474609375,0.052724458971619606,0.004009820163249969,-0.07655220154374838
1733751404492590600,11.406590576171874,0.06335457405745983,-0.03518719484582543,-0.05201294970139861
1733751404502565600,11.416565673828124,0.008987608575820922,-0.04393310362026095,-0.061860097716003655
1733751404512541700,11.426541748046875,-0.05364449642598629,-0.02554272979646921,0.08982479396238922
1733751404522517800,11.436517822265625,-0.042892216265201566,-0.03181801067367196,0.057066579829156396
1733751404532493600,11.44649365234375,-0.013490180692076682,-0.032428543787449596,0.09183847187235951
1733751404542468600,11.456468505859375,0.04192483253777027,-0.021860826413333416,0.15696122464612125
1733751404552444700,11.466444580078125,0.07541384516358375,-0.0012285188816487788,0.1526220263980329
1733751404562420500,11.47642041015625,0.01813186901807785,0.041571781316399575,0.11549100400805473
1733751404572395500,11.4863955078125,0.08684300167262554,0.012836977480351924,0.1616695484675467
1733751404582371600,11.49637158203125,0.09211188198626041,0.013651070342212914,0.09641703183427452
1733751404592347600,11.50634765625,0.04429857593178749,-0.01511354411020875,0.048180093540251254
1733751404602323700,11.51632373046875,-0.01445931798517704,-0.018894377823173998,0.024080109898000954
1733751404612298800,11.526298828125,-0.04559621452689171,-0.0031157939329743384,0.0028916297882795334
1733751404622274600,11.536274658203125,-0.08568389476537704,0.013174100480228662,0.001147562599927187
1733751404632250600,11.546250732421875,-0.14529343707561493,0.020735914036631584,-0.009932488210499286
1733751404642225700,11.5562255859375,-0.16260346831679343,0.024649288088083265,-0.023890870936214923
1733751404652201700,11.56620166015625,-0.10523381388783454,-0.012471066777408122,-0.011643968303501605
1733751404662177500,11.576177490234375,-0.09523322887718677,-0.02336962354108691,-0.039108898334205146
1733751404672153600,11.586153564453125,-0.08483224637210368,-0.04797594927027821,-0.03718991297036409
1733751404682128600,11.596128662109376,-0.060308630490303036,-0.06843333862647413,-0.007430588392168283
1733751404692104700,11.606104736328126,-0.03146013714671135,-0.09005933337062597,0.020971914749592542
1733751404702080800,11.616080810546874,0.07171849777698516,-0.167092450299114,0.10552695161551237
1733751404712055800,11.626055908203124,0.07099076802432537,-0.1290330610178411,0.07376052499860525
1733751404722031600,11.636031494140624,0.04557809434831142,-0.08229936689361929,0.09679463297501206
1733751404732008000,11.646008056640625,0.047261517390608784,-0.04696107313930988,0.09045710051655768
1733751404741984000,11.65598388671875,0.08219079195261002,0.013025339659303426,0.07475114347115158
1733751404751958800,11.665958740234375,0.11671616188883781,0.0614439181305468,0.055068976271152495
1733751404761935000,11.67593505859375,0.11584230166375636,0.05003989606276154,0.033770898307114834
1733751404771911000,11.685910888671875,0.1208341186016798,0.01496010711416602,0.01199511982873082
1733751404781886000,11.695885986328125,0.13576280766427515,0.013665098867565393,0.014704232656955718
1733751404791862000,11.705862060546876,0.13900047441124916,0.0011034311972558499,0.010436930601298808
1733751404801837800,11.715837890625,0.1396352651834488,0.009461801958829164,0.03480973983556032
1733751404811814000,11.72581396484375,0.04937281045615673,0.022833909229189157,0.035735037986934184
1733751404821788700,11.73578857421875,-0.0011281272470951079,0.04915887544453144,0.05627046101540327
1733751404831765000,11.745764892578125,-0.017706921604275703,0.05013298117369413,0.12005407413989305
1733751404841740800,11.75574072265625,-0.07801964374780654,0.13584844012111424,0.1442617559403181
1733751404851715800,11.7657158203125,-0.11198445719182491,0.023414631726592777,0.12290157252550124
1733751404861692000,11.77569189453125,-0.1383101540595293,-0.022790216217935085,0.11766264895871281
1733751404871668000,11.78566796875,-0.11949264086484908,-0.06503770483881234,0.06381327761039138
1733751404881644000,11.79564404296875,-0.09289514131844043,-0.0704839875459671,0.07560673738718032
1733751404891619000,11.805619140625,-0.07255144146978855,-0.060314621839672324,0.09424655592739581
1733751404901595000,11.815594970703126,-0.06371639310717582,0.027935908543318507,0.0645972675949335
1733751404911570700,11.82557080078125,0.10848434011638164,-0.0705960696183145,0.05456438774988055
1733751404921546000,11.8355458984375,0.15681962421834467,-0.1023252329647541,0.03180149793028831
1733751404931521800,11.845521728515624,0.1336263801574707,-0.0708883305631578,-0.018295973538607357
1733751404941497900,11.855497802734375,0.08829261595904826,-0.04181012011691928,-0.02635769944116473
1733751404951474000,11.865473876953125,0.0750631320297718,-0.009023264411091804,-0.018537746405228973
1733751404961449000,11.875448974609375,0.0612730916082859,0.03769844701439142,-0.03964585475511849
1733751404971424800,11.8854248046875,0.03481003209650516,0.05106456293538213,-0.03171447723396122
1733751404981401000,11.895401123046875,0.020083587607741354,0.034384500160813326,-0.03566774490438401
1733751404991376000,11.9053759765625,0.001364274090528488,0.09324906932264566,-0.04555851286500692
1733751405001352000,11.91535205078125,0.029639935982227323,0.08922478224262595,-0.012462810405716299
1733751405011328000,11.925327880859374,0.049449967345595355,-0.024117811559885738,0.03433759227916598
1733751405021303800,11.9353037109375,-0.0030213936477899547,-0.04129997863769531,-0.03480542898662388
1733751405031278800,11.94527880859375,-0.012022446227073668,-0.0020367665246129036,-0.042951326041296124
1733751405041255000,11.9552548828125,-0.039832244172692294,0.02324775072708726,-0.01790565904676914
1733751405051231000,11.96523095703125,-0.057739072263240813,0.04324015292003751,0.007878989746794103
1733751405061206800,11.975206787109375,-0.08167349008023739,0.026668226695060727,0.00789908268675208
1733751405071182000,11.98518212890625,-0.16512217313945293,0.09803893394768237,0.030111645147204397
1733751405081158000,11.995157958984375,-0.15325345616936684,0.0813400203421712,-0.04649279804043471
1733751405091134000,12.005134033203126,-0.12590367695093155,0.026365005964785814,-0.06057539166770875
1733751405101108700,12.015108642578125,-0.1472854876756668,0.036919571596384045,0.07276800682991742
1733751405111085000,12.0250849609375,-0.1501747793763876,0.0771666801802814,0.0606526946876198
1733751405121060900,12.035060791015624,-0.12460896096527575,0.07608151529207825,0.014318813535943626
1733751405131037000,12.045036865234374,-0.08826689699590205,0.10634776647910475,0.0016561697091907262
1733751405141012000,12.055011962890624,-0.041375966483354565,0.19081936284527182,0.027590017715096473
1733751405150987800,12.06498779296875,-0.00663315440416336,0.6946027052141726,0.46091611441448327
1733751405160964000,12.074964111328125,0.07588613885045051,0.15309168973639606,-0.21925145740769802
1733751405170939000,12.08493896484375,0.03991290819346904,-0.0713845896475017,-0.06790858410000801
1733751405180915000,12.0949150390625,0.08150631681978703,-0.07623860554993152,0.044316623045131565
1733751405190890800,12.104890869140625,0.008949030131101607,-0.48511166738569733,-0.3086324531253427
1733751405200866800,12.11486669921875,-0.03434884432554245,-0.31526012763679023,0.11517236651293933
1733751405210841900,12.124841796875,-0.023123101434111594,-0.1234568683207035,0.23328619330525396
1733751405220818000,12.13481787109375,-0.03991173914968967,-0.04907338911816477,0.15553652560524642
