time,seconds_elapsed,z,y,x
1733751393110293500,0.02429345703125,0.014338212087750435,-0.00343432673253119,0.0009804504225030541
1733751393120269300,0.034269287109375,0.009306760504841805,-0.005311084911227226,-0.019909774884581566
1733751393130245000,0.0442451171875,0.001981202745810151,-0.007145203649997711,-0.03183620795607567
1733751393140220200,0.05422021484375,-0.003222160041332245,-0.00078632403165102,-0.02905752882361412
1733751393150196200,0.0641962890625,-0.00642567640170455,0.01091826893389225,-0.023908305913209915
1733751393160172300,0.07417236328125,-0.0116205383092165,0.013020375743508339,-0.014778709970414639
1733751393170148400,0.0841484375,-0.003622266463935375,0.015175139531493187,0.015317672863602638
1733751393180123400,0.094123291015625,0.004260632675141096,0.013769282959401608,0.051717083901166916
1733751393190099200,0.10409912109375,0.01742091029882431,0.004771794192492962,0.09293216466903687
1733751393200075300,0.1140751953125,0.025011498481035233,-0.008000660687685013,0.12137790769338608
1733751393210050300,0.12405029296875,0.025927891954779625,-0.019162766635417938,0.13987408578395844
1733751393220026400,0.1340263671875,0.026671547442674637,-0.039368245750665665,0.13659599423408508
1733751393230002200,0.144002197265625,0.028658265247941017,-0.060606423765420914,0.12448447197675705
1733751393239978200,0.153978271484375,0.037348248064517975,-0.07848756015300751,0.11166529357433319
1733751393249953300,0.163953369140625,0.041079603135585785,-0.08101463317871094,0.09909357875585556
1733751393259929000,0.17392919921875,0.04617572948336601,-0.06913217157125473,0.09388938546180725
1733751393269905400,0.183905517578125,0.04062889516353607,-0.05127141624689102,0.09405875951051712
1733751393279881200,0.193881103515625,0.027834825217723846,-0.03554536774754524,0.10266987234354019
1733751393289856300,0.203856201171875,0.013240702450275421,-0.034662529826164246,0.11578407883644104
1733751393299832300,0.213832275390625,0.0011676375288516283,-0.05562896281480789,0.13306467235088348
1733751393309808000,0.22380810546875,-0.0040433695539832115,-0.08885589241981506,0.16422179341316223
1733751393319783200,0.233783203125,-0.0009704174008220434,-0.12433589994907379,0.19782404601573944
1733751393329759200,0.24375927734375,0.006690964102745056,-0.14512959122657776,0.24780172109603882
1733751393339735300,0.2537353515625,0.013931448571383953,-0.15462324023246765,0.2883765399456024
1733751393349711000,0.263711181640625,0.03030536137521267,-0.15351244807243347,0.334806889295578
1733751393359686400,0.273686279296875,0.04792638495564461,-0.15258029103279114,0.37314164638519287
1733751393369662200,0.283662109375,0.05153922736644745,-0.14759725332260132,0.40195438265800476
1733751393379638300,0.29363818359375,0.056024011224508286,-0.13702867925167084,0.4105961322784424
1733751393389614300,0.3036142578125,0.05964351445436478,-0.12113627046346664,0.40535929799079895
1733751393399589400,0.31358935546875,0.06597021967172623,-0.10266172885894775,0.37093764543533325
1733751393409565200,0.323565185546875,0.07572191953659058,-0.08693203330039978,0.31720197200775146
1733751393419541200,0.333541259765625,0.08763762563467026,-0.07275660336017609,0.26222217082977295
1733751393429516300,0.343516357421875,0.0910605862736702,-0.06850939244031906,0.21017390489578247
1733751393439492400,0.353492431640625,0.0878642126917839,-0.05860825628042221,0.183162659406662
1733751393449468400,0.363468505859375,0.074978768825531,-0.04868265613913536,0.17788560688495636
1733751393459444200,0.3734443359375,0.05685016140341759,-0.03770550340414047,0.19197240471839905
1733751393469419300,0.383419189453125,0.03953775018453598,-0.03881870582699776,0.21858644485473633
1733751393479395300,0.393395263671875,0.014565675519406796,-0.051490284502506256,0.2358884960412979
1733751393489371400,0.403371337890625,-0.013220149092376232,-0.08243222534656525,0.25248879194259644
1733751393499347200,0.41334716796875,-0.03596353530883789,-0.13102301955223083,0.2604190409183502
1733751393509322200,0.423322265625,-0.04227709025144577,-0.19140248000621796,0.2704213261604309
1733751393519298300,0.43329833984375,-0.02684148959815502,-0.2433752417564392,0.27992331981658936
1733751393529274000,0.443274169921875,-0.0011510407784953713,-0.2688036262989044,0.2872840166091919
1733751393539249200,0.453249267578125,0.034596432000398636,-0.2648487687110901,0.2990267276763916
1733751393549225200,0.46322509765625,0.061489567160606384,-0.22394020855426788,0.3035389482975006
1733751393559201300,0.473201171875,0.08043698221445084,-0.15597063302993774,0.28741133213043213
1733751393569177300,0.48317724609375,0.1056469976902008,-0.09305930882692337,0.2600787878036499
1733751393579152400,0.49315234375,0.14891082048416138,-0.05962454155087471,0.22399576008319855
1733751393589128200,0.503128173828125,0.15923509001731873,-0.04573242738842964,0.186656653881073
1733751393599104300,0.513104248046875,0.14395782351493835,-0.04007939621806145,0.1569688320159912
1733751393609080300,0.523080322265625,0.11164622008800507,-0.04514339566230774,0.14742885529994965
1733751393619055400,0.533055419921875,0.06981370598077774,-0.052886806428432465,0.15590593218803406
1733751393629031200,0.54303125,0.027591146528720856,-0.07171376049518585,0.1769385039806366
1733751393639007200,0.55300732421875,-0.0043077426962554455,-0.09600333869457245,0.2083192765712738
1733751393648983300,0.5629833984375,-0.030060244724154472,-0.12056487053632736,0.2389991581439972
1733751393658958000,0.5729580078125,-0.04399809613823891,-0.14531385898590088,0.25141391158103943
1733751393668934400,0.582934326171875,-0.05045413225889206,-0.16499382257461548,0.2503316104412079
1733751393678910200,0.59291015625,-0.03980281949043274,-0.17102880775928497,0.23459738492965698
1733751393688886300,0.60288623046875,-0.014490003697574139,-0.15504132211208344,0.19728676974773407
1733751393698861300,0.612861328125,0.016607461497187614,-0.127390518784523,0.14954374730587006
1733751393708837400,0.62283740234375,0.04310910776257515,-0.0970403254032135,0.10082468390464783
1733751393718813200,0.632813232421875,0.05662793666124344,-0.07002483308315277,0.05306696146726608
1733751393728788000,0.6427880859375,0.06728244572877884,-0.05775937810540199,0.018233349546790123
1733751393738764000,0.652763916015625,0.06666894257068634,-0.06230750307440758,0.0019159880466759205
1733751393748739800,0.66273974609375,0.0481349416077137,-0.08079197257757187,0.005541615188121796
1733751393758716000,0.6727158203125,0.024340877309441566,-0.10838788002729416,0.029495825991034508
1733751393768691000,0.68269091796875,0.008499329909682274,-0.1334812343120575,0.06324633210897446
1733751393778667000,0.6926669921875,0.003951439633965492,-0.145086407661438,0.09024636447429657
1733751393788642800,0.702642822265625,0.003159149317070842,-0.125900998711586,0.09986570477485657
1733751393798619100,0.712619140625,-0.00031884099007584155,-0.09342692047357559,0.08915244787931442
1733751393808594000,0.722593994140625,-0.0006035328842699528,-0.053650736808776855,0.06051548197865486
1733751393818570000,0.732570068359375,-0.006062638014554977,-0.027699200436472893,0.022117100656032562
1733751393828546000,0.742546142578125,-0.001985071925446391,0.008458803407847881,-0.012306653894484043
1733751393838521000,0.75252099609375,0.005962392780929804,0.04612216353416443,-0.01757809892296791
1733751393848497000,0.762496826171875,0.01826539821922779,0.06051921099424362,0.009519830346107483
1733751393858473000,0.772472900390625,0.02381543628871441,0.040561921894550323,0.05470877140760422
1733751393868449000,0.782448974609375,0.02971407026052475,0.004623095504939556,0.11116085946559906
1733751393878423800,0.792423828125,0.03472021222114563,-0.039254121482372284,0.1569015383720398
1733751393888400000,0.80239990234375,0.037214796990156174,-0.07240276038646698,0.17335641384124756
1733751393898376000,0.8123759765625,0.024657169356942177,-0.10861533135175705,0.15156278014183044
1733751393908352000,0.82235205078125,0.01063030119985342,-0.14183373749256134,0.08935267478227615
1733751393918326800,0.832326904296875,-0.001427988288924098,-0.15392740070819855,0.014872376807034016
1733751393928303000,0.84230322265625,-0.0067820074036717415,-0.13750848174095154,-0.05902714654803276
1733751393938279000,0.85227880859375,-0.008476191200315952,-0.08377574384212494,-0.11026633530855179
1733751393948254000,0.86225390625,-0.00408730236813426,-0.02510790154337883,-0.11882253736257553
1733751393958230000,0.87222998046875,-0.0035350611433386803,0.019578315317630768,-0.08906315267086029
1733751393968205800,0.882205810546875,-0.002516668289899826,0.03248372673988342,-0.026166215538978577
1733751393978182000,0.892181884765625,-0.005509558599442244,0.01539353746920824,0.05102170258760452
1733751393988157000,0.902156982421875,-0.01148782204836607,-0.021500296890735626,0.10940778255462646
1733751393998133000,0.912133056640625,-0.02299065701663494,-0.06930600106716156,0.12902474403381348
1733751394008108800,0.92210888671875,-0.03349229693412781,-0.10391883552074432,0.11047130078077316
1733751394018085000,0.932085205078125,-0.0341838039457798,-0.1300063580274582,0.058592960238456726
1733751394028060000,0.942059814453125,-0.03340509533882141,-0.1256941705942154,0.002523565897718072
1733751394038036000,0.952035888671875,-0.024556752294301987,-0.09781104326248169,-0.04064137116074562
1733751394048012000,0.962011962890625,-0.01873321831226349,-0.0538925938308239,-0.07295004278421402
1733751394057987000,0.971987060546875,-0.00934739038348198,-0.009755793027579784,-0.07823948562145233
1733751394067963000,0.981962890625,-0.007407810539007187,0.03043822944164276,-0.06512182205915451
1733751394077939000,0.99193896484375,-0.0005742673529312015,0.04509395733475685,-0.04019082710146904
1733751394087915000,1.0019150390625,0.007698310073465109,0.04058629274368286,-0.013160008937120438
1733751394097889800,1.011889892578125,0.006775593850761652,0.01475127786397934,0.0030140727758407593
1733751394107866000,1.0218662109375,0.006018457002937794,-0.016012759879231453,0.011269605718553066
1733751394117842000,1.031842041015625,0.00002582164597697556,-0.039846282452344894,0.008633766323328018
1733751394127818000,1.04181787109375,-0.007957269437611103,-0.04467938840389252,0.0009489483200013638
1733751394137793000,1.05179296875,-0.020880576223134995,-0.05285844951868057,-0.0150168277323246
1733751394147769000,1.06176904296875,-0.03418679162859917,-0.03840254247188568,-0.041211679577827454
1733751394157745000,1.071744873046875,-0.04449932277202606,-0.021564025431871414,-0.055833954364061356
1733751394167720000,1.081719970703125,-0.056672897189855576,0.003387395991012454,-0.07441722601652145
1733751394177696000,1.091696044921875,-0.06754543632268906,0.03020830638706684,-0.08240531384944916
1733751394187671800,1.101671875,-0.07837864756584167,0.05688013136386871,-0.09465612471103668
1733751394197648100,1.111648193359375,-0.08672124892473221,0.06408166885375977,-0.10174301266670227
1733751394207623000,1.121622802734375,-0.09296528995037079,0.059310879558324814,-0.10046282410621643
1733751394217599000,1.131598876953125,-0.08963482081890106,0.04924524202942848,-0.08702484518289566
1733751394227575000,1.141574951171875,-0.08699003607034683,0.023692745715379715,-0.07114414870738983
1733751394237550800,1.15155078125,-0.06939692795276642,0.0006356309168040752,-0.053547315299510956
1733751394247526000,1.16152587890625,-0.03654790297150612,-0.016209129244089127,-0.028997499495744705
1733751394257502000,1.171501953125,-0.0004293125821277499,-0.0026203496381640434,0.0005489415489137173
1733751394267478000,1.18147802734375,0.02349040098488331,0.05373453348875046,0.025709422305226326
1733751394277453800,1.191453857421875,0.029901891946792603,0.14774486422538757,0.03610915690660477
1733751394287428900,1.201428955078125,0.030172469094395638,0.21370258927345276,0.02242344245314598
1733751394297405000,1.211405029296875,0.03280917555093765,0.21911293268203735,-0.016676511615514755
1733751394307381000,1.221381103515625,0.03209305182099342,0.16670165956020355,-0.05564308539032936
1733751394317355800,1.231355712890625,0.01780274696648121,0.09967659413814545,-0.07636953145265579
1733751394327332000,1.24133203125,-0.006441339384764433,0.051777251064777374,-0.07140006870031357
1733751394337308000,1.251307861328125,-0.009551970288157463,0.009984658099710941,-0.05117284134030342
1733751394347284000,1.261283935546875,-0.010035067796707153,0.0010745199397206306,-0.0029248856008052826
1733751394357259000,1.271259033203125,-0.007485703099519014,0.017154738306999207,0.05120033770799637
1733751394367235000,1.281235107421875,-0.006399399135261774,0.05570079758763313,0.08363151550292969
1733751394377211000,1.2912109375,-0.02020357921719551,0.09314480423927307,0.07774818688631058
1733751394387187000,1.30118701171875,-0.04180927202105522,0.15586571395397186,0.04955143481492996
1733751394397162000,1.311161865234375,-0.056523002684116364,0.1807466745376587,0.013325707986950874
1733751394407137800,1.3211376953125,-0.07105693221092224,0.17083199322223663,-0.02376546896994114
1733751394417114000,1.331114013671875,-0.07460661232471466,0.1535445898771286,-0.03934749960899353
1733751394427089000,1.3410888671875,-0.07419755309820175,0.08961059898138046,-0.039074525237083435
1733751394437065000,1.35106494140625,-0.06226509436964989,0.0457601323723793,-0.010366963222622871
1733751394447041000,1.361041015625,-0.03256099298596382,-0.002281696069985628,0.028498411178588867
1733751394457016800,1.371016845703125,-0.014952871948480606,-0.041909072548151016,0.06422469764947891
1733751394466991900,1.380991943359375,-0.019222982227802277,-0.08220749348402023,0.08513344079256058
1733751394476968000,1.390968017578125,-0.0261883232742548,-0.07082081586122513,0.09250080585479736
1733751394486944000,1.400944091796875,-0.026393651962280273,-0.05664720758795738,0.08945122361183167
1733751394496919800,1.410919921875,-0.02619924396276474,-0.026627954095602036,0.07356133311986923
1733751394506894800,1.420894775390625,-0.02451372891664505,0.032767996191978455,0.07531715929508209
1733751394516871000,1.430870849609375,-0.026334136724472046,0.0026377022732049227,0.05374893546104431
1733751394526847000,1.440846923828125,-0.02804095670580864,0.026414137333631516,0.04385369271039963
1733751394536821800,1.45082177734375,-0.0419684574007988,0.0518522709608078,0.041266243904829025
1733751394546798000,1.460798095703125,-0.05267836153507233,0.026895789429545403,0.041447073221206665
1733751394556774000,1.47077392578125,-0.036222778260707855,-0.013166964054107666,0.017254026606678963
1733751394566750000,1.48075,-0.02270963415503502,0.025290412828326225,0.016662804409861565
1733751394576725000,1.49072509765625,-0.022976649925112724,0.1244954913854599,0.039724431931972504
1733751394586700800,1.50070068359375,-0.010417181998491287,0.13694895803928375,0.0755857601761818
1733751394596676900,1.5106767578125,-0.0038265984039753675,0.052714113146066666,0.10387200862169266
1733751394606653000,1.52065283203125,0.0029721856117248535,-0.03852738440036774,0.1265283077955246
1733751394616628000,1.5306279296875,0.003850880777463317,-0.0841585099697113,0.14094270765781403
1733751394626603800,1.540603759765625,-0.0078854039311409,-0.08119227737188339,0.14241915941238403
1733751394636580000,1.550580078125,-0.009251842275261879,-0.08678041398525238,0.12432665377855301
1733751394646555000,1.560554931640625,-0.004651231691241264,-0.0866113007068634,0.08969836682081223
1733751394656531000,1.570531005859375,-0.002393660368397832,0.02806592360138893,0.07659843564033508
1733751394666507000,1.580507080078125,-0.01504234317690134,0.0919564887881279,0.051158323884010315
1733751394676482800,1.59048291015625,-0.02430102974176407,0.05636481195688248,0.041024480015039444
1733751394686457900,1.600457763671875,-0.057855259627103806,0.06673462688922882,0.06133667379617691
1733751394696434000,1.610433837890625,-0.05033254995942116,0.026378365233540535,0.08938168734312057
1733751394706410000,1.620409912109375,-0.026987016201019287,-0.04623352363705635,0.09576554596424103
1733751394716385800,1.6303857421875,-0.030248943716287613,-0.04098907858133316,0.10618867725133896
1733751394726360300,1.6403603515625,-0.03987067937850952,0.07471168786287308,0.13908644020557404
1733751394736336400,1.65033642578125,-0.02973349392414093,0.05861172825098038,0.11646547168493271
1733751394746312400,1.6603125,-0.014042681083083153,0.00837891548871994,0.07379790395498276
1733751394756287200,1.670287353515625,0.0010924963280558586,0.03089228644967079,0.07601898908615112
1733751394766263600,1.680263671875,-0.012947156094014645,0.04194839671254158,0.0802406370639801
1733751394776239400,1.6902392578125,-0.00008232216350734234,-0.012689308263361454,0.06626345217227936
1733751394786215400,1.70021533203125,0.018606409430503845,-0.08200500160455704,0.05050287023186684
1733751394796190500,1.7101904296875,0.019006870687007904,-0.10987919569015503,0.06144440546631813
1733751394806166500,1.72016650390625,0.027016328647732735,-0.10130620747804642,0.08048413693904877
1733751394816142300,1.730142333984375,0.01869620755314827,-0.10801559686660767,0.10284370183944702
1733751394826118400,1.740118408203125,0.004566008225083351,-0.05587569996714592,0.1294689178466797
1733751394836093400,1.750093505859375,0.011698013171553612,-0.047666363418102264,0.12877091765403748
1733751394846069200,1.7600693359375,0.007735229097306728,-0.02526998147368431,0.12599670886993408
1733751394856045600,1.770045654296875,0.0013541079824790359,0.03893186151981354,0.12322627753019333
1733751394866020400,1.780020263671875,-0.02168356627225876,0.1340668946504593,0.1242598444223404
1733751394875996400,1.789996337890625,-0.008111200295388699,0.1288929283618927,0.08980905264616013
1733751394885972500,1.799972412109375,0.024185486137866974,0.06426281481981277,0.04632921144366264
1733751394895948300,1.8099482421875,0.03235672414302826,0.10412757843732834,0.03456088900566101
1733751394905923300,1.81992333984375,0.019269686192274094,0.24464821815490723,0.0581333264708519
1733751394915899400,1.8298994140625,0.004309891723096371,0.19975122809410095,0.03736994415521622
1733751394925875500,1.83987548828125,-0.0009344054269604385,0.21337036788463593,0.040248557925224304
1733751394935850500,1.8498505859375,0.010823973454535007,0.1735364943742752,0.04032989218831062
1733751394945826300,1.859826416015625,-0.006131840869784355,0.19099032878875732,0.0544358566403389
1733751394955802400,1.86980224609375,-0.0076668765395879745,0.11278597265481949,0.04472826048731804
1733751394965778400,1.8797783203125,-0.009372897446155548,0.13706360757350922,0.05965687707066536
1733751394975753200,1.889753173828125,-0.00034772101207636297,0.10886962711811066,0.05404543876647949
1733751394985729500,1.8997294921875,0.030436290428042412,0.10818491876125336,0.05570698529481888
1733751394995705300,1.909705322265625,0.03836819902062416,0.1972794085741043,0.05360003560781479
1733751395005681400,1.919681396484375,0.011711821891367435,0.08798035234212875,0.037322793155908585
1733751395015656400,1.929656494140625,0.000682399666402489,0.06808321923017502,0.03504207730293274
1733751395025632300,1.93963232421875,-0.00479785306379199,0.12742935121059418,0.04568912833929062
1733751395035608300,1.9496083984375,-0.01252940483391285,0.14659754931926727,0.045744337141513824
1733751395045583400,1.959583251953125,-0.013308112509548664,0.14577943086624146,0.04349183291196823
1733751395055559400,1.969559326171875,-0.010725359432399273,0.10814158618450165,0.04871806874871254
1733751395065535200,1.97953515625,-0.012037232518196106,0.12765802443027496,0.07425805181264877
1733751395075511600,1.989511474609375,-0.0038658459670841694,0.08561541140079498,0.09104810655117035
1733751395085486300,1.999486328125,0.022102104499936104,0.0036877866368740797,0.10867396742105484
1733751395095462400,2.00946240234375,0.007179387845098972,-0.018580177798867226,0.12109705060720444
1733751395105438500,2.0194384765625,0.049881577491760254,-0.061178505420684814,0.13441817462444305
1733751395115414300,2.029414306640625,0.09583570063114166,-0.025034485384821892,0.14528146386146545
1733751395125389300,2.039389404296875,0.04057057201862335,-0.08573325723409653,0.12291544675827026
1733751395135365400,2.049365478515625,0.034246642142534256,-0.06911148875951767,0.1175173744559288
1733751395145341400,2.059341552734375,0.06465514749288559,-0.05424705892801285,0.13733874261379242
1733751395155316500,2.06931640625,0.1022915318608284,-0.07946093380451202,0.17893573641777039
1733751395165292500,2.07929248046875,0.06278859823942184,-0.1716153472661972,0.1866445243358612
1733751395175268400,2.089268310546875,-0.002637822413817048,-0.2543378174304962,0.16128574311733246
1733751395185244400,2.099244384765625,-0.0009027731139212847,-0.1071435958147049,0.15623532235622406
1733751395195219500,2.109219482421875,-0.0005555561510846019,-0.08583365380764008,0.12063471227884293
1733751395205195500,2.119195556640625,0.012029477395117283,-0.0577721893787384,0.08155788481235504
1733751395215171300,2.12917138671875,0.02742372266948223,-0.023827172815799713,0.05162036418914795
1733751395225147400,2.1391474609375,0.06575992703437805,0.02390306442975998,0.04150381311774254
1733751395235122400,2.149122314453125,0.04865624010562897,0.050610531121492386,0.02737104520201683
1733751395245098200,2.15909814453125,0.014528627507388592,-0.005862330552190542,0.013328197412192822
1733751395255074600,2.169074462890625,0.024595504626631737,-0.02263340726494789,0.011121156625449657
1733751395265049300,2.17904931640625,0.04752372205257416,0.052677858620882034,0.03714849799871445
1733751395275025400,2.189025390625,0.055615827441215515,0.020320840179920197,0.04807779937982559
1733751395285001500,2.19900146484375,0.06306549161672592,-0.024776596575975418,0.06567063927650452
1733751395294977500,2.2089775390625,0.06111771985888481,-0.05260632187128067,0.07955866307020187
1733751395304952300,2.218952392578125,0.04687407240271568,-0.0736418291926384,0.0810026302933693
1733751395314928400,2.228928466796875,0.036545492708683014,-0.07462406158447266,0.07661616802215576
1733751395324904400,2.238904541015625,0.02832777611911297,-0.060841672122478485,0.0723271444439888
1733751395334879500,2.24887939453125,0.015462894923985004,-0.054905787110328674,0.06837008148431778
1733751395344855300,2.258855224609375,0.0073074959218502045,-0.03080391325056553,0.06024478003382683
1733751395354831400,2.268831298828125,0.009659580886363983,-0.0005821746308356524,0.05164271965622902
1733751395364807400,2.278807373046875,-0.005410981830209494,0.040630508214235306,0.03938338905572891
1733751395374782200,2.2887822265625,-0.016614584252238274,0.05530475825071335,0.03342336043715477
1733751395384758500,2.298758544921875,-0.014239577576518059,0.04169920086860657,0.037254851311445236
1733751395394734300,2.308734375,-0.015572194941341877,0.027129296213388443,0.049535155296325684
1733751395404710400,2.31871044921875,-0.012339383363723755,0.013960764743387699,0.07058398425579071
1733751395414685400,2.328685546875,-0.010311346501111984,-0.0041678473353385925,0.08868705481290817
1733751395424661500,2.33866162109375,-0.009732641279697418,-0.02628459967672825,0.10348597913980484
1733751395434637300,2.34863720703125,-0.01031976006925106,-0.05414079874753952,0.11656689643859863
1733751395444612600,2.358612548828125,-0.005202495958656073,-0.06590397655963898,0.1280355304479599
1733751395454588400,2.36858837890625,0.0029925438575446606,-0.05068683624267578,0.1453917771577835
1733751395464564200,2.378564208984375,0.03797875717282295,-0.061728302389383316,0.1594008058309555
1733751395474540500,2.38854052734375,-0.0016266892198473215,-0.04443605616688728,0.15284709632396698
1733751395484515300,2.398515380859375,-0.012340586632490158,-0.03850173205137253,0.13304835557937622
1733751395494491400,2.408491455078125,-0.015364210121333599,-0.046283043920993805,0.10174468159675598
1733751395504467500,2.418467529296875,-0.05272729694843292,-0.06746182590723038,0.07863643020391464
1733751395514442500,2.4284423828125,-0.08245055377483368,-0.17141982913017273,0.06474755704402924
1733751395524418300,2.438418212890625,-0.06306886672973633,-0.02590019255876541,0.07307206839323044
1733751395534394600,2.44839453125,-0.024577593430876732,0.055592313408851624,0.0965498685836792
1733751395544370400,2.458370361328125,-0.01515160221606493,-0.0009599120821803808,0.10339844971895218
1733751395554345500,2.468345458984375,-0.010768571868538857,-0.04816364124417305,0.10624776780605316
1733751395564321500,2.478321533203125,-0.006516302470117807,-0.07586531341075897,0.1093229204416275
1733751395574297300,2.48829736328125,0.004613107070326805,-0.10423050820827484,0.11685462296009064
1733751395584273400,2.4982734375,0.018381383270025253,-0.11055231839418411,0.12600043416023254
1733751395594248200,2.508248291015625,0.02846810594201088,-0.10432877391576767,0.1248193308711052
1733751395604224500,2.518224609375,0.03434809669852257,-0.08607147634029388,0.1170133426785469
1733751395614200300,2.528200439453125,0.03741360455751419,-0.060344140976667404,0.10999270528554916
1733751395624175400,2.53817529296875,0.032267846167087555,-0.033753011375665665,0.10115686804056168
1733751395634151400,2.5481513671875,0.02375536784529686,-0.014708783477544785,0.09191342443227768
1733751395644127500,2.55812744140625,0.014823390170931816,0.0024225327651947737,0.08366561681032181
1733751395654103600,2.568103515625,0.010831785388290882,0.0024429024197161198,0.07676348835229874
1733751395664078600,2.57807861328125,0.0015498698921874166,-0.01313046459108591,0.07093223184347153
1733751395674054400,2.588054443359375,-0.00017249558004550636,-0.12695017457008362,0.07888391613960266
1733751395684030200,2.5980302734375,-0.009455475956201553,-0.09464229643344879,0.07204411923885345
1733751395694006500,2.608006591796875,-0.005857170093804598,0.004953637253493071,0.08931592106819153
1733751395703981300,2.617981201171875,0.02923263981938362,-0.06987426429986954,0.08559495210647583
1733751395713957400,2.627957275390625,0.008874865248799324,-0.0724443718791008,0.08086588233709335
1733751395723933400,2.637933349609375,0.02287456952035427,-0.06790048629045486,0.08374395966529846
1733751395733908500,2.647908447265625,0.041169241070747375,-0.10153183341026306,0.08345682173967361
1733751395743884500,2.657884521484375,0.045084621757268906,-0.13012459874153137,0.0888100415468216
1733751395753860400,2.6678603515625,0.04702594876289368,-0.14462018013000488,0.08214332908391953
1733751395763836700,2.677836669921875,0.04984916374087334,-0.1524551957845688,0.0771791934967041
1733751395773811500,2.6878115234375,0.10808549076318741,-0.1960611343383789,0.0699937641620636
1733751395783787500,2.69778759765625,0.08553943037986755,-0.21470406651496887,0.050397422164678574
1733751395793763600,2.707763671875,0.03763195499777794,-0.08866897970438004,0.054318320006132126
1733751395803738600,2.717738525390625,0.05341065302491188,-0.1269492506980896,0.045352254062891006
1733751395813714400,2.72771435546875,0.04591066762804985,-0.11772575974464417,0.030983325093984604
1733751395823690500,2.7376904296875,0.0390639454126358,-0.06763356178998947,0.04045246168971062
1733751395833666600,2.74766650390625,0.011626600287854671,-0.08848016709089279,0.057907965034246445
1733751395843641600,2.7576416015625,0.0379926934838295,-0.11642072349786758,0.0762917622923851
1733751395853617400,2.767617431640625,0.04957971349358559,-0.1328725814819336,0.08836768567562103
1733751395863593500,2.777593505859375,0.06367448717355728,-0.1434069722890854,0.09380345791578293
1733751395873569500,2.787569580078125,0.11656762659549713,-0.2324531078338623,0.0795469805598259
1733751395883544300,2.79754443359375,0.07806763797998428,-0.14640024304389954,0.0620550662279129
1733751395893520600,2.807520751953125,0.0889882892370224,-0.1483132690191269,0.04046294093132019
1733751395903496400,2.817496337890625,0.07270971685647964,-0.12160948663949966,0.028216661885380745
1733751395913471500,2.827471435546875,0.09126057475805283,-0.13791073858737946,0.031437549740076065
1733751395923447600,2.837447509765625,0.058482926338911057,-0.13058225810527802,0.022223547101020813
1733751395933423600,2.847423583984375,0.03606584668159485,-0.08035455644130707,0.04611323028802872
1733751395943399400,2.8573994140625,0.03204314038157463,-0.09420991688966751,0.07088569551706314
1733751395953374700,2.867374755859375,0.04147421568632126,-0.11686944216489792,0.0941653624176979
1733751395963350500,2.8773505859375,0.05777169391512871,-0.12084474414587021,0.11093741655349731
1733751395973326300,2.887326416015625,0.05351487919688225,-0.1198393851518631,0.10785968601703644
1733751395983301600,2.897301513671875,0.04480953514575958,-0.10185478627681732,0.08645746111869812
1733751395993277400,2.90727734375,0.03887903317809105,-0.07693919539451599,0.06224554777145386
1733751396003253500,2.91725341796875,0.07297122478485107,-0.06343084573745728,0.04071176052093506
1733751396013229600,2.9272294921875,0.10337551683187485,-0.10494450479745865,-0.0038611749187111855
1733751396023204600,2.93720458984375,0.06525183469057083,-0.026220930740237236,-0.03394557163119316
1733751396033180400,2.947180419921875,0.051444921642541885,-0.02264545112848282,-0.0637141689658165
1733751396043156700,2.95715673828125,0.02897796407341957,0.0038231757935136557,-0.053225044161081314
1733751396053132500,2.967132568359375,0.005790569353848696,-0.02622470073401928,-0.06763579696416855
1733751396063107600,2.977107666015625,0.003172149183228612,-0.003900221548974514,-0.03477878123521805
1733751396073083600,2.987083740234375,-0.013287597335875034,-0.0004508448764681816,-0.039917949587106705
1733751396083059500,2.9970595703125,-0.025956252589821815,0.049738556146621704,-0.02821734920144081
1733751396093034500,3.007034423828125,-0.026222776621580124,0.03422258421778679,-0.02937554381787777
1733751396103010300,3.01701025390625,-0.020339054986834526,0.011141233146190643,-0.048248566687107086
1733751396112986600,3.026986572265625,-0.026652492582798004,0.020557377487421036,-0.07499679923057556
1733751396122962400,3.03696240234375,-0.03589792177081108,0.04674584046006203,-0.09255954623222351
1733751396132937500,3.0469375,-0.04578816518187523,0.08387523144483566,-0.10801920294761658
1733751396142913500,3.05691357421875,-0.04778819903731346,0.1245129331946373,-0.13158339262008667
1733751396152889600,3.0668896484375,-0.048669081181287766,0.15737086534500122,-0.16069523990154266
1733751396162864400,3.076864501953125,-0.04398937523365021,0.18154944479465485,-0.18123753368854523
1733751396172840700,3.0868408203125,-0.03664635121822357,0.19637000560760498,-0.20489093661308289
1733751396182816500,3.09681640625,-0.03321593254804611,0.2016124278306961,-0.21957826614379883
1733751396192792300,3.106792236328125,-0.028608791530132294,0.1922381967306137,-0.23676703870296478
1733751396202767600,3.116767578125,-0.06814102828502655,0.11383526772260666,-0.26624369621276855
1733751396212743400,3.126743408203125,-0.05236927792429924,0.1361079216003418,-0.2603970766067505
1733751396222719500,3.136719482421875,-0.024889184162020683,0.15420091152191162,-0.24332673847675323
1733751396232695600,3.146695556640625,-0.020037595182657242,0.13159209489822388,-0.2185506820678711
1733751396242670600,3.156670654296875,-0.02087649144232273,0.12416429072618484,-0.20450064539909363
1733751396252646400,3.166646484375,-0.02363673970103264,0.13616876304149628,-0.1967257857322693
1733751396262622700,3.176622802734375,-0.021389828994870186,0.1408521980047226,-0.19525146484375
1733751396272597500,3.186597412109375,-0.020254535600543022,0.14113442599773407,-0.20548149943351746
1733751396282573600,3.196573486328125,-0.054984550923109055,0.06752464175224304,-0.2298392951488495
1733751396292549600,3.206549560546875,-0.053042128682136536,0.1022031381726265,-0.23202809691429138
1733751396302525400,3.216525390625,-0.023447751998901367,0.15854232013225555,-0.21020615100860596
1733751396312500500,3.22650048828125,-0.02117556519806385,0.14919932186603546,-0.19039733707904816
1733751396322476500,3.2364765625,-0.022293560206890106,0.13669204711914062,-0.1656179577112198
1733751396332452600,3.24645263671875,-0.025197656825184822,0.13814502954483032,-0.1378597766160965
1733751396342427400,3.256427490234375,0.014759345911443233,0.18303075432777405,-0.10054861754179001
1733751396352403700,3.26640380859375,-0.0031811862718313932,0.1024102121591568,-0.09118384122848511
1733751396362379500,3.276379638671875,-0.010250547900795937,0.07406139373779297,-0.08145371824502945
1733751396372355600,3.28635546875,-0.0045468551106750965,0.07026559114456177,-0.07025352865457535
1733751396382330400,3.296330322265625,-0.005198264494538307,0.06695714592933655,-0.06737491488456726
1733751396392306700,3.306306640625,-0.0020666434429585934,0.07413054257631302,-0.07477142661809921
1733751396402282500,3.316282470703125,-0.001679153647273779,0.0798850953578949,-0.07880079001188278
1733751396412258600,3.326258544921875,-0.006325472146272659,0.09302649646997452,-0.07589995861053467
1733751396422233600,3.336233642578125,-0.0065558357164263725,0.09814323484897614,-0.06337352097034454
1733751396432209400,3.34620947265625,-0.00856490433216095,0.09272180497646332,-0.04115751013159752
1733751396442185700,3.356185791015625,-0.024190468713641167,0.06911741197109222,-0.01793527789413929
1733751396452160500,3.366160400390625,-0.031286243349313736,0.04363472759723663,-0.01619316264986992
1733751396462136600,3.376136474609375,0.003892781212925911,0.08963630348443985,0.015503780916333199
1733751396472112400,3.3861123046875,0.01055090967565775,0.07594919949769974,0.039618734270334244
1733751396482088400,3.39608837890625,0.005999301560223103,0.03148426488041878,0.05460487678647041
1733751396492063500,3.4060634765625,0.0006184245576150715,-0.002739162649959326,0.05625201016664505
1733751396502039600,3.41603955078125,0.00022321146389003843,-0.028128942474722862,0.057720478624105453
1733751396512015600,3.426015625,0.003049348248168826,-0.04520503431558609,0.05566275864839554
1733751396521991400,3.435991455078125,0.0006317305378615856,-0.044515009969472885,0.05508698523044586
1733751396531966500,3.445966552734375,-0.0009418923873454332,-0.0567997507750988,0.05174721032381058
1733751396541942500,3.455942626953125,-0.005949966609477997,-0.07059891521930695,0.04160589352250099
1733751396551918600,3.465918701171875,-0.009257957339286804,-0.06709227710962296,0.033880531787872314
1733751396561893400,3.475893310546875,-0.010448390617966652,-0.057841792702674866,0.026128869503736496
1733751396571869700,3.48586962890625,-0.010450205765664577,-0.04912397265434265,0.019891338422894478
1733751396581845500,3.495845458984375,-0.008942057378590107,-0.04353319853544235,0.0039022525306791067
1733751396591821300,3.5058212890625,-0.013155710883438587,-0.038545362651348114,-0.010712110437452793
1733751396601796600,3.515796630859375,-0.010276567190885544,-0.03278094902634621,-0.023998888209462166
1733751396611772400,3.5257724609375,-0.009436546824872494,-0.028328541666269302,-0.03433246910572052
1733751396621748500,3.53574853515625,-0.0075928401201963425,-0.024729013442993164,-0.043202128261327744
1733751396631723500,3.5457236328125,-0.009874104522168636,-0.02109379693865776,-0.039902471005916595
1733751396641699600,3.555699462890625,-0.0060439459048211575,-0.01348354946821928,-0.03154733404517174
1733751396651675400,3.56567529296875,-0.0054617892019450665,-0.009822141379117966,-0.01871505193412304
1733751396661651700,3.575651611328125,0.0017873352626338601,-0.005463612265884876,-0.010462448000907898
1733751396671626500,3.58562646484375,0.010956608690321445,-0.010011586360633373,-0.004903740715235472
1733751396681602600,3.5956025390625,0.028261030092835426,0.027126461267471313,0.00965842418372631
1733751396691578600,3.60557861328125,0.025351930409669876,-0.02683948166668415,0.002802993170917034
1733751396701553700,3.6155537109375,0.05556469410657883,-0.005569080822169781,-0.006697301287204027
1733751396711529500,3.625529541015625,0.04315423592925072,-0.01284288614988327,-0.009413114748895168
1733751396721505500,3.635505615234375,0.02590813860297203,-0.039044927805662155,0.002228095196187496
1733751396731481900,3.64548193359375,0.027257857844233513,-0.046188708394765854,0.01781618595123291
1733751396741457000,3.655456787109375,0.02995244413614273,-0.055461566895246506,0.03044223226606846
1733751396751433000,3.665432861328125,0.031289584934711456,-0.06350073963403702,0.0374036580324173
1733751396761408800,3.67540869140625,0.033081892877817154,-0.06789229065179825,0.033955130726099014
1733751396771384800,3.685384765625,0.026371872052550316,-0.06042670086026192,0.017677688971161842
1733751396781359900,3.69535986328125,0.024134816601872444,-0.04202958196401596,0.0025208396837115288
1733751396791336000,3.7053359375,0.016087444499135017,-0.028430446982383728,-0.01847083866596222
1733751396801312000,3.71531201171875,-0.004994937218725681,-0.0155082568526268,-0.03448549285531044
1733751396811287000,3.725287109375,-0.011713244020938873,-0.0030636070296168327,-0.041492946445941925
1733751396821262800,3.735262939453125,-0.017841177061200142,0.0022840206511318684,-0.033545274287462234
1733751396831239000,3.745239013671875,-0.018305908888578415,0.006741280667483807,-0.02444741129875183
1733751396841215000,3.755215087890625,-0.015963392332196236,0.0026599860284477472,-0.015670429915189743
1733751396851189800,3.765189697265625,-0.00988907739520073,-0.012809906154870987,-0.005273136310279369
1733751396861166000,3.775166015625,-0.009872033260762691,-0.03601216524839401,0.002569340169429779
1733751396871142000,3.785141845703125,-0.0025213928893208504,-0.05708739161491394,0.012480685487389565
1733751396881117000,3.795116943359375,0.0025950721465051174,-0.08414484560489655,0.022656889632344246
1733751396891093000,3.805093017578125,-0.0015404324512928724,-0.104716956615448,0.04008464515209198
1733751396901068800,3.81506884765625,-0.007316562347114086,-0.10792126506567001,0.06042560189962387
1733751396911044900,3.825044921875,-0.026827659457921982,-0.10465908795595169,0.07783260941505432
1733751396921020000,3.83502001953125,-0.0013121797237545252,-0.08395194262266159,0.08226411044597626
1733751396930996000,3.844995849609375,-0.0007652060594409704,-0.10143432021141052,0.06684017181396484
1733751396940971800,3.8549716796875,-0.013773149810731411,-0.10909783095121384,0.0488760881125927
1733751396950948000,3.864947998046875,-0.020280465483665466,-0.0923880860209465,0.03659361973404884
1733751396960923000,3.8749228515625,-0.01579756662249565,-0.06225255876779556,0.028886431828141212
1733751396970899000,3.88489892578125,0.09344812482595444,-0.053539786487817764,0.03291967883706093
1733751396980875000,3.894875,0.03878248855471611,-0.046560440212488174,-0.004215973429381847
1733751396990850000,3.90485009765625,-0.02959669567644596,0.006596074439585209,-0.016118891537189484
1733751397000825900,3.914825927734375,-0.02777935564517975,-0.020355915650725365,-0.014841374009847641
1733751397010802000,3.924802001953125,-0.012505337595939636,-0.06283313781023026,0.0015676633920520544
1733751397020778000,3.934778076171875,-0.02071053721010685,-0.07437793910503387,0.012953209690749645
1733751397030753000,3.9447529296875,-0.02163846045732498,-0.06128712743520737,0.021988719701766968
1733751397040728800,3.954728759765625,-0.02223554067313671,-0.04456620290875435,0.03461955860257149
1733751397050705000,3.964704833984375,-0.007715415675193071,-0.032005611807107925,0.0360613614320755
1733751397060680000,3.974679931640625,0.004968421999365091,-0.04143400117754936,0.020556174218654633
1733751397070655700,3.98465576171875,0.015448483638465405,-0.03992416337132454,0.012211266905069351
1733751397080632000,3.994632080078125,0.019373184069991112,-0.02813274785876274,0.013642716221511364
1733751397090607900,4.00460791015625,0.013310704380273819,-0.010529390536248684,0.019188733771443367
1733751397100583000,4.0145830078125,0.004267408978193998,0.003949150443077087,0.03125018998980522
1733751397110559000,4.02455908203125,0.0029173146467655897,0.014425938948988914,0.039627619087696075
1733751397120534800,4.03453466796875,0.0017740194452926517,0.021544303745031357,0.04655583202838898
1733751397130510800,4.0445107421875,-0.004825204610824585,0.010143965482711792,0.04565536975860596
1733751397140486000,4.05448583984375,-0.006865186151117086,-0.0046834503300487995,0.03768506273627281
1733751397150462000,4.0644619140625,-0.008511364459991455,-0.012720820493996143,0.03298451751470566
1733751397160437800,4.074437744140625,-0.013168967328965664,-0.01718853786587715,0.019736357033252716
1733751397170413000,4.0844130859375,-0.020499998703598976,-0.012359155341982841,0.013111774809658527
1733751397180388900,4.094388916015625,-0.005772984586656094,-0.0062005952931940556,0.011977002024650574
1733751397190365000,4.104364990234375,-0.00016566936392337084,-0.000019945437088608742,0.004644460044801235
1733751397200341000,4.114341064453125,0.0044637033715844154,0.010061983950436115,0.008747059851884842
1733751397210316000,4.12431591796875,0.0024766004644334316,0.025103243067860603,0.013659762218594551
1733751397220291800,4.134291748046875,0.006540318019688129,0.02893340028822422,0.015739424154162407
1733751397230268000,4.144267822265625,0.004263659939169884,0.03114776872098446,0.015088077634572983
1733751397240243000,4.154242919921875,-0.005122917238622904,0.031108887866139412,0.013297101482748985
1733751397250218800,4.16421875,-0.013644223101437092,0.03152787685394287,0.013262243941426277
1733751397260195000,4.174195068359375,-0.013916398398578167,0.021305864676833153,0.015287577174603939
1733751397270171000,4.1841708984375,-0.014205302111804485,0.014453781768679619,0.015414736233651638
1733751397280146000,4.19414599609375,-0.01228090189397335,0.008477915078401566,0.020758898928761482
1733751397290121700,4.204121826171875,-0.004508229438215494,0.00854647159576416,0.02693682536482811
1733751397300098000,4.21409814453125,0.003963019698858261,0.002553293714299798,0.02994406782090664
1733751397310072800,4.22407275390625,0.006831658072769642,-0.002218564972281456,0.02410159260034561
1733751397320049000,4.234048828125,0.011296448297798634,-0.007918262854218483,0.02512451261281967
1733751397330025000,4.24402490234375,0.01110797468572855,-0.008406470529735088,0.02455892041325569
1733751397340000800,4.254000732421875,0.011600126512348652,-0.003354719839990139,0.030786989256739616
1733751397349975800,4.263975830078125,0.013041844591498375,0.0026687101926654577,0.039591241627931595
1733751397359952000,4.273951904296875,0.009214615449309349,0.01063236128538847,0.050179172307252884
1733751397369928000,4.283927978515625,0.00431788107380271,0.010158929042518139,0.06024623289704323
1733751397379903700,4.29390380859375,-0.0005218817386776209,0.002360394923016429,0.06636644899845123
1733751397389879000,4.303879150390625,-0.0000656922347843647,-0.013014206662774086,0.06477557867765427
1733751397399854800,4.313854736328125,-0.002395425457507372,-0.024149149656295776,0.05910651013255119
1733751397409831000,4.323830810546875,-0.0004597709921654314,-0.03262514993548393,0.04828865826129913
1733751397419806000,4.333805908203125,-0.0010201000841334462,-0.03116893209517002,0.03280796855688095
1733751397429782000,4.343781982421875,-0.001208839355967939,-0.027967330068349838,0.016613615676760674
1733751397439757800,4.3537578125,-0.0016892736312001944,-0.025857042521238327,0.003641089890152216
1733751397449734000,4.36373388671875,0.0006501654861494899,-0.017234250903129578,-0.000944310100749135
1733751397459709000,4.373708984375,-0.0008598469430580735,-0.00717203039675951,-0.0009693438187241554
1733751397469684700,4.383684814453125,-0.000054674717830494046,0.006871912162750959,0.002497137524187565
1733751397479661000,4.3936611328125,0.0025043566711246967,0.016420142725110054,0.007112129591405392
1733751397489635800,4.4036357421875,0.0002092346694553271,0.014467873610556126,0.008492821827530861
1733751397499612000,4.41361181640625,0.0033269973937422037,0.00133156543597579,0.010721353814005852
1733751397509588000,4.423587890625,0.00815151073038578,-0.005147682502865791,0.017462175339460373
1733751397519564000,4.43356396484375,0.014630449004471302,-0.004729832522571087,0.016641389578580856
1733751397529538800,4.443538818359375,0.017131876200437546,0.0023267960641533136,0.025144267827272415
1733751397539515100,4.45351513671875,0.01829780824482441,0.004472504369914532,0.0315246656537056
1733751397549491000,4.463490966796875,0.016450226306915283,-0.0039036618545651436,0.05083261802792549
1733751397559466800,4.473466796875,0.014070692472159863,-0.019446933642029762,0.07178663462400436
1733751397569441800,4.48344189453125,0.012987466529011726,-0.04231124371290207,0.09470390528440475
1733751397579417900,4.49341796875,0.014202401041984558,-0.056918416172266006,0.11247996985912323
1733751397589394000,4.503393798828125,0.018099935725331306,-0.06441628187894821,0.12410572916269302
1733751397599368700,4.51336865234375,0.02346727065742016,-0.06590498983860016,0.12033949047327042
1733751397609345000,4.523344970703125,0.025912189856171608,-0.05481656268239021,0.1064131036400795
1733751397619320800,4.53332080078125,0.029550600796937943,-0.046649448573589325,0.07034191489219666
1733751397629297000,4.543296875,0.03215429559350014,-0.040321994572877884,0.029090819880366325
1733751397639272000,4.55327197265625,0.02885490469634533,-0.021434588357806206,-0.01414266973733902
1733751397649248000,4.563248046875,0.02205837145447731,0.0028164295945316553,-0.04223313182592392
1733751397659223800,4.573223876953125,0.006493259221315384,0.03036496601998806,-0.05480218678712845
1733751397669199000,4.58319921875,-0.0067160590551793575,0.046195805072784424,-0.046573251485824585
1733751397679175000,4.5931748046875,-0.022179704159498215,0.04435928910970688,-0.030792156234383583
1733751397689150700,4.603150634765625,-0.027105359360575676,0.015571760945022106,-0.009742343798279762
1733751397699127000,4.613126953125,-0.028553320094943047,-0.022912513464689255,0.007200420368462801
1733751397709101800,4.623101806640625,-0.019114475697278976,-0.05003543570637703,0.027006519958376884
1733751397719078000,4.633077880859375,-0.005416505504399538,-0.092007115483284,0.04354608431458473
1733751397729053700,4.6430537109375,0.006184480153024197,-0.12371915578842163,0.05306939035654068
1733751397739028700,4.65302880859375,0.01609996147453785,-0.12356361746788025,0.05462973564863205
1733751397749004800,4.6630048828125,0.022384528070688248,-0.08918551355600357,0.044377729296684265
1733751397758980900,4.67298095703125,0.026671152561903,-0.038369741290807724,0.024283643811941147
1733751397768956700,4.682956787109375,0.02285899594426155,0.010901203379034996,-0.0001348815276287496
1733751397778932000,4.692931884765625,0.02316179685294628,0.04580512270331383,-0.02154669724404812
1733751397788907800,4.70290771484375,0.022954218089580536,0.0651489868760109,-0.037011437118053436
1733751397798883600,4.712883544921875,0.02483733929693699,0.07093976438045502,-0.03781118243932724
1733751397808860000,4.72285986328125,0.026022041216492653,0.05695062875747681,-0.029000993818044662
1733751397818834700,4.732834716796875,0.025603126734495163,0.03886536508798599,-0.008608636446297169
1733751397828810800,4.742810791015625,0.024945810437202454,0.021998537704348564,0.015213215723633766
1733751397838786800,4.752786865234375,0.028921909630298615,0.004084518179297447,0.018521659076213837
1733751397848761900,4.762761962890625,0.03231657296419144,-0.01682719960808754,0.02226455882191658
1733751397858737700,4.772737548828125,0.03005128726363182,-0.03338433802127838,0.007170029450207949
1733751397868713700,4.782713623046875,0.02275031805038452,-0.042315658181905746,-0.008631883189082146
1733751397878689800,4.792689697265625,0.010536795482039452,-0.04186824709177017,-0.0101016815751791
1733751397888664800,4.802664794921875,0.0026105381548404694,-0.0361359566450119,-0.007396302185952663
1733751397898641000,4.812640869140625,-0.007604548241943121,-0.02650357224047184,0.005191660951822996
1733751397908616700,4.82261669921875,-0.01817544549703598,-0.013293133117258549,0.021887125447392464
1733751397918591700,4.832591796875,-0.026686107739806175,0.004134858958423138,0.03384871408343315
1733751397928567800,4.84256787109375,-0.024906663224101067,0.014029618352651596,0.035879045724868774
1733751397938543900,4.8525439453125,-0.023161493241786957,0.02367319166660309,0.022341398522257805
1733751397948519700,4.862519775390625,-0.017054904252290726,0.037458986043930054,0.007617080584168434
1733751397958494700,4.87249462890625,-0.013871361501514912,0.043063078075647354,-0.01382802426815033
1733751397968470800,4.882470703125,-0.016791241243481636,0.04488751292228699,-0.03691614419221878
1733751397978446800,4.89244677734375,-0.01657765544950962,0.040356412529945374,-0.045544516295194626
1733751397988423000,4.9024228515625,-0.020345771685242653,0.03998206555843353,-0.045564647763967514
1733751397998398000,4.91239794921875,-0.025004705414175987,0.03573964908719063,-0.034307997673749924
1733751398008373800,4.922373779296875,-0.0233464352786541,0.03923137113451958,-0.014453929848968983
1733751398018349800,4.932349853515625,-0.026393624022603035,0.04020795226097107,-0.006079354323446751
1733751398028324900,4.942324951171875,-0.02983265183866024,0.036941997706890106,-0.00493814330548048
1733751398038300700,4.95230078125,-0.015540530905127525,0.06344257295131683,-0.01092519611120224
1733751398048276700,4.96227685546875,-0.014306699857115746,0.0642424151301384,-0.020327642560005188
1733751398058252800,4.972252685546875,-0.013380718417465687,0.05500684306025505,-0.03032461740076542
1733751398068227800,4.982227783203125,-0.020738106220960617,0.040732212364673615,-0.037538401782512665
1733751398078203600,4.99220361328125,-0.020484305918216705,0.026000939309597015,-0.027654344215989113
1733751398088179700,5.0021796875,-0.02317945472896099,0.016778793185949326,-0.019144022837281227
1733751398098154800,5.01215478515625,-0.027318540960550308,0.008896367624402046,-0.0007959087961353362
1733751398108130800,5.022130859375,-0.03151438757777214,0.012797042727470398,0.0128419054672122
1733751398118107000,5.03210693359375,-0.02989864908158779,0.016331057995557785,0.023241547867655754
1733751398128082700,5.042082763671875,-0.03241036459803581,0.012484796345233917,0.028943156823515892
1733751398138057700,5.0520576171875,-0.031465210020542145,0.010224573314189911,0.03321753069758415
1733751398148033800,5.06203369140625,-0.03104671649634838,0.000907072564586997,0.03997863829135895
1733751398158009900,5.072009765625,-0.03134392946958542,-0.0063127572648227215,0.04903312027454376
1733751398167984600,5.081984619140625,-0.03463474661111832,-0.023347968235611916,0.05987204238772392
1733751398177961000,5.0919609375,-0.037507228553295135,-0.04128995165228844,0.07922256737947464
1733751398187936800,5.101936767578125,-0.040724705904722214,-0.05369985103607178,0.09409458935260773
1733751398197912600,5.11191259765625,-0.048852138221263885,-0.0901622474193573,0.110605388879776
1733751398207888000,5.121887939453125,-0.0448467880487442,-0.07022865116596222,0.12683139741420746
1733751398217863700,5.13186376953125,-0.03212939202785492,-0.04382260888814926,0.14349053800106049
1733751398227839700,5.14183984375,-0.026276908814907074,-0.055981654673814774,0.15424604713916779
1733751398237814800,5.151814697265625,-0.02202756702899933,-0.08047208935022354,0.16794535517692566
1733751398247790800,5.161790771484375,-0.0158003568649292,-0.1081099733710289,0.1778581440448761
1733751398257766700,5.1717666015625,-0.022651871666312218,-0.14204636216163635,0.18442630767822266
1733751398267743000,5.181742919921875,-0.006013083271682262,-0.13000188767910004,0.1890127956867218
1733751398277717800,5.1917177734375,0.005118663422763348,-0.12401457130908966,0.1742897778749466
1733751398287693800,5.20169384765625,0.0043519786559045315,-0.12106399238109589,0.1500251442193985
1733751398297670000,5.211669921875,-0.00018018906121142209,-0.11105769872665405,0.12103371322154999
1733751398307645700,5.221645751953125,-0.0011347343679517508,-0.09577829390764236,0.10745794326066971
1733751398317620700,5.231620849609375,-0.003080706112086773,-0.08738400787115097,0.10664008557796478
1733751398327596500,5.241596435546875,-0.0049902028404176235,-0.13834723830223083,0.11530691385269165
1733751398337572900,5.25157275390625,-0.009637950919568539,-0.09788502752780914,0.140345960855484
1733751398347547600,5.261547607421875,-0.010408325120806694,-0.07507483661174774,0.17163683474063873
1733751398357523700,5.271523681640625,-0.007093488238751888,-0.11589337140321732,0.1884235292673111
1733751398367499800,5.281499755859375,0.01246606931090355,-0.1222308799624443,0.1887168139219284
1733751398377475800,5.291475830078125,0.035553544759750366,-0.1156986802816391,0.1729642152786255
1733751398387450600,5.30145068359375,0.04912110045552254,-0.11149519681930542,0.14786212146282196
1733751398397427000,5.311427001953125,0.05712230131030083,-0.10222286731004715,0.11634333431720734
1733751398407402800,5.32140283203125,0.06094355136156082,-0.090622678399086,0.09394825994968414
1733751398417377800,5.331377685546875,0.056446537375450134,-0.0708545669913292,0.08619499951601028
1733751398427353900,5.341353759765625,0.05364728718996048,-0.059555839747190475,0.09082037210464478
1733751398437329700,5.35132958984375,0.0448780320584774,-0.04634815827012062,0.09754431992769241
1733751398447305700,5.3613056640625,0.037571873515844345,-0.041895508766174316,0.11087574064731598
1733751398457280800,5.37128076171875,0.02774561010301113,-0.07491844892501831,0.11551842838525772
1733751398467256800,5.3812568359375,0.035516802221536636,-0.06701086461544037,0.10961469262838364
1733751398477232600,5.391232666015625,0.02813105843961239,-0.028651222586631775,0.10485348850488663
1733751398487209000,5.401208984375,0.03278334438800812,-0.03329453989863396,0.09585163742303848
1733751398497183700,5.411183837890625,0.035177525132894516,-0.049638357013463974,0.07612400501966476
1733751398507159800,5.421159912109375,0.037813927978277206,-0.06307391822338104,0.06414864212274551
1733751398517136000,5.431135986328125,0.03712789714336395,-0.06785482913255692,0.0548800453543663
1733751398527111000,5.44111083984375,0.043337468057870865,-0.06715868413448334,0.05659002810716629
1733751398537086700,5.451086669921875,0.046771615743637085,-0.06110824644565582,0.05755195766687393
1733751398547062800,5.461062744140625,0.04838205873966217,-0.05017848312854767,0.06296411901712418
1733751398557038800,5.471038818359375,0.0338694304227829,-0.06519178301095963,0.06395427882671356
1733751398567013600,5.481013671875,0.05261285603046417,-0.07026588171720505,0.05555398017168045
1733751398576990000,5.490989990234375,0.04355384781956673,-0.031122203916311264,0.0440448634326458
1733751398586965800,5.5009658203125,0.034621529281139374,-0.02037869580090046,0.03661724179983139
1733751398596940800,5.51094091796875,0.035348571836948395,-0.03836142644286156,0.02019272930920124
1733751398606916600,5.52091650390625,0.03316812217235565,-0.05802781134843826,0.0018320679664611816
1733751398616893000,5.530892822265625,0.029458072036504745,-0.07202378660440445,-0.014664351008832455
1733751398626868700,5.54086865234375,0.02661890536546707,-0.06794234365224838,-0.020953062921762466
1733751398636843800,5.55084375,0.022023621946573257,-0.05173167958855629,-0.02639070525765419
1733751398646819800,5.56081982421875,0.019986698403954506,-0.0225355327129364,-0.036475908011198044
1733751398656795600,5.570795654296875,0.015217241831123829,0.010367556475102901,-0.05257338657975197
1733751398666770700,5.580770751953125,0.017671966925263405,0.038948457688093185,-0.07734455913305283
1733751398676746800,5.590746826171875,0.016518019139766693,0.05313112214207649,-0.09678856283426285
1733751398686722800,5.600722900390625,0.016119422391057014,0.05016777291893959,-0.11049898713827133
1733751398696698600,5.61069873046875,0.015811560675501823,0.041899457573890686,-0.12286750227212906
1733751398706674000,5.620673828125,0.013060220517218113,0.026934368535876274,-0.12906993925571442
1733751398716649700,5.630649658203125,0.003161782631650567,0.02577163092792034,-0.12266850471496582
1733751398726626000,5.6406259765625,-0.006302736233919859,0.02594113163650036,-0.10116725414991379
1733751398736601000,5.65060107421875,-0.010816262103617191,0.037596989423036575,-0.09178733080625534
1733751398746577200,5.6605771484375,-0.008201727643609047,0.0625317394733429,-0.09590310603380203
1733751398756553200,5.67055322265625,-0.0030354619957506657,0.10547734051942825,-0.12279118597507477
1733751398766529000,5.680529052734375,0.0024845015723258257,0.1582270860671997,-0.17965133488178253
1733751398776504000,5.690504150390625,0.007590580265969038,0.21111959218978882,-0.2443389892578125
1733751398786480000,5.700480224609375,0.004808543715626001,0.2567714750766754,-0.3108861744403839
1733751398796456200,5.710456298828125,0.0044937580823898315,0.27587488293647766,-0.36909568309783936
1733751398806432300,5.720432373046875,-0.017028706148266792,0.28165560960769653,-0.3810768723487854
1733751398816407300,5.7304072265625,-0.04642734304070473,0.2551787495613098,-0.3452669680118561
1733751398826383000,5.740383056640625,-0.05881595239043236,0.1921587437391281,-0.27557843923568726
1733751398836359200,5.750359130859375,-0.07140763849020004,0.1372014880180359,-0.19327452778816223
1733751398846334200,5.760334228515625,-0.059629615396261215,0.07615166157484055,-0.12163860350847244
1733751398856310000,5.77031005859375,-0.03136841580271721,0.04742681235074997,-0.09681420773267746
1733751398866286000,5.7802861328125,-0.0010904766386374831,0.036210596561431885,-0.11282477527856827
1733751398876262100,5.79026220703125,0.021288065239787102,0.03908521309494972,-0.17136159539222717
1733751398886237200,5.8002373046875,0.024535197764635086,0.061099834740161896,-0.25445300340652466
1733751398896213000,5.810212890625,0.013507049530744553,0.0908137857913971,-0.33358484506607056
1733751398906189300,5.820189208984375,-0.0076119559817016125,0.12226643413305283,-0.3922743499279022
1733751398916164000,5.8301640625,-0.03505156934261322,0.14760161936283112,-0.4100230038166046
1733751398926140200,5.84014013671875,-0.06696898490190506,0.16619400680065155,-0.3846984803676605
1733751398936116200,5.8501162109375,-0.10139566659927368,0.17071232199668884,-0.32269102334976196
1733751398946092000,5.860092041015625,-0.12594038248062134,0.15555216372013092,-0.250454306602478
1733751398956067000,5.870067138671875,-0.1388244926929474,0.12069058418273926,-0.1927041858434677
1733751398966043100,5.880043212890625,-0.12811478972434998,0.06759581714868546,-0.1676803082227707
1733751398976019200,5.890019287109375,-0.10225896537303925,0.021617669612169266,-0.17071151733398438
1733751398985994000,5.899993896484375,-0.07016931474208832,-0.009955803863704205,-0.1931930035352707
1733751398995970300,5.90997021484375,-0.04148653522133827,-0.020573562011122704,-0.238750621676445
1733751399005946000,5.919946044921875,-0.019303884357213974,-0.008806109428405762,-0.2894494831562042
1733751399015922200,5.929922119140625,-0.0069689215160906315,0.024066084995865822,-0.3304049074649811
1733751399025897200,5.939897216796875,-0.009174245409667492,0.06119673326611519,-0.35848209261894226
1733751399035873300,5.949873291015625,-0.023083670064806938,0.10165760666131973,-0.3704378306865692
1733751399045849000,5.95984912109375,-0.0494488961994648,0.13607580959796906,-0.3676466643810272
1733751399055824100,5.96982421875,-0.07612285017967224,0.15584179759025574,-0.354663223028183
1733751399065800200,5.97980029296875,-0.09284164756536484,0.16129568219184875,-0.34082168340682983
1733751399075776000,5.98977587890625,-0.09196998924016953,0.15657256543636322,-0.3284017741680145
1733751399085752300,5.99975244140625,-0.08005666732788086,0.14766548573970795,-0.32342809438705444
1733751399095727000,6.00972705078125,-0.06532991677522659,0.1422313153743744,-0.3257378339767456
1733751399105703200,6.019703125,-0.04248037934303284,0.13567166030406952,-0.33344292640686035
1733751399115679200,6.02967919921875,-0.02443879470229149,0.1273285150527954,-0.32929426431655884
1733751399125655300,6.0396552734375,-0.01672455482184887,0.12294193357229233,-0.3039455711841583
1733751399135630000,6.049630126953125,-0.0041722762398421764,0.1082514077425003,-0.2567026913166046
1733751399145606100,6.059606201171875,-0.0015386964660137892,0.08600514382123947,-0.2027636021375656
1733751399155582200,6.069582275390625,-0.0006705059204250574,0.07165443152189255,-0.14194312691688538
1733751399165557200,6.07955712890625,-0.0045461151748895645,0.06319528818130493,-0.09806627035140991
1733751399175533000,6.089532958984375,-0.014014984481036663,0.05466438829898834,-0.07668507844209671
1733751399185509000,6.099509033203125,-0.02394145540893078,0.05768569931387901,-0.09461098909378052
1733751399195485200,6.109485107421875,-0.028733812272548676,0.056732289493083954,-0.1369328796863556
1733751399205460000,6.1194599609375,-0.03226512670516968,0.05041426420211792,-0.18875722587108612
1733751399215436300,6.129436279296875,-0.033334117382764816,0.043049558997154236,-0.24087394773960114
1733751399225412000,6.139412109375,-0.04046560823917389,0.041126273572444916,-0.28492429852485657
1733751399235387100,6.14938720703125,-0.057645391672849655,0.040101222693920135,-0.2982206642627716
1733751399245363200,6.15936328125,-0.07033006846904755,0.03783188387751579,-0.29628878831863403
1733751399255339300,6.16933935546875,-0.07871982455253601,0.025471890345215797,-0.2777326703071594
1733751399265315000,6.179315185546875,-0.08383600413799286,-0.0018107846844941378,-0.2515771985054016
1733751399275290400,6.189290283203125,-0.08883635699748993,-0.03887133300304413,-0.22817040979862213
1733751399285266200,6.19926611328125,-0.08525877445936203,-0.07320447266101837,-0.2123565524816513
1733751399295242000,6.209241943359375,-0.07429720461368561,-0.09834391623735428,-0.21726103127002716
1733751399305217300,6.21921728515625,-0.06469731032848358,-0.11249116063117981,-0.22921942174434662
1733751399315193000,6.229193115234375,-0.05719944089651108,-0.11391515284776688,-0.24977770447731018
1733751399325169200,6.239169189453125,-0.050322242081165314,-0.10757192969322205,-0.25740933418273926
1733751399335145200,6.249145263671875,-0.03898969292640686,-0.09164383262395859,-0.25236186385154724
1733751399345120300,6.259120361328125,-0.03441465273499489,-0.06409166008234024,-0.23254674673080444
1733751399355096000,6.269095947265625,-0.029753053560853004,-0.03125222399830818,-0.20663392543792725
1733751399365072100,6.279072021484375,-0.02023133635520935,0.000961479265242815,-0.18245838582515717
1733751399375048200,6.289048095703125,-0.016164155676960945,0.04446954280138016,-0.16203592717647552
1733751399385023200,6.299023193359375,-0.014108540490269661,0.08984079957008362,-0.16094329953193665
1733751399394999300,6.308999267578125,-0.01181662455201149,0.1368381381034851,-0.18029409646987915
1733751399404975000,6.31897509765625,-0.009401610121130943,0.16874879598617554,-0.22107400000095367
1733751399414950100,6.3289501953125,-0.009499614126980305,0.1815333068370819,-0.2654789984226227
1733751399424926000,6.338926025390625,-0.01986684836447239,0.17744435369968414,-0.2985318601131439
1733751399434902300,6.34890234375,-0.023267438635230064,0.16660341620445251,-0.3140365183353424
1733751399444878000,6.358878173828125,-0.02768901363015175,0.14537939429283142,-0.29986271262168884
1733751399454853000,6.36885302734375,-0.028022974729537964,0.1210213229060173,-0.2661380469799042
1733751399464829200,6.3788291015625,-0.026387784630060196,0.0888875275850296,-0.21180807054042816
1733751399474805000,6.388804931640625,-0.016681626439094543,0.06067240238189697,-0.1490970104932785
1733751399484780000,6.398780029296875,-0.0016235922230407596,0.052784744650125504,-0.09897620975971222
1733751399494756000,6.408756103515625,0.011364910751581192,0.05506521090865135,-0.06849846243858337
1733751399504732200,6.418732177734375,0.026139605790376663,0.06923925876617432,-0.07621694356203079
1733751399514708000,6.4287080078125,0.026584086939692497,0.09976068139076233,-0.11779554188251495
1733751399524683300,6.438683349609375,0.01480095088481903,0.1356726884841919,-0.180229052901268
1733751399534659000,6.4486591796875,-0.002830240875482559,0.16861465573310852,-0.239202618598938
1733751399544635100,6.45863525390625,-0.026514550670981407,0.1846742331981659,-0.2868785560131073
1733751399554611200,6.468611083984375,-0.05320342257618904,0.18886685371398926,-0.3074040710926056
1733751399564586200,6.478586181640625,-0.07436195760965347,0.17729133367538452,-0.3015117049217224
1733751399574562000,6.48856201171875,-0.08494909107685089,0.1449991762638092,-0.2675049901008606
1733751399584538000,6.4985380859375,-0.07839062064886093,0.09986265748739243,-0.22048872709274292
1733751399594513200,6.50851318359375,-0.06481382250785828,0.05030203238129616,-0.16783404350280762
1733751399604489200,6.5184892578125,-0.053373102098703384,0.012394825927913189,-0.12885509431362152
1733751399614465300,6.52846533203125,-0.04316787049174309,-0.0006767676677554846,-0.11687565594911575
1733751399624440300,6.5384404296875,-0.033770639449357986,0.005453829653561115,-0.1321965605020523
1733751399634416000,6.548416015625,-0.03065953403711319,0.023274637758731842,-0.1692323386669159
1733751399644392200,6.55839208984375,-0.034846823662519455,0.04583827033638954,-0.21175503730773926
1733751399654368300,6.5683681640625,-0.04097582399845123,0.06207875907421112,-0.24901984632015228
1733751399664343000,6.578343017578125,-0.05268805846571922,0.07614365965127945,-0.26717349886894226
1733751399674319400,6.5883193359375,-0.06652078777551651,0.09153459966182709,-0.27591079473495483
1733751399684295200,6.598295166015625,-0.07814124971628189,0.09799198061227798,-0.2666277587413788
1733751399694271000,6.60827099609375,-0.07748984545469284,0.09288829565048218,-0.2454604059457779
1733751399704246000,6.61824609375,-0.07448980212211609,0.08279687911272049,-0.21609123051166534
1733751399714222000,6.62822216796875,-0.06432051956653595,0.0722198635339737,-0.19367460906505585
1733751399724198100,6.6381982421875,-0.05026451498270035,0.05616643652319908,-0.17983055114746094
1733751399734173200,6.648173095703125,-0.034592077136039734,0.04347167909145355,-0.17834503948688507
1733751399744149200,6.658149169921875,-0.027647273615002632,0.0423448421061039,-0.18502551317214966
1733751399754125000,6.668125,-0.019239407032728195,0.043893203139305115,-0.19358943402767181
1733751399764101400,6.678101318359375,-0.012752202339470387,0.03989837318658829,-0.19450487196445465
1733751399774076200,6.688076171875,-0.015231604687869549,0.03815959393978119,-0.19069069623947144
1733751399784052200,6.69805224609375,-0.01770685613155365,0.037157341837882996,-0.18020011484622955
1733751399794028300,6.7080283203125,-0.02444252371788025,0.039686813950538635,-0.17217600345611572
1733751399804003300,6.71800341796875,-0.03290308266878128,0.02481151930987835,-0.16837836802005768
1733751399813979100,6.727979248046875,-0.06732895970344543,-0.020451832562685013,-0.18193306028842926
1733751399823955200,6.737955078125,-0.034433312714099884,0.024193480610847473,-0.17259863018989563
1733751399833931300,6.74793115234375,-0.018487635999917984,0.03133394569158554,-0.15887616574764252
1733751399843906000,6.757906005859375,-0.021279359236359596,0.0352080874145031,-0.14856663346290588
1733751399853882400,6.76788232421875,-0.024391261860728264,0.050538841634988785,-0.13984158635139465
1733751399863858200,6.777858154296875,-0.028965448960661888,0.07163893431425095,-0.14208129048347473
1733751399873833200,6.787833251953125,-0.030369998887181282,0.08627407252788544,-0.1426868885755539
1733751399883809000,6.79780908203125,-0.031219715252518654,0.0934329479932785,-0.15009009838104248
1733751399893785300,6.807785400390625,-0.025371946394443512,0.0929756835103035,-0.15968626737594604
1733751399903761200,6.81776123046875,-0.027774779126048088,0.07940206676721573,-0.17061886191368103
1733751399913736200,6.827736083984375,-0.029739126563072205,0.0578208789229393,-0.1787921041250229
1733751399923712300,6.837712158203125,-0.0302717387676239,0.033849842846393585,-0.19335342943668365
1733751399933688000,6.84768798828125,-0.031006237491965294,0.011055580340325832,-0.19630447030067444
1733751399943664400,6.857664306640625,-0.035065487027168274,-0.005686785094439983,-0.20278529822826385
1733751399953639200,6.86763916015625,-0.031639330089092255,-0.022991472855210304,-0.2079763263463974
1733751399963615200,6.877615234375,-0.02806801162660122,-0.03112788498401642,-0.2078428566455841
1733751399973591000,6.887591064453125,-0.02644561417400837,-0.025881724432110786,-0.2176091969013214
1733751399983566300,6.89756640625,-0.027753779664635658,-0.013455226086080074,-0.2206662893295288
1733751399993542100,6.907542236328125,-0.02613377757370472,0.003981288522481918,-0.2254226952791214
1733751400003518200,6.917518310546875,-0.03132885321974754,0.025127887725830078,-0.2323734015226364
1733751400013494300,6.927494384765625,-0.0854344367980957,-0.03688807785511017,-0.24751560389995575
1733751400023469300,6.93746923828125,-0.05013898015022278,0.04663554206490517,-0.22396887838840485
1733751400033445000,6.947445068359375,-0.012555118650197983,0.09017981588840485,-0.1855599731206894
1733751400043421200,6.957421142578125,0.005196447484195232,0.0895228236913681,-0.1521812379360199
1733751400053396200,6.967396240234375,0.015884779393672943,0.09886705875396729,-0.13029618561267853
1733751400063372000,6.9773720703125,0.02258957363665104,0.10678604245185852,-0.12619192898273468
1733751400073348400,6.987348388671875,0.0210939422249794,0.09706603735685349,-0.1269962042570114
1733751400083324200,6.99732421875,0.019720183685421944,0.07404351979494095,-0.13263475894927979
1733751400093299200,7.00729931640625,0.018896201625466347,0.04864387959241867,-0.13879437744617462
1733751400103275300,7.017275146484375,0.013280315324664116,0.030637769028544426,-0.145227313041687
1733751400113251300,7.027251220703125,0.009103946387767792,0.021362245082855225,-0.1493173986673355
1733751400123226000,7.03722607421875,-0.00059405347565189,0.020897861570119858,-0.1525227576494217
1733751400133202400,7.047202392578125,-0.01513224933296442,0.018611803650856018,-0.15181036293506622
1733751400143178200,7.05717822265625,-0.03245113044977188,0.009824753738939762,-0.1495741605758667
1733751400153154000,7.067154052734375,-0.047708380967378616,-0.003983470611274242,-0.1481246054172516
1733751400163129000,7.077129150390625,-0.056610073894262314,-0.007733683101832867,-0.1509617418050766
1733751400173105200,7.087105224609375,-0.06063145026564598,-0.011262371204793453,-0.14920379221439362
1733751400183081200,7.097081298828125,-0.0629642978310585,-0.008943608030676842,-0.15618440508842468
1733751400193057300,7.107057373046875,-0.08856552839279175,-0.06108590587973595,-0.16998915374279022
1733751400203032300,7.1170322265625,-0.09466596692800522,-0.03835897892713547,-0.18673628568649292
1733751400213008100,7.127008056640625,-0.035733141005039215,0.03536238148808479,-0.18126562237739563
1733751400222984200,7.136984130859375,-0.01226324588060379,0.029825760051608086,-0.17449627816677094
1733751400232959200,7.146959228515625,-0.006694842595607042,0.013873160816729069,-0.1694016456604004
1733751400242935300,7.156935302734375,-0.0056275068782269955,0.015003003180027008,-0.1599983125925064
1733751400252911000,7.1669111328125,-0.002769934944808483,0.013777418062090874,-0.14797919988632202
1733751400262886400,7.176886474609375,-0.0037539731711149216,0.012703098356723785,-0.13282954692840576
1733751400272862200,7.1868623046875,0.00022718653781339526,0.02085663191974163,-0.1134720891714096
1733751400282838000,7.196838134765625,-0.0026387893594801426,0.03271782770752907,-0.09977089613676071
1733751400292814300,7.206814453125,-0.0019266599556431174,0.03866999223828316,-0.08632433414459229
1733751400302789000,7.2167890625,0.003976927138864994,0.042743194848299026,-0.08093663305044174
1733751400312765200,7.22676513671875,0.00825822539627552,0.045448966324329376,-0.08952265977859497
1733751400322741200,7.2367412109375,0.01172951702028513,0.04827982187271118,-0.09755457192659378
1733751400332717000,7.246717041015625,0.011081569828093052,0.05346233397722244,-0.11050046235322952
1733751400342692000,7.256692138671875,0.008650489151477814,0.05242610350251198,-0.12725624442100525
1733751400352668200,7.266668212890625,0.001828002743422985,0.051087599247694016,-0.14081838726997375
1733751400362644200,7.276644287109375,-0.0015362206613644958,0.053115323185920715,-0.1464904248714447
1733751400372619300,7.286619384765625,-0.006179441697895527,0.05803418159484863,-0.14968781173229218
1733751400382595300,7.29659521484375,-0.009972582571208477,0.06636641174554825,-0.14853332936763763
1733751400392571100,7.306571044921875,-0.010252214968204498,0.07340408116579056,-0.15170009434223175
1733751400402547200,7.316547119140625,-0.023930339142680168,0.05187118053436279,-0.1546420007944107
1733751400412522000,7.32652197265625,-0.0746971070766449,-0.006592663004994392,-0.1722867786884308
1733751400422498300,7.336498291015625,-0.01963433437049389,0.06653308868408203,-0.14870953559875488
1733751400432474000,7.34647412109375,0.0072731804102659225,0.04948192834854126,-0.12648652493953705
1733751400442449200,7.35644921875,0.01274590753018856,-0.0011482692789286375,-0.11154688894748688
1733751400452425200,7.36642529296875,0.006191335618495941,-0.02217206172645092,-0.10112354159355164
1733751400462401000,7.376401123046875,-0.0021500892471522093,-0.029388781636953354,-0.09120494872331619
1733751400472377300,7.38637744140625,-0.012346001341938972,-0.036990776658058167,-0.08398725092411041
1733751400482352400,7.396352294921875,-0.012328493408858776,-0.03813837468624115,-0.08572513610124588
1733751400492328200,7.406328125,-0.019107835367321968,-0.043041784316301346,-0.08738162368535995
1733751400502304000,7.416303955078125,-0.028030963614583015,-0.047219615429639816,-0.08801836520433426
1733751400512279300,7.426279296875,-0.02571667730808258,-0.044860854744911194,-0.09664834290742874
1733751400522255000,7.436255126953125,-0.028760917484760284,-0.042025573551654816,-0.10355813056230545
1733751400532231200,7.446231201171875,-0.025227967649698257,-0.03761777654290199,-0.10515309870243073
1733751400542207200,7.456207275390625,-0.023811502382159233,-0.03601885959506035,-0.09485695511102676
1733751400552182300,7.466182373046875,-0.023221878334879875,-0.035805005580186844,-0.08451137691736221
1733751400562158000,7.476157958984375,-0.01748669147491455,-0.051648639142513275,-0.07518907636404037
1733751400572134100,7.486134033203125,-0.0071283262223005295,-0.06195453926920891,-0.06478597223758698
1733751400582110200,7.496110107421875,0.002720092423260212,-0.07426317036151886,-0.0573180727660656
1733751400592085200,7.506085205078125,0.01366355363279581,-0.0889904573559761,-0.04796798154711723
1733751400602061300,7.516061279296875,0.0192854180932045,-0.10357982665300369,-0.040225546807050705
1733751400612037000,7.526037109375,0.027083421126008034,-0.11622558534145355,-0.035404693335294724
1733751400622012200,7.53601220703125,0.016291078180074692,-0.11169447749853134,-0.032449353486299515
1733751400631988200,7.54598828125,0.011349315755069256,-0.11352060735225677,-0.03218676522374153
1733751400641964300,7.55596435546875,0.008903034962713718,-0.1131296157836914,-0.02604859694838524
1733751400651939000,7.56593896484375,0.008001289330422878,-0.10643629729747772,-0.021589666604995728
1733751400661915400,7.575915283203125,-0.00339430826716125,-0.09545072168111801,-0.022603893652558327
1733751400671891200,7.58589111328125,-0.0009098452283069491,-0.08948523551225662,-0.023510700091719627
1733751400681867000,7.595866943359375,0.0012884759344160557,-0.09104932099580765,-0.02781173586845398
1733751400691842000,7.605842041015625,0.0004232148639857769,-0.09740175306797028,-0.03111325576901436
1733751400701818000,7.615818115234375,-0.0004467806429602206,-0.11555025726556778,-0.029834924265742302
1733751400711794200,7.625794189453125,-0.005747269839048386,-0.14008356630802155,-0.024599149823188782
1733751400721770200,7.635770263671875,-0.001070059253834188,-0.16824784874916077,-0.017906736582517624
1733751400731746300,7.645746337890625,-0.000011719035683199763,-0.18517117202281952,-0.010277578607201576
1733751400741722000,7.65572216796875,0.0049415044486522675,-0.19945141673088074,-0.0014080296969041228
1733751400751698200,7.6656982421875,-0.0068528372794389725,-0.1917136013507843,-0.00349994283169508
1733751400761673200,7.675673095703125,-0.02201813831925392,-0.18571612238883972,-0.00000863242894411087
1733751400771649000,7.68564892578125,-0.032873716205358505,-0.1760437786579132,0.00425375672057271
1733751400781625300,7.695625244140625,-0.043959565460681915,-0.16290389001369476,0.003015873720869422
1733751400791601200,7.70560107421875,-0.051667552441358566,-0.1672259271144867,-0.0013157578650861979
1733751400801576200,7.715576171875,-0.05522448197007179,-0.11022061109542847,0.0012726775603368878
1733751400811552000,7.725552001953125,-0.04869174584746361,-0.10927891731262207,0.0030623218044638634
1733751400821528300,7.7355283203125,-0.03544663265347481,-0.11554161459207535,0.009831247851252556
1733751400831503000,7.745503173828125,-0.015536577440798283,-0.11608675867319107,0.022532662376761436
1733751400841479200,7.755479248046875,0.009237922728061676,-0.11933939903974533,0.0370919406414032
1733751400851455200,7.765455322265625,0.030648672953248024,-0.12269818037748337,0.04129893705248833
1733751400861431000,7.77543115234375,0.04042213782668114,-0.1085648313164711,0.03860178589820862
1733751400871406000,7.785406005859375,0.046905867755413055,-0.08755568414926529,0.024992231279611588
1733751400881382100,7.795382080078125,0.03860606998205185,-0.060424599796533585,0.00901697762310505
1733751400891358200,7.805358154296875,0.029445860534906387,-0.03650275617837906,-0.015306737273931503
1733751400901333000,7.8153330078125,0.019981104880571365,-0.023759521543979645,-0.03428492695093155
1733751400911309300,7.825309326171875,0.005717480555176735,-0.012441352941095829,-0.04197240620851517
1733751400921285000,7.83528515625,-0.0028350641950964928,-0.0033038239926099777,-0.04290362074971199
1733751400931261200,7.84526123046875,-0.006412488408386707,-0.002464129589498043,-0.03380093723535538
1733751400941236200,7.855236328125,-0.007620133459568024,-0.007002661004662514,-0.021907145157456398
1733751400951212300,7.86521240234375,-0.002601139945909381,-0.017645185813307762,-0.0032975096255540848
1733751400961188000,7.87518798828125,0.00301366182975471,-0.027722181752324104,0.010713130235671997
1733751400971164200,7.8851640625,0.010768787004053593,-0.04082626476883888,0.021029949188232422
1733751400981139200,7.89513916015625,0.017962833866477013,-0.05317378044128418,0.022741422057151794
1733751400991115000,7.905114990234375,0.019066713750362396,-0.05825056508183479,0.014191875234246254
1733751401001091300,7.91509130859375,0.01935494691133499,-0.05691184476017952,0.00011100666597485542
1733751401011066000,7.925066162109375,0.017265962436795235,-0.04596518725156784,-0.016518836840987206
1733751401021042200,7.935042236328125,0.011550158262252808,-0.03192944452166557,-0.03506235033273697
1733751401031018200,7.945018310546875,0.006504533346742392,-0.025927212089300156,-0.043461427092552185
1733751401040994000,7.954994140625,0.0007082914235070348,-0.01942226104438305,-0.04842590168118477
1733751401050969000,7.964968994140625,0.0030638573225587606,-0.015089298598468304,-0.04848715290427208
1733751401060945200,7.974945068359375,-0.001173093682155013,-0.0007872381247580051,-0.041782304644584656
1733751401070921200,7.984921142578125,0.007159937173128128,0.00554416049271822,-0.03947920352220535
1733751401080896300,7.994896240234375,0.013866516761481762,0.004281152971088886,-0.03830529376864433
1733751401090872000,8.0048720703125,0.015063873492181301,0.0013197173830121756,-0.04737522080540657
1733751401100848000,8.01484814453125,0.016495106741786003,-0.017247609794139862,-0.06369281560182571
1733751401110824200,8.02482421875,0.01243911124765873,-0.0028210007585585117,-0.07667359709739685
1733751401120799000,8.034799072265624,0.0036205071955919266,0.014218753203749657,-0.09788227081298828
1733751401130775300,8.044775390625,-0.006283522117882967,0.014504777267575264,-0.12821196019649506
1733751401140751000,8.054751220703125,-0.02305769920349121,0.028553657233715057,-0.16207095980644226
1733751401150726100,8.06472607421875,-0.047281280159950256,0.04904535040259361,-0.19160674512386322
1733751401160702200,8.0747021484375,-0.0685955360531807,0.06340043991804123,-0.20710107684135437
1733751401170678000,8.084677978515625,-0.08549222350120544,0.06461777538061142,-0.20254945755004883
1733751401180654000,8.094654052734375,-0.0897517204284668,0.05139954760670662,-0.1858574002981186
1733751401190629000,8.104629150390625,-0.0852387323975563,0.0299946591258049,-0.15062350034713745
1733751401200605200,8.114605224609376,-0.07172470539808273,0.0034024107735604048,-0.10248680412769318
1733751401210581000,8.1245810546875,-0.05318963900208473,-0.020611312240362167,-0.05182016268372536
1733751401220556300,8.134556396484374,-0.027629606425762177,-0.041474297642707825,-0.009311789646744728
1733751401230532000,8.144531982421874,0.0006254671607166529,-0.06504407525062561,0.017121413722634315
1733751401240508200,8.154508056640625,0.021735476329922676,-0.07928350567817688,0.03256997466087341
1733751401250484200,8.164484130859375,0.028285255655646324,-0.08393605053424835,0.0326746366918087
1733751401260459300,8.174459228515625,0.03284810483455658,-0.07959336042404175,0.03239582106471062
1733751401270435000,8.18443505859375,0.030617179349064827,-0.06253847479820251,0.028424246236681938
1733751401280411100,8.1944111328125,0.021024147048592567,-0.04740600287914276,0.01914284937083721
1733751401290386200,8.20438623046875,0.009472684934735298,-0.04126022383570671,0.015453305095434189
1733751401300362000,8.214362060546875,-0.00857750978320837,-0.034738264977931976,0.011508943513035774
1733751401310338300,8.22433837890625,-0.016335565596818924,-0.032568853348493576,0.019402552396059036
1733751401320314000,8.234314208984374,-0.02383226528763771,-0.03567860275506973,0.02872905321419239
1733751401330289200,8.2442890625,-0.02328711561858654,-0.04858667775988579,0.04532533884048462
1733751401340265000,8.254264892578124,-0.022676926106214523,-0.06072602421045303,0.06203802302479744
1733751401350241300,8.2642412109375,-0.016543932259082794,-0.06646913290023804,0.08289696276187897
1733751401360216000,8.274216064453125,-0.00511104054749012,-0.06627858430147171,0.0976061224937439
1733751401370192100,8.284192138671875,-0.000456900626886636,-0.052056774497032166,0.11025161296129227
1733751401380168200,8.294168212890625,0.0036908937618136406,-0.03618162125349045,0.11564099043607712
1733751401390144000,8.30414404296875,0.00802092719823122,-0.033701684325933456,0.1158447191119194
1733751401400119000,8.314119140625,0.01151492539793253,-0.034102801233530045,0.10577939450740814
1733751401410095000,8.32409521484375,0.010775365866720676,-0.037053849548101425,0.09026914089918137
1733751401420071200,8.3340712890625,0.006858004257082939,-0.04138762131333351,0.0767357349395752
1733751401430047000,8.344046875,0.005581284407526255,-0.0402163602411747,0.06424790620803833
1733751401440022300,8.354022216796874,0.00005341024370864034,-0.04027631878852844,0.05208883062005043
1733751401449998000,8.363998046875,-0.003189787268638611,-0.034873031079769135,0.046227212995290756
1733751401459974100,8.37397412109375,-0.00631853798404336,-0.0350714772939682,0.04941937327384949
1733751401469949200,8.38394921875,-0.00725357374176383,-0.03602302446961403,0.056434404104948044
1733751401479925200,8.39392529296875,-0.013060309924185276,-0.041881904006004333,0.06514885276556015
1733751401489901000,8.403901123046875,-0.00806421972811222,-0.04825138300657272,0.08504825830459595
1733751401499877000,8.413877197265625,-0.00511878402903676,-0.055007100105285645,0.0895468145608902
1733751401509852200,8.42385205078125,-0.0014854331966489553,-0.060312118381261826,0.09398709982633591
1733751401519828000,8.433827880859376,0.0002741370699368417,-0.061130963265895844,0.0994596853852272
1733751401529804300,8.44380419921875,0.002042742446064949,-0.06465565413236618,0.09622155129909515
1733751401539779000,8.453779052734374,0.004084499087184668,-0.06212124973535538,0.09643890708684921
1733751401549755100,8.463755126953124,0.008999896235764027,-0.06262858211994171,0.09720882773399353
1733751401559731200,8.473731201171875,0.012556270696222782,-0.05959035083651543,0.10011177510023117
1733751401569707300,8.483707275390625,0.017755558714270592,-0.0565628707408905,0.10663865506649017
1733751401579682000,8.49368212890625,0.019549820572137833,-0.052120063453912735,0.11773014068603516
1733751401589658400,8.503658447265625,0.017273349687457085,-0.061018750071525574,0.1341506540775299
1733751401599634200,8.51363427734375,0.01720944419503212,-0.07101581245660782,0.15739941596984863
1733751401609609200,8.523609130859375,0.028956914320588112,-0.08309990912675858,0.17790575325489044
1733751401619585000,8.5335849609375,0.03268264979124069,-0.0949043557047844,0.1929289698600769
1733751401629561000,8.54356103515625,0.03555513173341751,-0.09490063041448593,0.19390235841274261
1733751401639537200,8.553537109375,0.035044487565755844,-0.07676716893911362,0.17130035161972046
1733751401649512000,8.563511962890624,0.0261151734739542,-0.04850011318922043,0.12908898293972015
1733751401659488300,8.57348828125,0.011457657441496849,-0.019056910648941994,0.07837904244661331
1733751401669464000,8.583464111328125,-0.0011572035728022456,0.009651698172092438,0.029762232676148415
1733751401679439000,8.593439208984375,-0.011034256778657436,0.025892136618494987,-0.0008563318406231701
1733751401689415200,8.603415283203125,-0.023323146626353264,0.035149816423654556,-0.013088496401906013
1733751401699391200,8.61339111328125,-0.031593021005392075,0.03177112340927124,0.00027681002393364906
1733751401709367000,8.623366943359375,-0.032251618802547455,0.02443757653236389,0.036051053553819656
1733751401719342300,8.63334228515625,-0.03925711661577225,0.004736078903079033,0.07904420047998428
1733751401729317000,8.643317138671875,-0.020091677084565163,-0.0023268908262252808,0.11091531813144684
1733751401739293200,8.653293212890626,-0.003929406404495239,-0.015720510855317116,0.12992660701274872
1733751401749269200,8.663269287109374,0.008321400731801987,-0.025882601737976074,0.13132157921791077
1733751401759244300,8.673244384765624,0.018801551312208176,-0.030572744086384773,0.12080242484807968
1733751401769220000,8.68322021484375,0.02142183482646942,-0.02562112919986248,0.10756784677505493
1733751401779196200,8.693196044921875,0.018062908202409744,-0.021548349410295486,0.08994627743959427
1733751401789171200,8.703171142578125,0.022293873131275177,-0.01353995781391859,0.07217127829790115
1733751401799147000,8.71314697265625,0.020842114463448524,-0.01351842936128378,0.06055678799748421
1733751401809123000,8.723123046875,0.01643405109643936,-0.016488652676343918,0.06295602768659592
1733751401819099100,8.73309912109375,0.017909381538629532,-0.024648981168866158,0.0680924504995346
1733751401829074200,8.74307421875,0.015999896451830864,-0.03044402040541172,0.0807800143957138
1733751401839050000,8.753050048828126,0.019133547320961952,-0.0366559661924839,0.09031738340854645
1733751401849026300,8.7630263671875,0.025579730048775673,-0.03748207911849022,0.0948982834815979
1733751401859001000,8.7730009765625,0.03038436733186245,-0.030685970559716225,0.09407370537519455
1733751401868977200,8.78297705078125,0.029229620471596718,-0.036293789744377136,0.09390459954738617
1733751401878953200,8.792953125,0.02549733966588974,-0.023674581199884415,0.09053044766187668
1733751401888929000,8.802928955078125,0.03600723668932915,-0.009089513681828976,0.09015706926584244
1733751401898904000,8.812904052734375,0.03777337074279785,-0.007439368404448032,0.09181348979473114
1733751401908880100,8.822880126953125,0.034108858555555344,-0.013426154851913452,0.089572973549366
1733751401918856200,8.832856201171875,0.03145261108875275,-0.017293769866228104,0.08604653179645538
1733751401928831000,8.8428310546875,0.024780593812465668,-0.022670956328511238,0.07735130935907364
1733751401938807300,8.852807373046875,0.013613980263471603,-0.008035743609070778,0.06432876735925674
1733751401948783000,8.862783203125,0.011486114002764225,0.005997783038765192,0.05906635895371437
1733751401958759200,8.87275927734375,0.00919378362596035,0.01393880508840084,0.048827335238456726
1733751401968734200,8.882734130859374,0.0028850212693214417,0.018355658277869225,0.041060492396354675
1733751401978710300,8.892710205078124,0.002616120968014002,0.021980969235301018,0.03546285629272461
1733751401988686000,8.90268603515625,0.003467799862846732,0.023102957755327225,0.034602656960487366
1733751401998661000,8.9126611328125,0.004273928701877594,0.020405001938343048,0.032883163541555405
1733751402008637200,8.92263720703125,0.002328489674255252,0.01596098579466343,0.030054885894060135
1733751402018613000,8.932613037109375,0.004587570205330849,0.012083207257091999,0.0317256897687912
1733751402028589300,8.94258935546875,0.00406718859449029,0.011783068999648094,0.03186230733990669
1733751402038564000,8.952564208984375,0.0048319692723453045,0.013787682168185711,0.03128141164779663
1733751402048540200,8.9625400390625,0.006464220583438873,0.0143269719555974,0.02850479818880558
1733751402058516200,8.97251611328125,0.008714158087968826,0.014475603587925434,0.026599152013659477
1733751402068491300,8.9824912109375,0.011560012586414814,-0.03035445138812065,0.017062904313206673
1733751402078467000,8.992467041015624,0.007823833264410496,0.007921313866972923,0.01883023791015148
1733751402088443100,9.002443115234374,0.025048360228538513,0.043684639036655426,0.01779533363878727
1733751402098419200,9.012419189453125,0.030991816893219948,0.05007217824459076,0.011796894483268261
1733751402108394200,9.022394287109375,0.03785371780395508,0.05566028878092766,0.0026947425212711096
1733751402118370000,9.0323701171875,0.04468056187033653,0.06821515411138535,-0.003320824122056365
1733751402128346000,9.04234619140625,0.044940486550331116,0.07827284932136536,-0.009939045645296574
1733751402138321200,9.052321044921875,0.04293457418680191,0.08263859152793884,-0.014280183240771294
1733751402148297000,9.062296875,0.03738854452967644,0.07687737047672272,-0.01635744981467724
1733751402158273300,9.072273193359376,0.03152526542544365,0.0687205120921135,-0.01729969121515751
1733751402168249000,9.0822490234375,0.024175740778446198,0.05520176887512207,-0.017814479768276215
1733751402178224000,9.09222412109375,0.016126446425914764,0.03939015418291092,-0.017417263239622116
1733751402188200200,9.1022001953125,0.01777547597885132,0.02935216762125492,-0.013605480082333088
1733751402198176300,9.11217626953125,0.014423057436943054,0.0216301791369915,-0.010355701670050621
1733751402208152000,9.122152099609375,0.01650724932551384,0.022519942373037338,-0.013970674946904182
1733751402218127400,9.13212744140625,0.014167897403240204,0.026920031756162643,-0.009546571411192417
1733751402228103200,9.142103271484375,0.012241367250680923,0.03363066166639328,-0.008012324571609497
1733751402238079000,9.152078857421875,0.008690682239830494,0.03784441947937012,-0.004926114343106747
1733751402248054300,9.16205419921875,0.009901621378958225,0.04094434157013893,-0.00013721775030717254
1733751402258030000,9.172030029296875,0.01014832966029644,0.039169635623693466,0.007410825230181217
1733751402268006100,9.182006103515626,0.010290009900927544,0.039633024483919144,0.013453803956508636
1733751402277982200,9.191982177734374,0.009145324118435383,0.039665114134550095,0.018991300836205482
1733751402287957200,9.201957275390624,0.007347157225012779,0.042314160615205765,0.015617607161402702
1733751402297933000,9.21193310546875,0.012539620511233807,0.03969034180045128,0.016013868153095245
1733751402307909400,9.221909423828125,0.016154861077666283,0.03945092484354973,0.015642089769244194
1733751402317884200,9.23188427734375,0.01964426413178444,0.03781219571828842,0.010233931243419647
1733751402327860200,9.241860107421875,0.020383290946483612,0.033449139446020126,0.010536199435591698
1733751402337836300,9.251836181640625,0.02420184016227722,0.032001376152038574,0.005057813134044409
1733751402347812000,9.26181201171875,0.025536349043250084,0.029594944790005684,0.000218316912651062
1733751402357787100,9.271787109375,0.025447065010666847,0.028431635349988937,-0.0021816298831254244
1733751402367763000,9.281762939453126,0.028461230918765068,0.030236992985010147,-0.0031424984335899353
1733751402377739300,9.2917392578125,0.02851548045873642,0.030568070709705353,-0.0022293641231954098
1733751402387714000,9.301714111328126,0.034078292548656464,0.03418517857789993,-0.0008674234268255532
1733751402397690000,9.311690185546874,0.03339730203151703,0.038093287497758865,0.004324361216276884
1733751402407666200,9.321666259765625,0.03829618915915489,0.04221798852086067,0.012915718369185925
1733751402417642200,9.331642333984375,0.04177442193031311,0.04844924807548523,0.020826343446969986
1733751402427617000,9.341616943359375,0.04652763158082962,0.048663366585969925,0.02776334434747696
1733751402437593300,9.35159326171875,0.04819938912987709,0.04568474367260933,0.04342774674296379
1733751402447569200,9.361569091796875,0.05222049355506897,0.029420286417007446,0.058312151581048965
1733751402457544200,9.371544189453125,0.05089833214879036,0.012394625693559647,0.07533185929059982
1733751402467520300,9.381520263671876,0.04867645725607872,0.005386517383158207,0.08275914937257767
1733751402477496000,9.39149609375,0.047336701303720474,0.006216573528945446,0.07282882183790207
1733751402487472000,9.40147216796875,0.03971366956830025,0.0048189470544457436,0.0612960048019886
1733751402497447200,9.411447265625,0.031998954713344574,0.005759531632065773,0.0467190183699131
1733751402507423200,9.42142333984375,0.028474794700741768,0.002163199009373784,0.03106202930212021
1733751402517399000,9.43139892578125,0.02874351665377617,-0.01037771999835968,0.026376886293292046
1733751402527374300,9.441374267578125,0.03331057354807854,-0.02198111265897751,0.018611375242471695
1733751402537350100,9.45135009765625,0.03187169134616852,-0.02437221258878708,0.014465708285570145
1733751402547326200,9.461326171875,0.030909229069948196,-0.020484795793890953,0.01411204133182764
1733751402557302300,9.47130224609375,0.021752402186393738,-0.007302532903850079,0.019567593932151794
1733751402567277300,9.48127734375,0.012057164683938026,0.004279821179807186,0.03261788189411163
1733751402577253000,9.491253173828126,0.001237964374013245,0.01587342470884323,0.05731124058365822
1733751402587229200,9.501229248046876,-0.009853835217654705,0.028433695435523987,0.08610454201698303
1733751402597204200,9.511204345703124,-0.019228605553507805,0.03779109939932823,0.11636971682310104
1733751402607180000,9.521179931640624,-0.023328542709350586,0.03330793231725693,0.1461651623249054
1733751402617156400,9.53115625,-0.02059495635330677,0.0217298474162817,0.16780099272727966
1733751402627132200,9.541132080078125,-0.012057393789291382,0.016144664958119392,0.18369606137275696
1733751402637107200,9.551107177734375,-0.0033530390355736017,0.015111041255295277,0.18646128475666046
1733751402647083000,9.5610830078125,-0.0005407409626059234,0.017131850123405457,0.18447749316692352
1733751402657059000,9.57105908203125,0.006917500868439674,0.01267971284687519,0.18143457174301147
1733751402667035100,9.58103515625,0.011872843839228153,0.013234982267022133,0.1752142310142517
1733751402677010200,9.59101025390625,0.008047628216445446,0.008640222251415253,0.17692901194095612
1733751402686986200,9.600986328125,0.006921377032995224,0.011049850843846798,0.17554816603660583
1733751402696962000,9.610962158203124,0.00978905986994505,-0.00019072601571679115,0.17885592579841614
1733751402706937000,9.62093701171875,0.007672378793358803,0.01812276616692543,0.19081299006938934
1733751402716913200,9.6309130859375,0.010773875750601292,0.03331362456083298,0.2064848393201828
1733751402726889200,9.64088916015625,0.019780952483415604,0.03887324035167694,0.21981662511825562
1733751402736865300,9.650865234375,0.030860334634780884,0.03812146186828613,0.23661941289901733
1733751402746840300,9.66084033203125,0.041043464094400406,0.04154735058546066,0.25153419375419617
1733751402756816400,9.67081640625,0.053087275475263596,0.044933781027793884,0.2623938322067261
1733751402766792200,9.680792236328125,0.0642259418964386,0.005320591852068901,0.25991523265838623
1733751402776767200,9.690767333984375,0.05820880085229874,0.035623904317617416,0.2577897608280182
1733751402786743000,9.700742919921876,0.06405843049287796,0.04840601235628128,0.24838455021381378
1733751402796719400,9.71071923828125,0.06790848821401596,0.038563016802072525,0.22074194252490997
1733751402806695200,9.720695068359374,0.07366544008255005,0.010789710097014904,0.18753471970558167
1733751402816670200,9.730670166015624,0.06474830955266953,0.028412071987986565,0.16335517168045044
1733751402826646300,9.740646240234375,0.06351260095834732,0.027400335296988487,0.1384735256433487
1733751402836622300,9.750622314453125,0.06641891598701477,0.011320607736706734,0.11966138333082199
1733751402846597000,9.76059716796875,0.05763554945588112,0.017216313630342484,0.12168166041374207
1733751402856573400,9.770573486328125,0.04839469492435455,0.012493696063756943,0.12889176607131958
1733751402866549200,9.78054931640625,0.03989042341709137,0.006017686799168587,0.13088859617710114
1733751402876525000,9.790525146484375,0.03665550425648689,0.021892601624131203,0.1414685845375061
1733751402886500400,9.800500244140625,0.02567954920232296,0.046631500124931335,0.13953886926174164
1733751402896476200,9.81047607421875,0.010687432251870632,0.07465114444494247,0.13680723309516907
1733751402906452200,9.8204521484375,0.01142406277358532,0.09307222813367844,0.1273713856935501
1733751402916427300,9.83042724609375,0.02159184217453003,0.10375915467739105,0.11417033523321152
1733751402926403300,9.8404033203125,0.027052920311689377,0.1013772264122963,0.10676142573356628
1733751402936379100,9.850379150390625,0.03545456379652023,0.08731953054666519,0.10881101340055466
1733751402946355500,9.86035546875,0.037873249500989914,0.06537375599145889,0.11907776445150375
1733751402956330200,9.870330322265625,0.041983600705862045,0.03619525209069252,0.13454680144786835
1733751402966306300,9.880306396484375,0.04532640054821968,0.00661898497492075,0.1522485762834549
1733751402976282400,9.890282470703125,0.04860657826066017,-0.014048269018530846,0.17039431631565094
1733751402986257400,9.90025732421875,0.050191156566143036,-0.029521500691771507,0.1780138909816742
1733751402996233200,9.910233154296876,0.048211097717285156,-0.03232447803020477,0.1798277646303177
1733751403006209300,9.920209228515626,0.043631259351968765,-0.02285507693886757,0.17136557400226593
1733751403016185300,9.930185302734374,0.034472495317459106,-0.001317818881943822,0.1570063829421997
1733751403026160000,9.94016015625,0.02885535918176174,0.016890745609998703,0.14673882722854614
1733751403036136400,9.950136474609375,0.019112538546323776,0.03322563320398331,0.1362219601869583
1733751403046112300,9.9601123046875,0.011747834272682667,0.034722860902547836,0.13699586689472198
1733751403056088300,9.97008837890625,0.0010122074745595455,0.029844051226973534,0.1418248564004898
1733751403066063000,9.98006298828125,-0.0034443263430148363,0.022678816691040993,0.14733172953128815
1733751403076039400,9.990039306640625,-0.0037180993240326643,0.014083731919527054,0.14812695980072021
1733751403086015200,10.00001513671875,-0.0007537346100434661,0.008200808428227901,0.13750892877578735
1733751403095990300,10.009990234375,0.0032782608177512884,0.004870275501161814,0.11888737976551056
1733751403105966300,10.01996630859375,0.010013128630816936,-0.0026190662756562233,0.09924736618995667
1733751403115942100,10.029942138671874,0.014032283797860146,-0.0014465001877397299,0.08334340900182724
1733751403125918500,10.03991845703125,0.011546222493052483,0.0051647974178195,0.07310514897108078
1733751403135893200,10.049893310546874,0.010110423900187016,0.002059163758531213,0.07501574605703354
1733751403145869300,10.059869384765625,0.004601408261805773,-0.000522770918905735,0.08995847404003143
1733751403155845000,10.06984521484375,-0.005163456313312054,0.0007214501965790987,0.11242194473743439
1733751403165820400,10.0798203125,-0.006344301626086235,0.00009800400584936142,0.12778837978839874
1733751403175796200,10.089796142578125,-0.00026737237931229174,0.00233470625244081,0.1389554738998413
1733751403185772300,10.099772216796875,0.009096035733819008,0.015401506796479225,0.13937757909297943
1733751403195748400,10.109748291015626,0.013328498229384422,0.027788739651441574,0.13111275434494019
1733751403205723400,10.119723388671876,0.016891542822122574,0.029223915189504623,0.12420929968357086
1733751403215699200,10.12969921875,0.019800355657935143,0.021117888391017914,0.12283338606357574
1733751403225675300,10.13967529296875,0.018663451075553894,0.006576762534677982,0.13496701419353485
1733751403235650300,10.149650390625,0.026814915239810944,-0.0016794329276308417,0.15639695525169373
1733751403245626000,10.159626220703124,0.029698586091399193,-0.006746096536517143,0.17951053380966187
1733751403255602400,10.1696025390625,0.04109318554401398,-0.013241013512015343,0.19944189488887787
1733751403265578200,10.179578125,0.0508028045296669,-0.01617901399731636,0.21715112030506134
1733751403275553300,10.18955322265625,0.05976858362555504,-0.017437435686588287,0.2209780216217041
1733751403285529300,10.199529296875,0.06584245711565018,-0.025075914338231087,0.2207694947719574
1733751403295505400,10.20950537109375,0.06678369641304016,-0.027192911133170128,0.20666201412677765
1733751403305480200,10.219480224609375,0.06891289353370667,-0.029821451753377914,0.19029608368873596
1733751403315456500,10.22945654296875,0.06664761900901794,-0.03317766264081001,0.1712634116411209
1733751403325432300,10.239432373046874,0.06268803030252457,-0.028474783524870872,0.15403595566749573
1733751403335408000,10.249408203125,0.05559970811009407,-0.022858140990138054,0.14136159420013428
1733751403345383200,10.259383056640624,0.04781848564743996,-0.02795037254691124,0.12976698577404022
1733751403355359200,10.269359130859375,0.04038895666599274,-0.036296386271715164,0.12249229848384857
1733751403365335300,10.279335205078125,0.030375471338629723,-0.03991961479187012,0.12197591364383698
1733751403375310000,10.28931005859375,0.030475163832306862,-0.05368244647979736,0.13126550614833832
1733751403385286400,10.299286376953125,0.025783205404877663,-0.07228942215442657,0.1434803605079651
1733751403395262200,10.30926220703125,0.02845735475420952,-0.08487547934055328,0.15776358544826508
1733751403405238300,10.31923828125,0.032713882625103,-0.09750871360301971,0.17626003921031952
1733751403415213300,10.32921337890625,0.04003080353140831,-0.10846869647502899,0.19861166179180145
1733751403425189400,10.339189453125,0.04214109107851982,-0.11073903739452362,0.21805328130722046
1733751403435165200,10.349165283203124,0.0435534231364727,-0.10744990408420563,0.23135603964328766
1733751403445140500,10.359140380859374,0.03848809003829956,-0.09409947693347931,0.23511961102485657
1733751403455116300,10.3691162109375,0.04097246378660202,-0.0824677050113678,0.2362286001443863
1733751403465092000,10.379092041015625,0.04171122610569,-0.0675838366150856,0.23812530934810638
1733751403475068400,10.389068359375,0.03542379289865494,-0.04944842681288719,0.24288949370384216
1733751403485043200,10.399043212890625,0.03686962276697159,-0.03487827256321907,0.24395234882831573
1733751403495019300,10.409019287109375,0.038374945521354675,-0.01970454305410385,0.24856401979923248
1733751403504995300,10.418995361328125,0.04143092408776283,-0.0035735082346946,0.2549252510070801
1733751403514970400,10.428970458984375,0.050536930561065674,0.00780912209302187,0.260074257850647
1733751403524946200,10.4389462890625,0.056191086769104004,0.022865034639835358,0.26670604944229126
1733751403534922200,10.448922119140626,0.059973686933517456,0.01760859042406082,0.2696700394153595
1733751403544898300,10.458898193359374,0.06239689514040947,0.008534667082130909,0.2756136953830719
1733751403554873300,10.468873291015624,0.06594374030828476,-0.004099137615412474,0.2802745997905731
1733751403564849400,10.478849365234375,0.06357566267251968,-0.017057547345757484,0.2866041362285614
1733751403574825200,10.4888251953125,0.06127718463540077,-0.024288266897201538,0.29239556193351746
1733751403584800300,10.49880029296875,0.06156027689576149,-0.029763460159301758,0.299903005361557
1733751403594776300,10.5087763671875,0.06197677552700043,-0.03243602067232132,0.30740535259246826
1733751403604752400,10.51875244140625,0.06213683262467384,-0.033738572150468826,0.31844842433929443
1733751403614728200,10.528728271484376,0.0616602748632431,-0.03222750127315521,0.32356032729148865
1733751403624703200,10.538703125,0.0647364929318428,-0.03132016211748123,0.3206734359264374
1733751403634679300,10.54867919921875,0.06072068214416504,-0.033113520592451096,0.3206029534339905
1733751403644655000,10.558655029296874,0.054508861154317856,-0.039911240339279175,0.32093238830566406
1733751403654631400,10.56863134765625,0.05257812514901161,-0.04616793245077133,0.3196604549884796
1733751403664606200,10.578606201171874,0.05189342796802521,-0.05150757357478142,0.31150132417678833
1733751403674582300,10.588582275390625,0.052360545843839645,-0.05927973985671997,0.3028084933757782
1733751403684558300,10.598558349609375,0.05188543722033501,-0.06269577890634537,0.2975229322910309
1733751403694533400,10.608533447265625,0.05813425034284592,-0.059918250888586044,0.29721924662590027
1733751403704509200,10.61850927734375,0.060764387249946594,-0.05834672227501869,0.3052492141723633
1733751403714485200,10.6284853515625,0.055876147001981735,-0.058194030076265335,0.3076198101043701
1733751403724461300,10.63846142578125,0.050580449402332306,-0.053803544491529465,0.3087673783302307
1733751403734435600,10.648435546875,0.04442917928099632,-0.050366006791591644,0.3063683807849884
1733751403744411600,10.65841162109375,0.038727086037397385,-0.04835771396756172,0.30253902077674866
1733751403754387700,10.6683876953125,0.02953515574336052,-0.045557551085948944,0.294280469417572
1733751403764362500,10.678362548828124,0.02834392338991165,-0.041523661464452744,0.2877136468887329
1733751403774338800,10.6883388671875,0.022352049127221107,-0.03248754143714905,0.27515077590942383
1733751403784314600,10.698314697265625,0.01646220125257969,-0.031870752573013306,0.26460838317871094
1733751403794290400,10.70829052734375,0.015261332504451275,-0.03842528909444809,0.2653198540210724
1733751403804265700,10.718265625,0.008102755062282085,-0.04527813568711281,0.26240289211273193
1733751403814241500,10.728241455078125,0.0119964350014925,-0.03775382041931152,0.25683191418647766
1733751403824217600,10.738217529296875,0.022964663803577423,-0.023021215572953224,0.24312277138233185
1733751403834192600,10.748192626953125,0.025460952892899513,-0.020112674683332443,0.22060641646385193
1733751403844168700,10.758168701171876,0.01887282356619835,-0.022946011275053024,0.19899113476276398
1733751403854144500,10.76814453125,0.016823256388306618,-0.03645649552345276,0.1786043643951416
1733751403864120800,10.778120849609374,0.013567009940743446,-0.05007936432957649,0.16061817109584808
1733751403874095600,10.788095703125,0.011475757695734501,-0.053555406630039215,0.14362205564975739
1733751403884071700,10.79807177734375,0.008957472629845142,-0.057163991034030914,0.13092809915542603
1733751403894047700,10.8080478515625,0.0031778207048773766,-0.05589086934924126,0.13048627972602844
1733751403904022800,10.818022705078125,0.0026949895545840263,-0.05131608992815018,0.1375892013311386
1733751403913998600,10.82799853515625,0.0008447834406979382,-0.05337135121226311,0.145819291472435
1733751403923974700,10.837974609375,0.00227596634067595,-0.06099332123994827,0.14938686788082123
1733751403933950700,10.84795068359375,0.0042752111330628395,-0.07349775731563568,0.15001817047595978
1733751403943925500,10.857925537109375,0.0030759896617382765,-0.08457543700933456,0.14392699301242828
1733751403953901800,10.86790185546875,0.003874109359458089,-0.08009438961744308,0.14183807373046875
1733751403963877600,10.877877685546874,0.0018181490013375878,-0.07417311519384384,0.13449813425540924
1733751403973852700,10.887852783203124,-0.0002687830419745296,-0.0574265792965889,0.1215609759092331
1733751403983828500,10.897828369140624,-0.0069269523955881596,-0.04377095401287079,0.10724621266126633
1733751403993804800,10.9078046875,-0.00844129454344511,-0.029601380228996277,0.09697769582271576
1733751404003780600,10.917780517578125,-0.00961468368768692,-0.01609143055975437,0.08332100510597229
1733751404013755600,10.927755615234375,-0.006486454978585243,-0.009342232719063759,0.06295161694288254
1733751404023731700,10.937731689453125,-0.007499787490814924,-0.010814960114657879,0.04509724676609039
1733751404033707500,10.94770751953125,-0.01408290583640337,-0.023681456223130226,0.024271735921502113
1733751404043682600,10.9576826171875,-0.008275615982711315,-0.038830846548080444,0.007000604644417763
1733751404053658600,10.96765869140625,-0.006594500504434109,-0.05329003557562828,-0.006407957524061203
1733751404063634700,10.977634765625,-0.00044233218068256974,-0.07603742182254791,-0.01101975329220295
1733751404073610500,10.987610595703124,0.002150649670511484,-0.07877390831708908,-0.018356308341026306
1733751404083585800,10.997585693359374,-0.004611382260918617,-0.0699165016412735,-0.020577384158968925
1733751404093561600,11.0075615234375,-0.014945217408239841,-0.05250726267695427,-0.02895960956811905
1733751404103537700,11.01753759765625,-0.02417280524969101,-0.02657446637749672,-0.03035377338528633
1733751404113512700,11.0275126953125,-0.0429551936686039,-0.014803705736994743,-0.03255438804626465
1733751404123488800,11.03748876953125,-0.055387359112501144,0.006264029070734978,-0.02583123929798603
1733751404133464600,11.047464599609375,-0.05722862109541893,0.027120007202029228,-0.02089095115661621
1733751404143440600,11.057440673828125,-0.052812833338975906,0.028790339827537537,-0.011789597570896149
1733751404153415700,11.067415771484375,-0.038273539394140244,0.02070043981075287,-0.0018510072259232402
1733751404163391500,11.0773916015625,-0.024923913180828094,0.011375382542610168,0.008992052637040615
1733751404173367800,11.087367919921874,-0.009209804236888885,0.003181282663717866,0.02467879094183445
1733751404183342600,11.097342529296874,0.0005621332093141973,0.0010313123930245638,0.03760337829589844
1733751404193318700,11.107318603515624,0.0007575008203275502,0.0046144938096404076,0.05407169461250305
1733751404203294700,11.117294677734375,0.0037769926711916924,0.0032799842301756144,0.06086435168981552
1733751404213270800,11.127270751953125,-0.0096984151750803,0.008620206266641617,0.0670018121600151
1733751404223245600,11.13724560546875,-0.017807740718126297,0.01243118941783905,0.07002583146095276
1733751404233222000,11.147221923828125,-0.026387182995676994,0.020703990012407303,0.06797875463962555
1733751404243197700,11.15719775390625,-0.027705447748303413,0.020766841247677803,0.06047156825661659
1733751404253172700,11.1671728515625,-0.028345169499516487,0.008791418746113777,0.04695076122879982
1733751404263148500,11.1771484375,-0.020936787128448486,-0.0066882045939564705,0.035719677805900574
1733751404273124600,11.18712451171875,-0.01689283736050129,-0.020920272916555405,0.02355780452489853
1733751404283100700,11.1971005859375,-0.016272319480776787,-0.03497963398694992,0.020595302805304527
1733751404293075500,11.207075439453124,-0.014347890391945839,-0.03915441781282425,0.024987593293190002
1733751404303051800,11.2170517578125,-0.01803130842745304,-0.04482082650065422,0.026803869754076004
1733751404313027600,11.227027587890625,-0.016117312014102936,-0.05998760834336281,0.03209232538938522
1733751404323003600,11.237003662109375,-0.017304284498095512,-0.06326596438884735,0.04333832114934921
1733751404332978700,11.246978759765625,-0.017844906076788902,-0.061298951506614685,0.041978247463703156
1733751404342954800,11.256954833984375,-0.015863779932260513,-0.05980757996439934,0.03608813136816025
1733751404352930600,11.2669306640625,-0.011549470014870167,-0.04727065563201904,0.02428031899034977
1733751404362905900,11.27690576171875,-0.009726270101964474,-0.03592026233673096,0.010940278880298138
1733751404372881700,11.286881591796876,-0.010422036051750183,-0.04209905490279198,-0.005398449953645468
1733751404382857500,11.296857421875,-0.012481458485126495,-0.044007476419210434,-0.004995779599994421
1733751404392833800,11.306833740234374,-0.016969021409749985,-0.0423901230096817,-0.0027184600476175547
1733751404402808600,11.31680859375,-0.020086783915758133,-0.029422663152217865,0.008868686854839325
1733751404412784600,11.32678466796875,-0.02064860239624977,-0.016531795263290405,0.020064756274223328
1733751404422760700,11.3367607421875,-0.025383703410625458,0.00747420359402895,0.02554980292916298
1733751404432735700,11.34673583984375,-0.024937229230999947,0.009570558555424213,0.03257327899336815
1733751404442711600,11.356711669921875,-0.024691153317689896,0.0029941482935100794,0.035371195524930954
1733751404452687600,11.3666875,-0.021118156611919403,-0.0011893829796463251,0.040762610733509064
1733751404462663700,11.37666357421875,-0.0167740099132061,0.0015065348707139492,0.04956302419304848
1733751404472638700,11.386638671875,-0.007727498654276133,-0.0010197600349783897,0.04499801993370056
1733751404482614800,11.39661474609375,-0.0007151288446038961,-0.013109979219734669,0.03450463339686394
1733751404492590600,11.406590576171874,0.0019013677956536412,-0.015261949971318245,0.028759382665157318
1733751404502565600,11.416565673828124,-0.0013495528837665915,-0.0313413180410862,0.02811516262590885
1733751404512541700,11.426541748046875,-0.007021928206086159,-0.036146026104688644,0.023627331480383873
1733751404522517800,11.436517822265625,0.004698377568274736,0.01772546023130417,0.02650034986436367
1733751404532493600,11.44649365234375,0.009750117547810078,0.008719542063772678,0.01936371810734272
1733751404542468600,11.456468505859375,0.011517924256622791,0.002786817727610469,0.015458193607628345
1733751404552444700,11.466444580078125,0.004782040137797594,0.013659404590725899,0.014870824292302132
1733751404562420500,11.47642041015625,0.005893377121537924,-0.008382781408727169,0.00827257614582777
1733751404572395500,11.4863955078125,0.00265124486759305,-0.03195575252175331,0.0038709035143256187
1733751404582371600,11.49637158203125,-0.0030058417469263077,-0.04318923503160477,0.00326050678268075
1733751404592347600,11.50634765625,-0.0034419295843690634,-0.04828190803527832,0.00392131507396698
1733751404602323700,11.51632373046875,-0.006819083821028471,-0.049813758581876755,0.007546409964561462
1733751404612298800,11.526298828125,-0.008542031049728394,-0.04830214008688927,0.008985080756247044
1733751404622274600,11.536274658203125,-0.012988711707293987,-0.04686536639928818,0.011158752255141735
1733751404632250600,11.546250732421875,-0.010981418192386627,-0.03811577335000038,0.015332099050283432
1733751404642225700,11.5562255859375,-0.006420221645385027,-0.04079917445778847,0.015605337917804718
1733751404652201700,11.56620166015625,-0.0030796113424003124,-0.04477887228131294,0.007868840359151363
1733751404662177500,11.576177490234375,-0.004010386299341917,-0.042565785348415375,-0.001469533541239798
1733751404672153600,11.586153564453125,0.0021780109964311123,-0.03901508450508118,-0.003691784106194973
1733751404682128600,11.596128662109376,0.008500888012349606,-0.03176809102296829,0.00011014461051672697
1733751404692104700,11.606104736328126,0.013007301837205887,-0.05828683450818062,-0.005673379171639681
1733751404702080800,11.616080810546874,0.015747427940368652,-0.07120104134082794,-0.009756537154316902
1733751404712055800,11.626055908203124,0.01824069768190384,-0.07213956117630005,-0.0027415866497904062
1733751404722031600,11.636031494140624,0.017246808856725693,-0.06956854462623596,0.0009857735130935907
1733751404732008000,11.646008056640625,0.016430824995040894,-0.06525617837905884,0.008326934650540352
1733751404741984000,11.65598388671875,0.012926370836794376,-0.06063665822148323,0.005806785076856613
1733751404751958800,11.665958740234375,0.010041890665888786,-0.06208905205130577,0.0024467837065458298
1733751404761935000,11.67593505859375,0.00511530926451087,-0.0639287605881691,-0.00014100992120802402
1733751404771911000,11.685910888671875,0.0049155824817717075,-0.06341113895177841,-0.006621122360229492
1733751404781886000,11.695885986328125,0.0012579972390085459,-0.06281165778636932,-0.008091719821095467
1733751404791862000,11.705862060546876,0.0024148153606802225,-0.06679748743772507,-0.011138390749692917
1733751404801837800,11.715837890625,0.004754934925585985,-0.06792985647916794,-0.006897040642797947
1733751404811814000,11.72581396484375,0.008636197075247765,-0.06838834285736084,0.005575531627982855
1733751404821788700,11.73578857421875,0.00990119855850935,-0.08010278642177582,0.013620941899716854
1733751404831765000,11.745764892578125,-0.005088631063699722,-0.11508974432945251,0.016328012570738792
1733751404841740800,11.75574072265625,0.00662688072770834,-0.07342538982629776,0.01997947320342064
1733751404851715800,11.7657158203125,0.014626020565629005,-0.0734543725848198,0.015382494777441025
1733751404861692000,11.77569189453125,0.014968235976994038,-0.07702700048685074,0.01021116878837347
1733751404871668000,11.78566796875,0.009036184288561344,-0.06839801371097565,0.005334733985364437
1733751404881644000,11.79564404296875,0.009398107416927814,-0.06679558753967285,0.00019856158178299665
1733751404891619000,11.805619140625,0.020275916904211044,-0.05021695792675018,0.010464701801538467
1733751404901595000,11.815594970703126,0.017760295420885086,-0.07611966133117676,0.0046411678194999695
1733751404911570700,11.82557080078125,0.019501933827996254,-0.09369976818561554,0.0006771465996280313
1733751404921546000,11.8355458984375,0.025955839082598686,-0.09274156391620636,0.0008763511432334781
1733751404931521800,11.845521728515624,0.02061866596341133,-0.09368134289979935,0.005854237824678421
1733751404941497900,11.855497802734375,0.020894570276141167,-0.09514528512954712,0.01002687867730856
1733751404951474000,11.865473876953125,0.021705856546759605,-0.09561441093683243,0.011700630187988281
1733751404961449000,11.875448974609375,0.02076363004744053,-0.09359414130449295,0.01469775103032589
1733751404971424800,11.8854248046875,0.022405685856938362,-0.08869202435016632,0.015214545652270317
1733751404981401000,11.895401123046875,0.01734807714819908,-0.08282960951328278,0.016391662880778313
1733751404991376000,11.9053759765625,0.010149838402867317,-0.07273705303668976,0.014415251091122627
1733751405001352000,11.91535205078125,0.028590630739927292,-0.06334061920642853,0.008573074825108051
1733751405011328000,11.925327880859374,0.03300517424941063,-0.058688484132289886,0.010341367684304714
1733751405021303800,11.9353037109375,0.032615821808576584,-0.05584049969911575,0.010965080000460148
1733751405031278800,11.94527880859375,0.03425665199756622,-0.04614325985312462,0.010483062826097012
1733751405041255000,11.9552548828125,0.041008830070495605,-0.037877608090639114,0.005982587113976479
1733751405051231000,11.96523095703125,0.04611276835203171,-0.02701927348971367,0.002902217675000429
1733751405061206800,11.975206787109375,0.056686852127313614,-0.006149944383651018,0.007846109569072723
1733751405071182000,11.98518212890625,0.062269724905490875,0.002574426820501685,0.009752887301146984
1733751405081158000,11.995157958984375,0.047515545040369034,0.0014782699290663004,0.016784165054559708
1733751405091134000,12.005134033203126,0.051597725600004196,0.003524399595335126,0.021169418469071388
1733751405101108700,12.015108642578125,0.051903724670410156,0.023250434547662735,0.031348817050457
