time,seconds_elapsed,z,y,x
1733851305592943600,0.023943603515625,-1.878202687075734,0.5143371773481369,-0.23685060778856276
1733851305602912800,0.033912841796875,-1.3408862006783484,0.6865744431897998,-0.05311550411581993
1733851305612880600,0.043880615234375,-1.1973463292717932,0.9352832465544343,-0.033661446583271026
1733851305622849800,0.053849853515625,-1.3406354407876728,0.9843526901498436,-0.34451895534694194
1733851305632818700,0.063818603515625,-1.3305050919175148,0.6541831626728176,-0.8016250099539757
1733851305642786800,0.073786865234375,-1.697159306704998,0.19093495204895733,-0.7818979806989431
1733851305652755700,0.083755615234375,-2.260124029099941,-0.46048400660753247,-0.5276338812947273
1733851305662723800,0.093723876953125,-2.578495566755533,-1.0492068551152944,0.1427192026734352
1733851305672692700,0.103692626953125,-2.459213938292861,-1.323801794886589,0.5390151070088148
1733851305682660600,0.11366064453125,-1.850188306468725,-0.9535273437753319,0.8730600146144628
1733851305692629500,0.12362939453125,-0.9158312348484993,0.5208253703236579,1.1663117240607739
1733851305702597600,0.13359765625,-0.421487628737092,1.7898355445757508,1.1647621565312147
1733851305712566500,0.14356640625,0.06056757368743419,1.573123177191615,1.1297183156788349
1733851305722535700,0.15353564453125,0.46413317676484583,0.8567030463144183,0.8869564380198717
1733851305732503600,0.163503662109375,0.9988479562312363,0.0661971040070057,1.5787538765549658
1733851305742472700,0.17347265625,1.545373585000634,-0.4105915561914444,1.6166525223165749
1733851305752440600,0.183440673828125,1.1844716501295567,-0.7588153574056923,0.8260714689463377
1733851305762409700,0.19340966796875,0.7874626290887594,-0.43706732905432577,1.8135235864162444
1733851305772377900,0.2033779296875,0.6424152757287025,0.25915216370671984,2.464732409453392
1733851305782346800,0.2133466796875,0.6351151818484068,1.0582191597409545,2.488895375329256
1733851305792315000,0.22331494140625,0.8189549149394035,1.7334912876717745,2.0212854623645544
1733851305802283800,0.23328369140625,0.31578795090317724,1.832598727633804,1.3288871353268623
1733851305812252700,0.243252685546875,-0.8648468975424766,1.4720590502038597,0.9243769448757171
1733851305822220800,0.253220703125,-1.1688730989813805,0.587953471570462,0.40385143428146836
1733851305832189700,0.263189697265625,-1.1197761828571557,0.13881313514560462,0.35876901449561116
1733851305842157600,0.273157470703125,-0.859769740408659,0.7438970436066389,1.3507143517315388
1733851305852126700,0.283126708984375,-0.19737609101235865,1.394496502573788,1.463559809666872
1733851305862094600,0.293094482421875,0.3710509884417057,1.1623526111714542,2.9674972224295137
1733851305872063700,0.303063720703125,1.27251233715415,0.8272741227343678,4.284471801644563
1733851305882031600,0.313031494140625,1.018595443752408,0.9232532015427947,3.190135764992237
1733851305892000800,0.323000732421875,0.6641881315976381,0.8919501546539366,2.071794583374262
1733851305901969700,0.3329697265625,1.011769397124648,0.7082419389881193,1.0708990469634532
1733851305911937800,0.342937744140625,1.150164306858182,0.551116755951941,0.35605157223045825
1733851305921906700,0.35290673828125,0.9995546431958675,0.5856982399895787,0.029221418309211728
1733851305931874800,0.362874755859375,0.6230068109035491,0.487080775501579,0.02697743877470493
1733851305941843700,0.37284375,0.2558984226077795,0.2867931809566915,0.3425444404035806
1733851305951811800,0.382811767578125,0.37832185622751713,0.22489362801313398,0.6049462535560131
1733851305961780700,0.39278076171875,0.9752081374466418,0.07006846554763614,0.4869003043681383
1733851305971748900,0.402748779296875,1.675622013157606,0.006869593508541583,0.34933249310851094
1733851305981717800,0.4127177734375,2.5562989325165746,0.022886370068788527,0.28157237756848336
1733851305991687000,0.42268701171875,2.96886500365138,-0.13451719151735306,-0.03762567403912544
1733851306001654800,0.43265478515625,2.593182263755798,-0.18394589687921106,-0.3672510116368532
1733851306011624000,0.4426240234375,1.6726900513589382,-0.09336363561302423,-0.5409031127125025
1733851306021591600,0.452591552734375,0.5983779810816049,-0.03204641260206699,-0.41867783201336856
1733851306031560700,0.462560791015625,-0.2886000842481851,-0.0039535599313676355,-0.1242670156598091
1733851306041528600,0.472528564453125,-0.8487637777477502,0.05905614621117711,-0.09241349528133869
1733851306051497700,0.482497802734375,-1.2017027709156274,0.05963226559869945,-0.24472061051130292
1733851306061465900,0.4924658203125,-1.3375070796340702,0.024855916576087475,-0.4964022922068834
1733851306071434800,0.502434814453125,-1.213513035696745,-0.09286920315958559,-0.5449947659403085
1733851306081403600,0.512403564453125,-0.8279173890739678,-0.21432152672484517,-0.21317162603735923
1733851306091371800,0.522371826171875,-0.4392845667123794,-0.22172588469721374,0.20040040726959704
1733851306101340700,0.532340576171875,-0.22320552879571914,-0.03817541687637567,0.5299082559674978
1733851306111308800,0.542308837890625,-0.3362123147726059,0.1897046796016395,0.6847709008991718
1733851306121277700,0.552277587890625,-0.681792177349329,0.4375120040819049,0.8489297819644213
1733851306131245800,0.562245849609375,-1.129175294843316,0.6352076824374496,0.9962871658325195
1733851306141214700,0.572214599609375,-1.2005559389680622,0.7445595991685986,0.9960136095881461
1733851306151184000,0.582183837890625,-0.8458101886391639,0.7449069513015448,0.9862070858448744
1733851306161152000,0.592152099609375,-0.3734241473138332,0.7057249877311289,0.7512748788982629
1733851306171121000,0.602120849609375,-0.29806290912032124,0.6824312059052288,0.6629793403297662
1733851306181088800,0.6120888671875,-0.6964607541710138,0.5757322148356586,0.5218003528356552
1733851306191057700,0.6220576171875,-0.8583341546475887,0.4773104190502315,0.3033820583164692
1733851306201025800,0.63202587890625,-0.7858943568587303,0.33208851284086705,-0.08970949701964855
1733851306210994700,0.64199462890625,-0.6744155111014842,0.1947719729285687,-0.6698077250450849
1733851306220962800,0.651962890625,-0.5900006133586168,0.1819756927847862,-0.95822134681046
1733851306230931700,0.661931640625,-0.7267559391915798,0.07753522123172879,-0.9986480497449636
1733851306240900900,0.67190087890625,-0.9627285951018333,-0.02170417454689741,-0.8242319785594939
1733851306250868700,0.68186865234375,-1.0713999822229145,0.08406886078417301,-0.6577911240369081
1733851306260838000,0.691837890625,-1.0141115763366222,0.22727233984321354,-0.4772282206594944
1733851306270805800,0.7018056640625,-1.0732920795798302,0.20537439628988502,-0.46820437172651286
1733851306280775000,0.71177490234375,-0.9717670570820569,0.14894260723292826,-0.4753326161712408
1733851306290742800,0.72174267578125,-0.8179261564135551,0.09226283476427197,-0.45936114005744455
1733851306300712000,0.7317119140625,-0.8447773384600877,0.06327785555943846,-0.3842296189665794
1733851306310679600,0.741679443359375,-0.8984621668964624,0.09134177439659834,-0.22688801670074463
1733851306320648700,0.751648681640625,-0.8092161957353353,0.21126462337225674,-0.13177286124527454
1733851306330617600,0.76161767578125,-1.0741682778924704,0.43409108972251415,-0.059872577160596845
1733851306340585700,0.771585693359375,-1.2737164522469042,0.4966878311499953,-0.024873744493722913
1733851306350554600,0.7815546875,-1.3266051618695258,0.48681993260830636,0.06423311045765877
1733851306360522800,0.791522705078125,-1.619410881114006,0.47068566714823246,0.17102876683473586
1733851306370491600,0.80149169921875,-1.7050860080510377,0.5844539390169083,0.13500409825146198
1733851306380459800,0.811459716796875,-1.6249024642676113,0.6337859790712594,-0.003545125260949135
1733851306390428700,0.8214287109375,-1.3720394638329743,0.518460394757986,-0.12736556619703768
1733851306400396800,0.831396728515625,-0.9674147070914506,0.42671515412703154,-0.03735153327286243
1733851306410365700,0.84136572265625,-0.8547551271170377,0.42842064287066456,0.1958048961728811
1733851306420334800,0.8513349609375,-0.8342331480920314,0.4509595146760344,0.2228185753047466
1733851306430303000,0.861302978515625,-0.9735621238052844,0.42087782627567644,-0.04549216963052749
1733851306440272000,0.87127197265625,-1.1373194383323193,0.37312136497497556,-0.35914077041745185
1733851306450240000,0.881239990234375,-1.2738076376616954,0.30470322391763327,-0.669154814094305
1733851306460209000,0.891208984375,-1.2763228353530167,0.24580913640037177,-0.8571756322622298
1733851306470176800,0.9011767578125,-1.2193518248528241,0.17143851667940616,-0.8695943843305111
1733851306480145700,0.911145751953125,-1.0800368776649236,0.11192176721915602,-0.7608645450204611
1733851306490114800,0.92111474609375,-0.8217991984546184,0.052577451716363424,-0.7455255215913057
1733851306500082700,0.931082763671875,-0.7918494658708571,0.05045110721215605,-0.7520312502235174
1733851306510051800,0.9410517578125,-0.7707067245990038,0.06994023605808615,-0.626408728301525
1733851306520019700,0.951019775390625,-0.646793344682455,0.15959332671537996,-0.5289607459843159
1733851306529988900,0.96098876953125,-0.7413906137436628,0.1813052461773157,-0.544617164799571
1733851306539956700,0.970956787109375,-0.7888654816240072,0.0474688765309751,-0.5265747276306152
1733851306549926000,0.98092578125,-0.8653577696740626,-0.08629676596671343,-0.5971668517261743
1733851306559893800,0.990893798828125,-0.8743769424319267,-0.16688289920166133,-0.6003817221194505
1733851306569863000,1.00086279296875,-0.958465676960349,-0.15513400921896098,-0.5235515804171562
1733851306579831800,1.010831787109375,-0.9530793077468872,-0.16374357826262712,-0.5722036753833294
1733851306589800000,1.020800048828125,-0.8602718447118997,-0.2901554969966411,-0.6766121443629265
1733851306599768800,1.030768798828125,-0.8076613675087689,-0.33111382258981464,-0.701924864795804
1733851306609736700,1.04073681640625,-0.6827218594148755,-0.36748891204595563,-0.8137848188251257
1733851306619705600,1.05070556640625,-0.5810334630489349,-0.39630569507703184,-0.8388438567578792
1733851306629673700,1.060673828125,-0.5458908379971981,-0.3522356672041118,-0.765049721750617
1733851306639642600,1.070642578125,-0.5586588418945669,-0.2487994042575359,-0.6914683527112007
1733851306649611800,1.08061181640625,-0.5071247617512941,-0.1783889203391969,-0.6246843887269496
1733851306659579600,1.09057958984375,-0.49926352685689923,-0.1666018172379583,-0.6021890638023615
1733851306669548800,1.100548828125,-0.38043782546818256,-0.24004699267707763,-0.6739449709802866
1733851306679516700,1.1105166015625,-0.1941501147031784,-0.36540143824741245,-0.7359323483377694
1733851306689485800,1.12048583984375,-0.008602700911462306,-0.45627069976143536,-0.7425900526612996
1733851306699454000,1.130453857421875,0.19814298373162745,-0.44253860007226464,-0.6918102980166674
1733851306709422800,1.1404228515625,0.3180687553167343,-0.32683110376931723,-0.5872872627466916
1733851306719391000,1.150390869140625,0.43074353286027905,-0.19068455748446284,-0.4474006531506777
1733851306729360000,1.16035986328125,0.394044033755362,-0.1194454407222569,-0.5523620798379183
1733851306739328800,1.170328857421875,0.48429772065430876,-0.1576231226209551,-0.7250526424050331
1733851306749296600,1.180296630859375,0.5980556172594428,-0.21335670028068124,-0.8350573239564895
1733851306759265500,1.190265625,0.7918065035119652,-0.36596133715249596,-0.9501707268238067
1733851306769233700,1.200233642578125,0.9081845194876194,-0.4752915535084903,-0.9405173478156328
1733851306779202800,1.210202880859375,1.0328019560202955,-0.45079906341731546,-0.9185895936459303
1733851306789170700,1.220170654296875,1.2534718288585542,-0.33177944689169525,-0.9476999527961015
1733851306799139800,1.230139892578125,1.3410188871473072,-0.36948980353958905,-1.012162780356407
1733851306809107700,1.240107666015625,1.469505566328764,-0.3643603316966444,-1.0344254655689
1733851306819076900,1.250076904296875,1.6348144942119716,-0.35851657410450277,-1.0906938807576894
1733851306829045800,1.260045654296875,1.7410455024436116,-0.4144426055964082,-1.1040426071524618
1733851306839014000,1.270013916015625,1.8391016797870396,-0.534872600376606,-1.107692361831665
1733851306848982800,1.279982666015625,1.8874414939336477,-0.6383128088459372,-1.2056541388899087
1733851306858951000,1.289950927734375,1.9197464113414286,-0.6707206021063029,-1.2912474327623844
1733851306868919800,1.299919921875,1.8961568614393471,-0.6804274648673831,-1.349188165077567
1733851306878888000,1.309887939453125,1.9088709431923925,-0.6902719825334847,-1.3875731330513954
1733851306888856800,1.31985693359375,1.9517964772053062,-0.6918661198571324,-1.3772995763182638
1733851306898826000,1.329825927734375,1.9767175679720936,-0.646290801987797,-1.315278881213069
1733851306908793600,1.339793701171875,2.2405817087620497,-0.6328696679439395,-1.251277241423726
1733851306918762800,1.3497626953125,2.5353607739061115,-0.7388052003603428,-1.2248942614108322
1733851306928730600,1.359730712890625,2.606226454246044,-0.8383801847688853,-1.3101087850987911
1733851306938699800,1.36969970703125,2.6471844875782726,-0.8166380162991583,-1.329536539146304
1733851306948667600,1.379667724609375,2.6216882272720334,-0.7720335892885923,-1.4370628478854894
1733851306958636800,1.38963671875,2.509822428023815,-0.7759384877726435,-1.5043541768699884
1733851306968605000,1.39960498046875,2.3649020620442927,-0.7428784411486238,-1.4708809463351964
1733851306978573800,1.40957373046875,2.2050920238383114,-0.6930183586321771,-1.4075152663618324
1733851306988542700,1.419542724609375,2.202463867291808,-0.7503320450901985,-1.3599796082049607
1733851306998510800,1.4295107421875,2.287067565605044,-0.6923180283430963,-1.2389303855478764
1733851307008479700,1.439479736328125,2.355061928292364,-0.6153112148996442,-1.2245429637551306
1733851307018448000,1.44944775390625,2.4319243648290634,-0.569878081979975,-1.2693839760005474
1733851307028416800,1.459416748046875,2.439351592220366,-0.5306878620378673,-1.2881880451917647
1733851307038384600,1.469384521484375,2.3425856008179484,-0.5072011879883707,-1.1837731464713812
1733851307048353800,1.479353759765625,2.156331353931129,-0.5004592394474894,-1.0785223814487457
1733851307058322700,1.48932275390625,2.0300920152850446,-0.5074804433211684,-1.036204750201106
1733851307068290800,1.499290771484375,2.0945067659199235,-0.5712639103151858,-1.1047393572449684
1733851307078259700,1.509259765625,2.2500155998006464,-0.6257856279671192,-1.1802812127023934
1733851307088227800,1.519227783203125,2.4976746018514038,-0.6815306768689304,-1.2025900751441716
1733851307098196700,1.52919677734375,2.666357974603772,-0.7572237043000757,-1.2664794867306948
1733851307108164900,1.539164794921875,2.6434607908800243,-0.7575090971127152,-1.4412158759117126
1733851307118133800,1.5491337890625,2.51976251501888,-0.7260914839334786,-1.6527327204793691
1733851307128102000,1.559101806640625,2.2379776637434956,-0.5820356258288025,-1.826357349026203
1733851307138070800,1.56907080078125,1.6760960604101418,-0.3569971459848806,-1.735837704667449
1733851307148040000,1.5790400390625,1.2699053695261477,-0.25259748136624693,-1.473791280823946
1733851307158007800,1.5890078125,1.0894798287928105,-0.36093174548745155,-1.1549784291416405
1733851307167977000,1.59897705078125,1.034539447337389,-0.45562670276947315,-0.815421480116248
1733851307177944600,1.608944580078125,1.013052714933455,-0.5580923671182245,-0.47871349078118797
1733851307187914000,1.6189140625,1.083172837603092,-0.6679812402702867,-0.1762292580872774
1733851307197881600,1.628881591796875,1.0674731641680002,-0.7265170158691704,-0.1524491540491581
1733851307207850800,1.638850830078125,1.109924650928378,-0.7235377077974379,-0.2684171279191971
1733851307217819600,1.648819580078125,0.8623860603868961,-0.6517500903069973,-0.3867605987489223
1733851307227787800,1.658787841796875,0.4882067107915878,-0.5883019927471875,-0.5052051918655633
1733851307237756700,1.668756591796875,0.0030786767929792402,-0.5356401506830006,-0.629195144149661
1733851307247724800,1.678724853515625,-0.3260246827572584,-0.43451479502730067,-0.7554255688369274
1733851307257693700,1.688693603515625,-0.43514322912395,-0.4218634763121605,-0.720063748076558
1733851307267661800,1.698661865234375,-0.35947979311347006,-0.3468599655151367,-0.5078390475004911
1733851307277630700,1.708630615234375,0.023916297638416288,-0.19274806588552892,-0.24830431421697138
1733851307287599900,1.718599853515625,0.5429337417572736,-0.0000789104551076889,-0.013919804280996323
1733851307297567700,1.728567626953125,0.950696212002635,0.13937529907301066,0.07819850744605064
1733851307307537000,1.738536865234375,1.1645979058802127,0.18987499466724692,-0.14234101701080798
1733851307317504800,1.7485048828125,1.020482864934206,0.025925810829922555,-0.6429612191736698
1733851307327474000,1.758473876953125,0.6796551653206347,-0.1488719531495124,-1.1888491345614194
1733851307337441800,1.76844189453125,0.09471241987347602,-0.16728519639223813,-1.5714268946677445
1733851307347410700,1.77841064453125,-0.5372036736726761,-0.2241989968124777,-1.8546207359582185
1733851307357378800,1.78837890625,-1.0639777232676744,-0.3035605566885322,-1.9363672912746668
1733851307367347700,1.79834765625,-1.2674626525491475,-0.19771657501310108,-1.7744857074916363
1733851307377316600,1.808316650390625,-1.2816449071586131,-0.28939664145335553,-1.579080039769411
1733851307387284700,1.81828466796875,-1.1486229226350784,-0.26647666137591003,-1.0892553723871707
1733851307397253600,1.828253662109375,-1.1325298659682272,-0.18632672760114072,-0.6726783120453357
1733851307407221800,1.8382216796875,-1.0507587607324123,-0.07966098121404647,-0.6260352188140154
1733851307417191000,1.84819091796875,-0.9279764306724071,0.0016994973942637442,-0.7165232989907264
1733851307427158800,1.85815869140625,-0.895683934354782,0.14966215367913246,-0.553196192574501
1733851307437128000,1.8681279296875,-0.9363637352675199,0.4200637334138155,-0.3791635677486658
1733851307447095800,1.878095703125,-0.8325152382582426,0.6174735805653035,-0.41986616501510143
1733851307457065000,1.88806494140625,-0.839883136677742,0.6801414875328541,-0.7319920862793922
1733851307467033900,1.898033935546875,-0.9543675939917564,0.7108880695827305,-1.0173062807247042
1733851307477001700,1.908001708984375,-1.1782038219064472,0.5741042483076453,-1.2543775455266237
1733851307486970600,1.917970703125,-1.2909931657403706,0.2786687650814652,-1.400166657164693
1733851307496938800,1.927938720703125,-1.2699877871125935,0.04536737420707941,-1.4737068174108863
1733851307506907600,1.93790771484375,-1.191734919130802,-0.10874635205343365,-1.5172750332415104
1733851307516875800,1.947875732421875,-1.0839110887497663,-0.16445114201009273,-1.5654814302667974
1733851307526844700,1.9578447265625,-1.0570353567838668,-0.12558511252105237,-1.5847618847981095
1733851307536813800,1.967813720703125,-1.010624318742752,0.10229790656641125,-1.450879484052956
1733851307546781700,1.97778173828125,-0.8802338517665863,0.34280659847110506,-1.159082649590075
1733851307556750800,1.987750732421875,-0.7707388733029366,0.4094046844944358,-0.9010210575990378
1733851307566718700,1.99771875,-0.7959896344155073,0.289977656211704,-0.715901075439155
1733851307576687900,2.00768798828125,-0.9594184476405382,0.23502368462234735,-0.5399463965095579
1733851307586655700,2.01765576171875,-1.016336851170659,0.15804741244763135,-0.38922012073025103
1733851307596625000,2.027625,-0.9425310257256031,0.08603387724682689,-0.31839199592173095
1733851307606593800,2.03759375,-0.6398614995926618,0.06879121215343476,-0.25078378300778564
1733851307616562000,2.04756201171875,-0.41295770080089567,-0.002821925552934408,-0.24744923175759612
1733851307626530800,2.05753076171875,-0.4805103110700845,-0.005479600454866886,-0.37130923751909284
1733851307636498700,2.067498779296875,-0.4344669372975826,0.08678966405019163,-0.5752274801839142
1733851307646467600,2.077467529296875,-0.5911854392290115,0.034792496439814566,-0.876129996644333
1733851307656435700,2.087435791015625,-0.691439711138606,-0.16301818659752607,-1.0860695819579065
1733851307666404600,2.097404541015625,-0.45997897969484325,-0.16973726571947334,-0.9087022597514093
1733851307676372700,2.107372802734375,-0.4396089763611555,-0.3711732996471226,-0.8103434461995959
1733851307686342000,2.117341796875,-2.181692881941795,0.315235431586951,-0.3148640409912914
1733851307696310800,2.127310791015625,-3.9872599563956257,2.037686415936798,0.26194457090422507
1733851307706279000,2.13727880859375,-3.0929443877846,1.9058134553179145,-0.1883275460295379
1733851307716247800,2.147247802734375,-6.1975365432649845,2.172342431402951,0.1192051291603595
1733851307726216000,2.1572158203125,-5.911426522266864,1.6759624971583484,0.27425708611905575
1733851307736184800,2.167184814453125,-4.821550387632847,-1.014633846645057,1.4293436518102884
1733851307746153700,2.17715380859375,-4.557453461000323,-3.666103756457567,0.7223299394428729
1733851307756121900,2.187121826171875,-4.213210399985313,-2.7378499701485035,-0.23853220419995486
1733851307766090800,2.1970908203125,-3.980356752878427,0.990987232793495,-0.7496199512980878
1733851307776058600,2.20705859375,-2.0790391476750374,0.8464102003589272,-0.42908663249872625
1733851307786027800,2.21702783203125,-0.8297650627672671,0.283941079461202,0.37061661561243237
1733851307795995600,2.22699560546875,0.059200376987457275,0.4989412360999733,0.34024485822431744
1733851307805964800,2.23696484375,0.7199889292746782,0.9575235738046467,-0.2662180104397237
1733851307815932700,2.2469326171875,1.094625959509611,1.3676038194730877,-0.7388743200737983
1733851307825901800,2.25690185546875,1.6159177783012388,1.1206900828316808,-0.9917848129119723
1733851307835870700,2.26687060546875,1.9427070156902073,0.6524468403995036,-1.1281437598384916
1733851307845838800,2.2768388671875,1.845315147474408,0.45675201700497414,-1.2891032603405415
1733851307855807700,2.286807861328125,1.5488514902442694,0.22710239010378716,-1.1175403866291045
1733851307865775900,2.29677587890625,1.0621885017633437,-0.12215422475691884,-0.6472631541512907
1733851307875744800,2.306744873046875,0.34920623638033865,-0.2885828408524394,0.13226488254591823
1733851307885712600,2.316712646484375,-0.29491642778813837,-0.36041740275714546,0.7367423495464026
1733851307895681500,2.326681640625,-1.1348813975304364,-0.39661764710303393,0.749748619179055
1733851307905650700,2.336650634765625,-1.5240420431584119,-0.245051267237775,0.38090149745717644
1733851307915618600,2.34661865234375,-1.6097861436784267,-0.24004556790497153,0.009172317492961882
1733851307925587700,2.356587646484375,-1.5802935072124003,-0.10001147612966596,0.012603534050658345
1733851307935555600,2.3665556640625,-1.4319114564716815,0.04621624612137675,0.175627127475664
1733851307945524700,2.376524658203125,-1.4349848725676535,0.161393434939906,0.12224610429145395
1733851307955492600,2.38649267578125,-1.6740315290957688,0.12275036401916295,0.08801255690865219
1733851307965461800,2.396461669921875,-1.8146499600976704,-0.10811788142416626,-0.011993000936880707
1733851307975430700,2.4064306640625,-1.939537153482437,-0.46960631094630806,-0.5785699955448508
1733851307985398800,2.416398681640625,-2.232829779461026,-0.2050297841032967,-0.43770095078274607
1733851307995367700,2.42636767578125,-2.5091426290661096,0.2943520353710279,0.08292089632544666
1733851308005335800,2.436335693359375,-2.753317880654335,0.729633248193562,0.5001377889407799
1733851308015304700,2.4463046875,-2.8781577277660366,0.8479667090859264,0.7364141405053436
1733851308025272600,2.4562724609375,-3.1535178066909313,0.5982329465877264,0.7559839333720505
1733851308035241700,2.46624169921875,-3.202808784082532,0.30481578091401607,0.6476080220662057
1733851308045209600,2.476209716796875,-3.0456402002960443,-0.021314006185531614,0.5118216873958706
1733851308055178800,2.4861787109375,-2.9406419487297533,-0.2679892944285646,0.3718448422331363
1733851308065147600,2.496147705078125,-2.8877123225748536,-0.143952580393292,0.35554873727485536
1733851308075115800,2.50611572265625,-2.7523563421458004,0.04355517368596047,0.15191544903125612
1733851308085084700,2.516084716796875,-2.5400924786031243,0.10460848506372421,-0.14538732590414583
1733851308095052800,2.526052734375,-2.4831799202919003,0.12484262359067796,-0.4138110296946019
1733851308105021700,2.536021728515625,-2.2888708156347275,0.13515432037711142,-0.6455003822624683
1733851308114989800,2.54598974609375,-1.962719291627407,0.033682306708209216,-0.9076211865164339
1733851308124958700,2.555958740234375,-1.8130466165542602,-0.037393290055356916,-1.092173597921431
1733851308134928000,2.565927978515625,-1.6268027449309825,0.02842643200661987,-1.2604109804719685
1733851308144895700,2.575895751953125,-1.297915658479929,0.1276484017264098,-1.4441260642699896
1733851308154865000,2.585864990234375,-1.0875029757618904,0.29455347622726114,-1.5825195126987992
1733851308164832500,2.59583251953125,-1.0155775572359562,0.4609006976496428,-1.5373033835306762
1733851308174801700,2.6058017578125,-1.1120149012058973,0.5462934639813378,-1.3692194379761815
1733851308184769500,2.61576953125,-1.08483697142303,0.544589107748866,-1.2869745777487753
1733851308194738700,2.62573876953125,-1.082264490586519,0.5415994974788279,-1.2757307146787642
1733851308204707600,2.63570751953125,-1.2419868505090474,0.5303066441679373,-1.5227356367349625
1733851308214675700,2.64567578125,-1.354876147586107,0.44539939633086323,-1.7897768001258372
1733851308224644600,2.65564453125,-1.3248960198640822,0.24790000773239879,-2.0853592906072733
1733851308234612700,2.66561279296875,-1.20526017113626,0.10218765112496912,-2.200561540801823
1733851308244581600,2.67558154296875,-0.9935925199210643,-0.00017963088322430848,-2.1984657375663517
1733851308254549800,2.6855498046875,-0.8099445100098848,-0.03143511230330914,-2.1109093269273638
1733851308264518700,2.6955185546875,-0.8286229069948196,-0.00846588625665754,-1.9236761520057915
1733851308274487800,2.70548779296875,-0.9328197790503502,0.031151655719429253,-1.6746341711640358
1733851308284455700,2.71545556640625,-0.9287544293075799,0.14000208920184523,-1.5585218203872442
1733851308294424800,2.7254248046875,-0.8381365852713585,0.12284297420606016,-1.6516466788083315
1733851308304392700,2.735392822265625,-0.7439595874488353,0.0741173025470227,-1.7672510800629853
1733851308314361900,2.74536181640625,-0.698981797081232,0.19156232669968157,-1.90057175527215
1733851308324329700,2.755329833984375,-0.9057043931096792,0.25162147594094275,-1.9822130966484546
1733851308334298600,2.765298583984375,-0.8441331953376531,0.08532843239121139,-2.0484914491981265
1733851308344267500,2.775267578125,-0.6692085901081561,-0.06297580387294292,-2.186326386961341
1733851308354235600,2.785235595703125,-0.4594155005931854,-0.1764823195328936,-2.3050761005043983
1733851308364204500,2.79520458984375,-0.1775982083529234,-0.2844813603503629,-2.357608251774311
1733851308374172700,2.805172607421875,0.009158288967609405,-0.33122524707503614,-2.1429308973491192
1733851308384141600,2.8151416015625,0.021132804399728772,-0.23209811603184788,-1.8078110539883374
1733851308394109700,2.825109619140625,0.11777239294350146,-0.126046282025706,-1.5966636272549628
1733851308404078800,2.835078857421875,0.15466098487973212,-0.004232577802147716,-1.470928292608261
1733851308414047700,2.8450478515625,0.08991934037804603,0.13424975448651238,-1.3752286152631044
1733851308424016000,2.855015869140625,0.060283496049046516,0.1493761763446033,-1.306430973368883
1733851308433984800,2.86498486328125,0.11149170523881911,0.09619759866362437,-1.389332543939352
1733851308443953000,2.874952880859375,0.11130115110278128,0.06036579490448348,-1.454756910008192
1733851308453921800,2.884921875,0.14520108261704445,0.020984043578803537,-1.3809610214352608
1733851308463889700,2.8948896484375,0.15774550689160824,-0.018846510960301384,-1.3332576054960488
1733851308473858600,2.904858642578125,0.215503283855319,-0.07367582412352786,-1.3053010925561188
1733851308483826700,2.91482666015625,0.1968693105340004,-0.09310029023541137,-1.1775129170328378
1733851308493795600,2.924795654296875,0.19211831661462783,-0.0871357740741223,-0.8900006280213594
1733851308503764700,2.9347646484375,0.1352270933523774,0.07310317533472553,-0.6695254009723663
1733851308513732600,2.944732666015625,0.08322188856601714,0.19182894174661486,-0.7383487618297339
1733851308523701800,2.95470166015625,0.07349544432163238,0.22524353742934763,-0.774902422723174
1733851308533669600,2.964669677734375,0.16690204229354857,0.176814474096708,-0.7277168931782245
1733851308543638800,2.974638671875,0.13788725247234104,0.0845248061244376,-0.7730068182349205
1733851308553606700,2.984606689453125,0.1745031649470329,-0.09859441240597516,-0.8611924666881561
1733851308563575800,2.994575927734375,0.3091515816286206,-0.2792868787134997,-0.9025894759595393
1733851308573544700,3.004544677734375,0.4180287204548716,-0.30569758698353544,-0.925498057860136
1733851308583512800,3.014512939453125,0.6032365270286798,-0.24218656198903918,-0.9437947620511055
1733851308593481700,3.024481689453125,0.7351885442331433,-0.08354947655256838,-0.9367629637181758
1733851308603449600,3.03444970703125,0.8684519362971186,-0.025101434036064893,-0.9590034370988607
1733851308613418500,3.04441845703125,0.9478048744753003,-0.13247222341997547,-1.1789888348042965
1733851308623386600,3.05438671875,1.1655044993311166,-0.21044466702518982,-1.2190355985105037
1733851308633355500,3.06435546875,1.3301865274876354,-0.30445593462567777,-1.1855290502279996
1733851308643324700,3.07432470703125,1.5147399618059396,-0.46159306382797655,-1.2069833416670561
1733851308653292500,3.08429248046875,1.617924441948533,-0.5420209742939099,-1.3477695304512978
1733851308663261700,3.09426171875,1.7706585504189132,-0.47323553429413584,-1.5004805503070353
1733851308673229600,3.1042294921875,1.9704267972648142,-0.3938010187797248,-1.5924404566019772
1733851308683198700,3.11419873046875,2.0905998216092585,-0.25460768867749717,-1.508234233173728
1733851308693166800,3.124166748046875,2.2115770019434393,-0.25060470011383296,-1.4447300215125083
1733851308703135700,3.1341357421875,2.3455086486577987,-0.4482032017052173,-1.458889479768276
1733851308713104600,3.144104736328125,2.386208323314786,-0.6542774168275296,-1.4202531673818826
1733851308723072800,3.15407275390625,2.488669165357947,-0.7128171379491687,-1.3679074785947798
1733851308733041700,3.164041748046875,2.673791923996806,-0.5741819897189736,-1.3515800286501645
1733851308743009800,3.174009765625,2.8407611863076685,-0.3348884092250839,-1.2579507278382778
1733851308752978700,3.183978759765625,2.8640611056134104,-0.14765578229278326,-1.221646073269844
1733851308762946600,3.193946533203125,2.9276538723409176,-0.12470113276075571,-1.4426041153997182
1733851308772915700,3.203915771484375,2.968681463778019,-0.12194953249767422,-1.677128910589218
1733851308782884600,3.213884521484375,2.8828017541795967,-0.14344978197030722,-1.8506530013710258
1733851308792852700,3.223852783203125,2.8767192193955182,-0.19655706624705344,-1.8843547799646854
1733851308802821600,3.233821533203125,2.934071922689676,-0.32955154170915485,-1.79062961756289
1733851308812789800,3.243789794921875,2.8657693708360195,-0.46324298645947126,-1.7087381008177995
1733851308822758700,3.253758544921875,2.8222902945935724,-0.5536053213646636,-1.5522528231203556
1733851308832726800,3.263726806640625,2.692253463360667,-0.6061152608027681,-1.3978221398651598
1733851308842695700,3.27369580078125,2.4304765041083094,-0.5652089941903948,-1.2093904028087854
1733851308852664800,3.283664794921875,2.2209511256188152,-0.46509588431715965,-1.04749946667552
1733851308862632700,3.2936328125,2.0366805998951194,-0.29362945671752094,-0.7851280486613511
1733851308872601900,3.303601806640625,1.8281683439709244,-0.23558409498408436,-0.5801046577662229
1733851308882569700,3.31356982421875,1.6421781548477707,-0.2422707879400812,-0.46647477145493027
1733851308892539000,3.323538818359375,1.4174511155731975,-0.23446639779945835,-0.3181125944584608
1733851308902506800,3.3335068359375,1.3142290798991918,-0.24124814862776547,-0.21660861474871634
1733851308912476000,3.343475830078125,1.3436907367050648,-0.24720137621005997,-0.1737199056148529
1733851308922444800,3.35344482421875,1.4045610927313565,-0.23775546594010666,-0.180991357922554
1733851308932413000,3.363412841796875,1.3859813338153064,-0.24566762730414046,-0.25886720928549767
1733851308942381800,3.3733818359375,1.4100836555451153,-0.30222419351823626,-0.40057168195843695
1733851308952349700,3.383349609375,1.4687766675323246,-0.3826045750480145,-0.5954997952967882
1733851308962318800,3.39331884765625,1.4226041144222021,-0.4066365714879706,-0.8171598482161759
1733851308972286700,3.40328662109375,1.3543760891094803,-0.3558527982553467,-0.8877320985674858
1733851308982255600,3.413255615234375,1.3930004187971352,-0.3192391873355955,-0.975759926110506
1733851308992224800,3.423224853515625,1.4142688322752712,-0.2234463152816519,-1.0322925451934337
1733851309002192600,3.433192626953125,1.3973752728804945,-0.1458201095645316,-1.008268695527315
1733851309012161800,3.443161865234375,1.3935048611879348,-0.17267958451537416,-0.9288058672338724
1733851309022129700,3.453129638671875,1.4459008188575506,-0.31779052289724347,-0.9535814120501279
1733851309032098800,3.463098876953125,1.4997832156926392,-0.444186330746673,-1.0483803411632775
1733851309042066700,3.473066650390625,1.368230134677887,-0.5794885716944933,-1.1214023227542638
1733851309052035800,3.483035888671875,1.24316670794338,-0.6869356046523899,-1.2108178052634
1733851309062004700,3.493004638671875,1.2101596336156129,-0.7449640152510255,-1.2859919964522122
1733851309071972900,3.502972900390625,1.2496037552535533,-0.7766496317166834,-1.2917360930621624
1733851309081941800,3.512941650390625,1.2712448014363646,-0.7183067483413964,-1.2624684975236653
1733851309091910000,3.522909912109375,1.3732757276296614,-0.5667342309962958,-1.1840654074162245
1733851309101878800,3.532878662109375,1.4297294362574815,-0.34958752731550485,-1.1533464440256356
1733851309111846700,3.5428466796875,1.4462565004274248,-0.1399068121338263,-1.0945564014047384
1733851309121815800,3.55281591796875,1.4201257416099309,-0.04353776589343324,-0.9815700736939906
1733851309131784700,3.56278466796875,1.3661468986630438,-0.010321816321648657,-0.9532207620441913
1733851309141752800,3.5727529296875,1.1683861922472714,-0.108520160348434,-1.0560983681946992
1733851309151721700,3.5827216796875,0.8324550325036049,-0.3149598295159638,-1.079970826691389
1733851309161689900,3.59268994140625,0.5884504613071679,-0.49919163066446776,-1.0294921008199454
1733851309171658800,3.60265869140625,0.5226899951517582,-0.6671013156305998,-1.0192413404405116
1733851309181627000,3.612626953125,0.4769271918863058,-0.7343737207189202,-0.9945423679918051
1733851309191595800,3.622595703125,0.47347325204014773,-0.6667473145611584,-0.8394833237051963
1733851309201564700,3.632564697265625,0.4668623094677925,-0.5559295630611479,-0.7025485496520996
1733851309211532800,3.64253271484375,0.4771411268979311,-0.4444209066875279,-0.6087146661788225
1733851309221502000,3.652501953125,0.49790451346337794,-0.43946408799774944,-0.5672036751389503
1733851309231469800,3.6624697265625,0.4118003474593162,-0.42166276610828934,-0.5985001461565495
1733851309241439000,3.67243896484375,0.31922143248319623,-0.322656229237467,-0.7576303854048252
1733851309251406600,3.682406494140625,0.2245359006166458,-0.3943430167019367,-0.9297703283518552
1733851309261375700,3.692375732421875,-0.037730887979269025,-0.38578736980259415,-1.0540630629748104
1733851309271344600,3.7023447265625,-0.42779871158003807,-0.1575968191359192,-1.0660264724910258
1733851309281312800,3.712312744140625,-0.7964122437417507,-0.03493290042434819,-0.9279735080629586
1733851309291281700,3.72228173828125,-0.9951432564944028,0.06446537571041844,-0.6431698934882879
1733851309301249800,3.732249755859375,-1.1636626708567142,0.15475980561170727,-0.35368542762100696
1733851309311218700,3.74221875,-1.1500929951876402,0.0611233718061354,-0.1292003804087639
1733851309321186800,3.752186767578125,-1.0322019443005324,-0.12167007623547688,0.04601356315612793
1733851309331155700,3.76215576171875,-1.0200766222208737,0.10234698813883587,0.00018996961414813993
1733851309341124900,3.772124755859375,-1.096302368289232,0.8360318680770694,-0.36440322099030015
1733851309351092700,3.7820927734375,-1.192865384465456,1.420219703503698,-0.8102525530457496
1733851309361062000,3.792061767578125,-1.2936106547623871,1.5726229725845158,-1.0041296960264443
1733851309371029800,3.80202978515625,-1.331644325080514,1.2777905698180199,-1.0872066231638193
1733851309380999000,3.8119990234375,-1.2800573457062243,0.7479096402488649,-1.0007184262782334
1733851309390966800,3.821966796875,-1.2295318580836057,0.18017087185252456,-0.9055962565600871
1733851309400936000,3.83193603515625,-1.0906576404005288,-0.20172307070810347,-0.8620248258590698
1733851309410904800,3.84190478515625,-0.9155085787653923,-0.31187844930924474,-0.7970026108503341
1733851309420872700,3.851872802734375,-0.726751847538352,-0.2549696538576856,-0.7019935461178421
1733851309430841600,3.861841552734375,-0.4986211373001337,-0.05159773823032155,-0.5799111810207367
1733851309440809700,3.871809814453125,-0.2690349675565958,0.2992132299329154,-0.4838914779409766
1733851309450778600,3.881778564453125,-0.07444061621725559,0.46183410604223607,-0.561247397083044
1733851309460746800,3.891746826171875,0.06283084244430065,0.42228327262680976,-0.6978478246152401
1733851309470715600,3.901715576171875,0.07182429623901844,0.4318515671674162,-0.8986135580658912
1733851309480684800,3.911684814453125,-0.027007833912968633,0.3688859558949247,-1.1095002880364655
1733851309490652700,3.921652587890625,-0.19726795446276663,0.3918082740599289,-1.2156906719967722
1733851309500621800,3.931621826171875,-0.358030763348937,0.580171950848773,-1.150660273681581
1733851309510590000,3.94158984375,-0.5751929203271865,0.773627361286059,-1.038953756648302
1733851309520558800,3.951558837890625,-0.6678016459196806,0.6970404537551105,-1.035889692902565
1733851309530527000,3.96152685546875,-0.6606470979899167,0.28958407205054537,-1.1773264545500277
1733851309540496000,3.971495849609375,-0.742736767655611,-0.02469009502250701,-1.284077833393961
1733851309550464800,3.98146484375,-0.9184919784903526,-0.057224345940444614,-1.2855455678589642
1733851309560432600,3.9914326171875,-1.0343518158107996,-0.012266411050781608,-1.1752459950141607
1733851309570401800,4.00140185546875,-1.1614824042081833,0.046359271321259436,-0.9659604166299104
1733851309580369700,4.01136962890625,-1.2216811445832252,0.15320022814478723,-0.7505834625679999
1733851309590338800,4.0213388671875,-1.1189777259558438,0.13050905185453593,-0.7233156625445931
1733851309600307700,4.0313076171875,-0.7802899609804153,-0.17681138709047808,-0.7474173266872763
1733851309610275800,4.04127587890625,-0.5521089818596839,-0.7792776421327143,-0.7422390472665429
1733851309620244700,4.05124462890625,-0.7997352506846189,-0.7063904659025371,-0.6914233445256948
1733851309630212900,4.061212890625,-0.7958850049972533,-0.18539823284568263,-0.7096514404598623
1733851309640181800,4.071181640625,-0.6745265702605248,0.10983053056094795,-0.8808600939061492
1733851309650150000,4.08114990234375,-0.7811305034577846,0.25256228218870236,-1.0167880290042608
1733851309660118800,4.091118896484375,-0.8597562964051961,0.17714381564892828,-1.04856000857912
1733851309670088000,4.101087890625,-0.8440385027915239,-0.0030689225839450954,-0.958711030023545
1733851309680055800,4.111055908203125,-1.1194880135655403,-0.23983756944378837,-0.7207602059081196
1733851309690025000,4.12102490234375,-2.152929728794098,-0.43666444734185933,0.40512861461043354
1733851309699992800,4.130992919921875,-2.4257062209665774,-0.9338569400783627,1.9780036622598767
1733851309709962000,4.1409619140625,-2.027403068462014,-1.6831582538813352,2.2952453191027042
1733851309719929600,4.1509296875,-9.12139102332294,1.5574549218080938,3.8392835638463496
1733851309729898800,4.160898681640625,-9.37458310958147,1.5442375667080281,0.6243593214910477
1733851309739867600,4.17086767578125,-6.53535337062478,-0.6834824685238301,-2.4383942914955314
1733851309749835800,4.180835693359375,-4.6307092513471835,1.3620207586437463,-0.5548511932399124
1733851309759804700,4.1908046875,-2.0163614499658347,0.688432857472822,0.8426523091301321
1733851309769772800,4.200772705078125,-0.6240753169178962,0.34895715699009594,1.3048733686633407
1733851309779741700,4.21074169921875,0.33142449597418305,0.039257878350839014,1.3181123510733246
1733851309789709800,4.220709716796875,0.7709510547488927,0.007616155825834721,0.5353074481299147
1733851309799678700,4.2306787109375,0.40676761398911476,0.2805250604726374,-0.7116805351346731
1733851309809647900,4.24064794921875,-0.5097890125244856,0.2556709339948371,-1.5455571248739957
1733851309819615700,4.25061572265625,-1.4048387406289577,-0.3751097623132169,-2.547488434073329
1733851309829585000,4.2605849609375,-2.04783269302845,-0.7083821511764079,-2.768064491148293
1733851309839552800,4.270552734375,-2.2772668870806694,-1.0850170772302896,-2.8834231009483338
1733851309849522000,4.28052197265625,-2.304330250573158,-1.28216367033571,-2.2551155532881615
1733851309859489800,4.29048974609375,-2.2512176690667864,-1.2372773576438427,-1.0961821759756654
1733851309869458700,4.300458740234375,-2.315557747030258,-1.1039450650621205,0.04457388574182987
1733851309879427600,4.310427490234375,-2.422217794328928,-0.552087866006419,1.4125377706989646
1733851309889395700,4.320395751953125,-2.557473821514845,0.22566227429807184,2.422274785213172
1733851309899364600,4.330364501953125,-2.89051685860157,0.9449665092442184,3.1111677344784137
1733851309909332700,4.340332763671875,-3.165543760049343,1.3290858727693557,3.032406332452595
1733851309919301600,4.350301513671875,-3.3890485640525814,1.3362623402699827,2.0761599389769136
1733851309929269800,4.360269775390625,-3.312821064418554,0.9355482541661709,0.8706237273782491
1733851309939239000,4.370239013671875,-3.037617637360096,0.46290122381709514,-0.22064842819143085
1733851309949207800,4.380207763671875,-2.8566099128246307,0.09980466497857123,-0.9834243232585489
1733851309959176000,4.390176025390625,-2.644834125059843,-0.141360572872404,-1.5675854168087242
1733851309969144800,4.400144775390625,-2.355195345413685,-0.16088928481005133,-1.950320997825265
1733851309979113000,4.410113037109375,-2.0269547401726244,-0.045321333975112066,-1.9394635037243364
1733851309989081900,4.420081787109375,-1.7538275348663328,0.17988388987099752,-1.617292281524837
1733851309999050800,4.43005078125,-1.5433271738648413,0.43500842376314103,-1.1615334037430585
1733851310009018600,4.4400185546875,-1.3717664921104906,0.6044127312012016,-0.9310689898602664
1733851310018987800,4.44998779296875,-1.1693062297016381,0.5801172249868511,-0.9505947974547744
1733851310028955600,4.45995556640625,-0.9979600674808025,0.5838755546070635,-1.0172180179193615
1733851310038924800,4.4699248046875,-0.812935508519411,0.5054654867695644,-1.2764178201600909
1733851310048892700,4.479892578125,-0.6156786599725484,0.48167212139107285,-1.6428741742879152
1733851310058861800,4.48986181640625,-0.43694472558796404,0.48370468666460364,-1.9176853871583937
1733851310068830700,4.499830810546875,-0.2641027718514204,0.4407318794438615,-2.008535286384821
1733851310078798800,4.509798828125,-0.09013093730211258,0.3583215629890561,-1.891714787338674
1733851310088767700,4.519767822265625,-0.07678630256056786,0.362511233231239,-1.7030457343950867
1733851310098735900,4.52973583984375,-0.11104279242753982,0.36997144957669076,-1.5786764274045824
1733851310108704800,4.539704833984375,-0.1479874984651804,0.3628128099936992,-1.4607131880640982
1733851310118673000,4.5496728515625,-0.21749299636781214,0.3189023931292817,-1.397607620331645
1733851310128641800,4.559641845703125,-0.30316344712972637,0.2515816005882807,-1.445444891783595
1733851310138611000,4.56961083984375,-0.36514907092154025,0.33637419080343095,-1.4565169054180382
1733851310148578800,4.579578857421875,-0.43920507173538204,0.41640725673288104,-1.6569792720079421
1733851310158548000,4.5895478515625,-0.39761633928418155,0.35427608699053525,-1.875472385329008
1733851310168515600,4.599515625,-0.36575171298980713,0.23811516609797254,-1.9747890841275453
1733851310178484700,4.609484619140625,-0.25260464175939557,0.1758019360532984,-1.9071908811509608
1733851310188452600,4.61945263671875,-0.12988193293213843,0.12183235412510111,-1.7541420076429843
1733851310198421800,4.629421875,0.012186112356185913,0.10205023368196561,-1.5226736774146556
1733851310208390700,4.639390625,0.09916823023855685,0.17108190352777017,-1.293034900701046
1733851310218358800,4.64935888671875,0.1930254945874214,0.29085851243315264,-1.1548422355413437
1733851310228327700,4.65932763671875,0.1957481975495815,0.43621502307392657,-1.013506011658907
1733851310238295800,4.6692958984375,0.1918050128817558,0.5181656495951116,-0.8306868537873029
1733851310248264700,4.6792646484375,0.27233926979899403,0.4291992260277271,-0.9106254828989505
1733851310258232800,4.68923291015625,0.35347266165316105,0.4410604172784835,-1.089572183251381
1733851310268201700,4.69920166015625,0.5864695166230202,0.4605637573128566,-1.197581891593337
1733851310278171000,4.7091708984375,0.7854764237076044,0.47162484769448637,-1.2651596363037825
1733851310288138800,4.719138671875,0.882671892568469,0.48114510184228415,-1.2280407427430151
1733851310298108000,4.72910791015625,0.8488888654321431,0.4590732630267739,-1.1886743625164031
1733851310308075800,4.73907568359375,0.8433522740930318,0.5082146758798509,-1.068749175453186
1733851310318044700,4.749044677734375,0.8116156580924987,0.3704361079463735,-1.0392571235090493
1733851310328013800,4.759013916015625,0.7242331427156925,0.2367195470211096,-0.9387965153723955
1733851310337981700,4.768981689453125,0.6121031395733356,0.09786167768463491,-0.8111924642443656
1733851310347950600,4.77895068359375,0.40849721426069735,-0.035596031375043094,-0.8809101435929536
1733851310357918700,4.788918701171875,0.373133639934659,-0.24890768693760035,-0.9294429960936308
1733851310367887600,4.7988876953125,0.3998667485594749,-0.2857626871314831,-0.8445762629300355
1733851310377855700,4.808855712890625,0.33260055401623245,-0.19354476922117173,-0.7224456747770309
1733851310387825000,4.818824951171875,0.2455190674126148,-0.1930473228267394,-0.46872985690534114
1733851310397793800,4.828793701171875,0.002775309932231903,-0.0600692413770128,-0.11014496680498123
1733851310407762000,4.838761962890625,-0.25229952133297917,0.005706787673709914,-0.07738602201938628
1733851310417730800,4.848730712890625,-0.4201107874259352,-0.01981039668954909,-0.34832243928313256
1733851310427699000,4.858698974609375,-0.5295525743976235,0.10959628341365604,-0.5668383489578962
1733851310437667800,4.868667724609375,-0.7376882520943879,0.09419162913607433,-0.6678004768759012
1733851310447636000,4.878635986328125,-0.8644476690918207,-0.06694331013127229,-0.6112205115199089
1733851310457604900,4.88860498046875,-0.7804980507731437,-0.3719308765487745,-0.48558045394122595
1733851310467573800,4.89857373046875,-0.6063499828740954,-0.6053301383070647,-0.2674041514843702
1733851310477541600,4.908541748046875,-0.47812663080394263,-0.7011894631933421,-0.09417173712551594
1733851310487510800,4.9185107421875,-0.452013992165029,-0.606296133795008,0.08553893333673476
1733851310497478700,4.928478759765625,-0.5549743081629276,-0.30494967295937236,0.08408990357220172
1733851310507447800,4.93844775390625,-0.5789455508589745,-0.009828014055872336,-0.18294190746843814
1733851310517415700,4.948415771484375,-0.5197489732638001,0.18814994270661844,-0.4620733216255903
1733851310527384800,4.958384765625,-0.5716203225374221,0.2570015980767086,-0.5961369241565465
1733851310537353700,4.968353759765625,-0.5371867225378751,0.15473107270756736,-0.7000777756243943
1733851310547321900,4.97832177734375,-0.3198141376793384,-0.040032461186219004,-0.8284668396502732
1733851310557290800,4.988290771484375,0.02081920840591192,-0.2946555848948657,-0.9027548956543207
1733851310567259000,4.9982587890625,0.2850340623296797,-0.5445977294467389,-0.9239934985160827
1733851310577227800,5.008227783203125,0.6117572487451136,-0.7626946830570698,-1.0353677148550748
1733851310587196000,5.01819580078125,0.8176574224747717,-0.8347619942717254,-1.1698469124495983
1733851310597164800,5.028164794921875,0.9137526750087738,-0.7734366610195488,-1.1728490168750285
1733851310607134000,5.038134033203125,1.0602708315737546,-0.6942419821429997,-1.1988906361043452
1733851310617101600,5.0481015625,1.2577888152748347,-0.6529064938005059,-1.365878018593788
1733851310627070700,5.05807080078125,1.433196381715685,-0.5264411643788218,-1.570778659892082
1733851310637038600,5.06803857421875,1.6720260344922542,-0.4489095964089036,-1.6786159342765807
1733851310647007700,5.0780078125,1.8960377651043234,-0.3964261065863073,-1.7604542595297097
1733851310656976600,5.0879765625,2.0820314613588153,-0.39812976869903505,-1.878674396240711
1733851310666944800,5.09794482421875,2.281776473459601,-0.4860005790494382,-2.01845812998414
1733851310676913700,5.10791357421875,2.529679221138358,-0.6997347343403846,-2.172679554402828
1733851310686881800,5.1178818359375,2.7352491400003434,-0.9648252020549029,-2.305712644842267
1733851310696850700,5.1278505859375,2.847383234795928,-1.1832415238127112,-2.3523592452049256
1733851310706818800,5.13781884765625,2.891605822882056,-1.3965177792683243,-2.34606569801867
1733851310716787700,5.14778759765625,2.8267642251372336,-1.3988278097763658,-2.2135955021589995
1733851310726756900,5.1577568359375,2.789960973396897,-1.1531049634199588,-2.040509218272567
1733851310736724700,5.167724853515625,2.780585826808214,-0.8890812481541186,-1.86526721765697
1733851310746694000,5.17769384765625,2.6207512386828657,-0.551229057219997,-1.6807967854470014
1733851310756662000,5.187662109375,2.4545348405659198,-0.28959380799327045,-1.5779297006905078
1733851310766631000,5.197630859375,2.244856755732745,-0.22830588414203373,-1.475553614321351
1733851310776598800,5.207598876953125,2.0282079551041123,-0.27222495923694223,-1.3812375002890824
1733851310786567700,5.217567626953125,1.8895675461769104,-0.43958387845251706,-1.2989853335380555
1733851310796536600,5.22753662109375,1.7281642474301158,-0.6955072528384626,-1.2609236061692237
1733851310806504700,5.237504638671875,1.6720993919894098,-0.9088228173911571,-1.2431816132515667
1733851310816473600,5.2474736328125,1.6305273184120654,-0.9587423019446432,-1.1955927636027335
1733851310826441700,5.257441650390625,1.6200598465420304,-0.8480726536784321,-1.151076161006093
1733851310836411000,5.267410888671875,1.5159296099819242,-0.6168661892566829,-1.0020686718434095
1733851310846378800,5.277378662109375,1.3642929413594305,-0.35255255113355816,-0.7038298216342925
1733851310856348000,5.287347900390625,1.317015203486383,-0.2113580007441342,-0.5315531005650759
1733851310866316800,5.29731689453125,1.2485833261646329,-0.22622365277418865,-0.5317249500006437
1733851310876285000,5.307284912109375,1.1278104362308978,-0.32512780698277055,-0.561081392866373
1733851310886254000,5.317254150390625,1.0027394107118248,-0.4830460400927812,-0.6033756432384252
1733851310896222200,5.32722216796875,0.8454758421182632,-0.6727243431441485,-0.6148679281115531
1733851310906191000,5.337191162109375,0.6888219298556446,-0.8415604953054339,-0.626552520686388
1733851310916160000,5.347159912109375,0.5211848512858152,-0.9825978093065321,-0.5143775093585252
1733851310926127900,5.3571279296875,0.36567981679737566,-1.0641470884852111,-0.4440718009889126
1733851310936097000,5.367096923828125,0.31037264785617585,-1.0690118449773638,-0.4557669149577617
1733851310946065000,5.37706494140625,0.32419629828631874,-0.917568872296065,-0.40862464003264903
1733851310956034000,5.387033935546875,0.3088660426855087,-0.8499148474790156,-0.3600818506598472
1733851310966002000,5.397001953125,0.33340397935360666,-0.8153593746654689,-0.24363632240593433
1733851310975971000,5.40697119140625,0.3969759955540299,-0.8445524436630308,-0.19601707761883735
1733851310985940000,5.41693994140625,0.39212241804301734,-0.7845124009810388,-0.17745675405561923
1733851310995908000,5.426908203125,0.3503840479880571,-0.7697460628733038,-0.38991117173433304
1733851311005877000,5.436876953125,0.2739654096961021,-0.869235999346897,-0.6495119559913873
1733851311015845000,5.44684521484375,0.17346037789583205,-0.8999792203959077,-0.811387694555521
1733851311025814000,5.45681396484375,0.13921470168381928,-0.9564292757619172,-0.9628887540996074
1733851311035782100,5.4667822265625,0.18245909238755703,-0.986219799195975,-0.9522796818017959
1733851311045751000,5.4767509765625,0.29382191054970025,-0.9496430496878921,-0.7017448320537805
1733851311055720200,5.48672021484375,0.3678483930081129,-1.008099914831668,-0.3225035228937864
1733851311065688000,5.49668798828125,0.5063035084962845,-1.0965347888056187,0.008205518287420272
1733851311075657200,5.5066572265625,0.6541407848358154,-1.1794289797872304,0.04112871372401714
1733851311085624800,5.516624755859375,0.6241232477128505,-1.1987448709581046,-0.08232114033401013
1733851311095594000,5.526593994140625,0.5806885951340198,-0.9808099760416894,-0.11984101591110229
1733851311105561900,5.536561767578125,0.5331067597478628,-0.5021280494425445,-0.15594459494948387
1733851311115531000,5.546531005859375,0.5661702404379845,0.056570804802002383,-0.34251989048421383
1733851311125500000,5.5565,0.6299304726868867,0.7059127653881907,-0.46479836267530916
1733851311135468000,5.566468017578125,0.5848503909885883,1.2212614578664303,-0.4488245484739542
1733851311145437000,5.57643701171875,0.564727640414238,1.758548864299804,-0.42963177222609517
1733851311155405000,5.586405029296875,0.6557125641971826,1.7279349687188863,-0.898968362852931
1733851311165374000,5.5963740234375,0.3561842586994171,0.3185548218006268,-1.3463392053872345
1733851311175343000,5.606343017578125,0.14200199431478977,-0.7071267442878335,-0.6441612426131963
1733851311185311000,5.61631103515625,0.18887948082387446,-1.668770685958117,0.12111001293361186
1733851311195280100,5.626280029296875,0.07311725865900516,-1.3878158557660878,0.5181804087728261
1733851311205248000,5.636248046875,-0.013626374292373657,-0.1417598561219871,0.5114513927787542
1733851311215217200,5.646217041015625,-0.11477905634641647,0.7906449123866855,0.09147475312650204
1733851311225185000,5.65618505859375,-0.05273088871240616,1.0969807790074497,-0.3015069120943546
1733851311235154000,5.66615380859375,0.08023848884105682,0.8684643573872745,-0.3816501238673925
1733851311245122800,5.676122802734375,0.11090542978346347,0.39661322665624316,-0.4270172058135271
1733851311255091000,5.686091064453125,-0.132158061170578,0.12363233448546379,-0.4471598301321268
1733851311265059800,5.696059814453125,-0.23751813178658485,0.049825659657036885,-0.4056231201291084
1733851311275028000,5.706028076171875,-0.052720367318391796,-0.013964830732811242,-0.3383727076768875
1733851311284996900,5.715996826171875,0.052768298113346095,0.010921608845703304,-0.4421744429349899
1733851311294965000,5.725965087890625,0.04357318426668644,0.27547501054145396,-0.7040683065652847
1733851311304934100,5.73593408203125,-0.08748363766372204,0.6903357684846967,-1.043998765078187
1733851311314903000,5.745903076171875,-0.11110066009461879,1.1016643337137997,-1.282866557908058
1733851311324871200,5.75587109375,-0.175816001111269,1.3930781602084636,-1.3579583315104244
1733851311334840000,5.765840087890625,-0.21602759999036789,1.2288608269542456,-1.3538497271478176
1733851311344808200,5.77580810546875,-0.11482055740058421,0.992599124969542,-1.1372054565638303
1733851311354777000,5.785777099609375,-0.03460544943511486,0.6394263230457902,-0.7985761437773704
1733851311364746000,5.79574609375,-0.01835807898938656,0.467786803901568,-0.6789473093122244
1733851311374714000,5.805714111328125,-0.1892564974427223,0.47930013156272466,-0.9141057262301444
1733851311384683000,5.81568310546875,-0.3781652043610811,0.6719437141604722,-1.0520403249755501
1733851311394651000,5.82565087890625,-0.4243704906970262,1.0125647122208028,-1.012368239800632
1733851311404620000,5.8356201171875,-0.5229436776518821,1.3614923508554697,-0.8841223836377262
1733851311414588000,5.845587890625,-0.39315702178776263,2.151065688487887,-1.2549261193200945
1733851311424557000,5.85555712890625,-0.818571468579769,-0.27132243917295706,-0.9890452318802475
1733851311434526000,5.86552587890625,-1.2039718848913907,0.1006175705303438,-1.2770979113787413
1733851311444494000,5.875494140625,-0.7866343615710735,0.3042693808113225,-0.7589610494866966
1733851311454463000,5.885462890625,-0.4302262309879064,0.064083646383835,-0.6352697878882289
1733851311464431000,5.89543115234375,-0.25859423756301403,0.26108017262723293,-0.445038892455399
1733851311474400000,5.90539990234375,-0.07357669286429881,0.5130050154289231,-0.01978840405344963
1733851311484368100,5.9153681640625,0.11986147417724131,0.7269028003163636,0.15660232820585368
1733851311494337000,5.9253369140625,-0.1294125618547201,0.8505275725498795,-0.15058014530688524
1733851311504306200,5.93530615234375,-0.602999211141467,0.9985447355009615,-0.7354074476808309
1733851311514274000,5.945274169921875,-0.9022183045595884,0.9473970243267714,-1.1748426749102772
1733851311524243200,5.9552431640625,-1.0441472336381674,0.7387611420229077,-1.2743635179787873
1733851311534210800,5.9652109375,-1.154347145500779,0.4356713811838999,-0.9945580039523542
1733851311544180000,5.975179931640625,-1.0249322455585002,0.1688550760574639,-0.4778004675894975
1733851311554148900,5.98514892578125,-0.44094402435719965,0.023406850278936325,-0.14952245294749736
1733851311564117000,5.995116943359375,-0.17816051841080188,-0.000695982907526195,0.03138546447530389
1733851311574086000,6.0050859375,-0.7183440846771001,0.3347251814873889,0.15503244854062795
1733851311584054000,6.015053955078125,-1.09929044418931,0.7541445891156792,0.29372480685077607
1733851311594023000,6.02502294921875,-1.1574386817753315,0.9255600171804428,0.4044133424805477
1733851311603991000,6.034990966796875,-1.1286743595838546,0.8167008524022996,0.42295861460510636
1733851311613960000,6.0449599609375,-2.745932446578145,0.842139683432877,0.8878145161539316
1733851311623929000,6.05492919921875,-6.341629372379184,0.6897786460585892,1.4200937390364705
1733851311633897000,6.06489697265625,-7.774948357561231,0.5625020367866381,1.2274931918628513
1733851311643866000,6.0748662109375,-6.294944193571806,-0.6949263842105865,1.2977609063096345
1733851311653834000,6.084833984375,-6.3533858611464495,-4.122292111697793,-1.4083013021729887
1733851311663803100,6.09480322265625,-7.07012601775825,-2.5940549549371004,-2.037047387380898
1733851311673772000,6.10477197265625,-3.1905373315304515,-1.6866741530478,0.01598147920129122
1733851311683740200,6.114740234375,-0.48169805954992767,-1.1834828582879156,1.130120028347522
1733851311693709000,6.124708984375,0.5189104766130447,-0.787981976787746,1.350848207244277
1733851311703677000,6.134677001953125,0.744350048071146,-0.31040055877640843,0.7399802354890853
1733851311713645800,6.144645751953125,0.9097913701623678,0.23222484768405555,0.11148198756240307
1733851311723614000,6.154614013671875,1.1967471943348647,0.41815099512767046,-1.4666680048152803
1733851311733582800,6.164582763671875,1.0951011758059264,0.31133893560506404,-1.994357123428583
1733851311743552000,6.174552001953125,0.9286714271992444,0.2269398199532181,-1.5994867218516766
1733851311753520000,6.18452001953125,0.8093851225614547,0.22081589371282606,-1.1718741804935038
1733851311763489000,6.194489013671875,0.5973071369796991,0.20179390745460987,-0.8731419207442551
1733851311773457200,6.20445703125,-0.19515432330965995,0.30395686252973975,-0.4080198060072958
1733851311783426000,6.214426025390625,-0.9542910216242074,0.7182811024434864,0.23485791786769403
1733851311793395000,6.22439501953125,-1.32191612727046,0.982466438011825,0.6447387502402067
1733851311803363000,6.234363037109375,-1.8984832585602998,1.0102595770835876,0.6690640670709311
1733851311813332000,6.24433203125,-2.368351179584861,0.8934725419156253,0.5762708517570049
1733851311823300000,6.254300048828125,-2.564381701207161,0.5836006101232022,0.7618940341986715
1733851311833269000,6.26426904296875,-2.5898545806378124,0.32769878998193885,0.8420174452926963
1733851311843236900,6.27423681640625,-2.743039647746086,-0.16546316859684884,1.0351365364477039
1733851311853206000,6.2842060546875,-2.7302432945370674,-0.41875659633800383,1.0682155800331383
1733851311863175000,6.2941748046875,-2.7706097917169332,-0.4080178332459181,1.0235662179023026
1733851311873143000,6.30414306640625,-3.005129326209426,-0.10908384037949144,0.8491773269847035
1733851311883111400,6.314111328125,-3.120050421375036,0.30057065415754913,0.4566363912686705
1733851311893079600,6.32407958984375,-3.092101507219672,0.47291086891703304,0.10463372910283505
1733851311903048400,6.33404833984375,-3.2707594537585973,0.5140985462866723,0.05375614010691642
1733851311913016300,6.344016357421875,-3.4202018272072077,0.4555748995169997,-0.003857479145750403
1733851311922985200,6.353985107421875,-3.435734911903739,0.22899236856885252,-0.33995486230179667
1733851311932954400,6.363954345703125,-3.3341058445096015,0.021446838784962893,-0.6597704612858593
1733851311942922200,6.373922119140625,-3.123949766901135,-0.05553359810821712,-0.8473115331128239
1733851311952891400,6.383891357421875,-2.8767689037561417,0.051185193640366194,-0.9925586468286812
1733851311962859500,6.393859619140625,-2.580885092240572,0.15809205530695616,-1.0734425939664245
1733851311972828400,6.403828369140625,-2.328051317900419,0.23121501305438577,-1.1300624529413879
1733851311982797300,6.41379736328125,-2.051305337575078,0.19169205402657388,-1.0499906989693641
1733851311992765400,6.423765380859375,-1.7904086682885885,0.11896510985940695,-1.107966502597928
1733851312002734300,6.433734375,-1.6861691261351108,-0.015813509073108432,-1.2875909560814498
1733851312012702500,6.443702392578125,-1.6132289776086806,-0.15443426345176994,-1.5303236076459288
1733851312022671400,6.45367138671875,-1.486070332160592,-0.3385970910172909,-1.8242364113494753
1733851312032639500,6.463639404296875,-1.231412849524617,-0.44170434120520946,-1.9721794861510396
1733851312042608400,6.4736083984375,-0.9591215105205774,-0.4001272261265665,-1.984297501707077
1733851312052577500,6.48357763671875,-0.6679594668298959,-0.2741762759678066,-1.9343594585835933
1733851312062545400,6.49354541015625,-0.35917876434028145,-0.1119635605342686,-1.8268252587988971
1733851312072514300,6.503514404296875,-0.1146294187426567,-0.056258441784046584,-1.8106629362881184
1733851312082482400,6.513482421875,0.020514380240440368,-0.1281407152879983,-1.794723024356365
1733851312092451300,6.523451416015625,0.013359247788786888,-0.26578217630572615,-1.936993314218521
1733851312102419500,6.53341943359375,-0.06157061325013637,-0.3674000647187233,-2.202604152545333
1733851312112388400,6.543388427734375,-0.03156476656496525,-0.38370402418989685,-2.2913176242649556
1733851312122357200,6.553357177734375,0.10663257476985454,-0.2907341006021946,-2.1546347791463134
1733851312132325400,6.563325439453125,0.2959142066538334,-0.22484127677138893,-2.0535645146787167
1733851312142294500,6.57329443359375,0.46722003686428065,-0.0583911429638043,-1.972193222415447
1733851312152262400,6.583262451171875,0.5931570315629243,0.16006019530845805,-1.8724053989738225
1733851312162231600,6.5932314453125,0.6479997978627682,0.30310386242959647,-1.8848107070386408
1733851312172199400,6.603199462890625,0.6459902116060257,0.3891130801592022,-1.7264011832803488
1733851312182168600,6.61316845703125,0.6401221963554621,0.3359846069639548,-1.480434372100234
1733851312192137500,6.623137451171875,0.6658440821111202,0.19359187803221867,-1.2572709288805723
1733851312202105600,6.633105712890625,0.6926350584030151,0.06485108709237537,-1.0336679251998662
1733851312212074500,6.643074462890625,0.5874702180981636,-0.02036952840965241,-0.944192821457982
1733851312222042400,6.65304248046875,0.38563188697993755,-0.12654748214664868,-0.9110486767470836
1733851312232011300,6.66301123046875,0.16773381694257258,-0.1677211766567081,-1.0120376926720143
1733851312241980400,6.67298046875,0.12031857029497622,-0.1572487180843018,-1.1231862835615873
1733851312251948300,6.6829482421875,0.01400748256444931,-0.08454507259433157,-1.076557803377509
1733851312261917400,6.69291748046875,-0.16890870594084262,0.056843429464614015,-0.8090612974345683
1733851312271885300,6.70288525390625,-0.42120472014248367,0.23866373989144338,-0.5498883832007646
1733851312281854500,6.7128544921875,-0.575266570085287,0.34550000227354466,-0.2247615260660648
1733851312291822300,6.722822265625,-0.7173743628621101,0.3851285771002993,0.265450094807148
1733851312301791500,6.73279150390625,-1.0189549247145653,0.2737361857837997,0.5016097977221012
1733851312311760400,6.742760498046875,-1.0415589707106352,0.02385490000711288,0.320476985502243
1733851312321728500,6.752728515625,-0.9434399572640657,-0.2656815837417729,-0.13837678955495356
1733851312331697400,6.762697509765625,-0.8979378507614135,-0.4118777966096997,-0.4366618169933557
1733851312341665500,6.77266552734375,-0.9290671485185623,-0.37291086402945217,-0.567681814044714
1733851312351634400,6.782634521484375,-0.854437731730938,-0.2840932560819201,-0.7827823623180389
1733851312361603600,6.792603515625,-0.823086900177598,-0.11719271162571385,-0.9193775291532278
1733851312371571200,6.8025712890625,-0.6694955903559923,-0.031000867338199168,-0.9352665876805781
1733851312381540400,6.812540283203125,-0.5740630395144224,0.0024041750648990273,-0.9839309576064348
1733851312391508200,6.82250830078125,-0.4288502664595842,-0.02375381881939247,-0.974400328195095
1733851312401477400,6.832477294921875,-0.3121642074480653,-0.13838924717772752,-0.9446317973971367
1733851312411445500,6.842445556640625,-0.22777269058078525,-0.3214126589171588,-0.872018981128931
1733851312421414400,6.852414306640625,-0.05863572884202003,-0.4155057047832757,-0.7502016967087983
1733851312431383300,6.86238330078125,0.08287175995409488,-0.44208216154165564,-0.5767781436920165
1733851312441351400,6.872351318359375,0.20151216790378093,-0.3194048992913216,-0.5749538508743047
1733851312451320300,6.8823203125,0.3636103170469403,-0.13617993709780274,-0.7096306168675423
1733851312461288400,6.892288330078125,0.46371465909183024,0.10747867020517587,-0.6597147855758667
1733851312471257300,6.90225732421875,0.5169137498378753,0.3166166933448985,-0.7490963658154011
1733851312481225500,6.9122255859375,0.5571686033368111,0.43418015624545514,-0.9008271424621344
1733851312491194400,6.9221943359375,0.7034498824059963,0.46359085004907097,-1.0814251171529292
1733851312501163500,6.93216357421875,0.7888654816240072,0.37202692080177363,-1.1925760461300612
1733851312511131400,6.94213134765625,0.904209916768223,0.14277202883921564,-1.2659861502557992
1733851312521100500,6.9521005859375,1.0079222201772033,-0.09246372763123363,-1.1996861703962087
1733851312531068400,6.962068359375,0.9312561829954386,-0.22187552230097352,-1.1472644937634466
1733851312541037300,6.972037353515625,1.0085464895553886,-0.3228443722207099,-1.1431640727072954
1733851312551005400,6.98200537109375,1.135097816760093,-0.3285386748721823,-1.2648375647425651
1733851312560974300,6.991974365234375,1.2559499094098805,-0.2202105847634375,-1.339751059168577
1733851312570943200,7.001943115234375,1.3606816189944744,0.08090082520730793,-1.352515263673663
1733851312580911400,7.011911376953125,1.3817115475416182,0.33423261219747363,-1.5146213038623333
1733851312590880500,7.021880615234375,1.3942770146042107,0.4713667082149535,-1.6495301250457763
1733851312600848400,7.031848388671875,1.3902011434674262,0.4604043655000627,-1.6362918732881544
1733851312610817500,7.041817626953125,1.4856377859622238,0.2925503562439233,-1.5243483326286076
1733851312620786400,7.051786376953125,1.690691571995616,0.09388232572488486,-1.4646569572538137
1733851312630754600,7.061754638671875,1.9158651859939098,-0.10193060762397944,-1.4186293655723332
1733851312640723500,7.071723388671875,2.1040525929003953,-0.18168065536096692,-1.4402268648743628
1733851312650691600,7.081691650390625,2.311125317540765,-0.22151567601263522,-1.5644611473083496
1733851312660660500,7.091660400390625,2.4702941352337597,-0.1781357492957264,-1.6285037036299705
1733851312670628400,7.10162841796875,2.665888019004464,-0.11218261011242865,-1.6958885561168193
1733851312680597200,7.11159716796875,2.7556857788294553,-0.07003529393039644,-1.9308786307305097
1733851312690566400,7.12156640625,2.88005391677618,0.005212912342697382,-2.179900737828016
1733851312700534300,7.1315341796875,3.1096371639102696,0.09959021851029247,-2.251526296624541
1733851312710503400,7.14150341796875,3.298364084520936,0.2336150599334389,-2.2033827357023954
1733851312720471300,7.15147119140625,3.41984293076694,0.3696157314741984,-2.1197218711972234
1733851312730440400,7.1614404296875,3.446098485007882,0.45360001924745735,-2.0553543207049367
1733851312740408300,7.171408203125,3.442292078462243,0.3867946836816147,-1.9664742602467535
1733851312750377500,7.18137744140625,3.4793577805310485,0.2569233452087268,-1.8588053281664847
1733851312760346400,7.191346435546875,3.4331747060269113,0.18490443971306084,-1.7953630758255719
1733851312770314500,7.201314453125,3.2773557832837104,0.153866254305467,-1.7116402520000933
1733851312780283400,7.211283447265625,3.1243583477020263,0.14217892178427427,-1.6772095746099949
1733851312790251500,7.22125146484375,2.990382423454523,0.11171565018780528,-1.7781763787031173
1733851312800220400,7.231220458984375,2.8688164834469556,0.07922806968949735,-1.841200697892904
1733851312810188300,7.241188232421875,2.808687301176786,-0.047333157854713495,-1.9308195940196513
1733851312820157200,7.2511572265625,2.6766952442228793,-0.10124554796926677,-1.9638205308675765
1733851312830126300,7.261126220703125,2.509201665776968,-0.06450684936512262,-1.8434692273467779
1733851312840094200,7.27109423828125,2.4029022684842345,0.049413800053671,-1.6437001037180423
1733851312850063400,7.2810634765625,2.2681566750384867,0.1536360622787848,-1.4647101487457752
1733851312860031500,7.291031494140625,2.12157539010942,0.27077786570116874,-1.2854466375291347
1733851312870000400,7.30100048828125,2.000939570558816,0.31671025337986647,-1.137051142784953
1733851312879968500,7.310968505859375,1.7269594016849994,0.3271346898257732,-1.0638596498459576
1733851312889938000,7.32093798828125,1.4889076014131306,0.22049922897908836,-1.1189373939454554
1733851312899906800,7.33090673828125,1.3280533148512244,-0.0035184199171140788,-1.3034557569503784
1733851312909875000,7.340875,1.2206085469156502,-0.20365173721574245,-1.3717811051577329
1733851312919843800,7.35084375,1.2210016378864645,-0.3634975408548489,-1.3282564362078904
1733851312929812000,7.36081201171875,1.186496433955431,-0.47186895864866674,-1.2516840686589479
1733851312939780900,7.37078076171875,0.9376403310745954,-0.514322673898749,-1.0900316174566744
1733851312949750000,7.38075,0.608657675294578,-0.5281941455259919,-0.8315063534766435
1733851312959718000,7.3907177734375,0.19524200159311295,-0.677026131991297,-0.6892331410050392
1733851312969687000,7.40068701171875,-0.2821875868573785,-0.9328419908821582,-0.7074281383872032
1733851312979655000,7.410655029296875,-0.6995417690515517,-1.2022492258172481,-0.7555576707839965
1733851312989623800,7.420623779296875,-0.9343199544802308,-1.3910524995997546,-0.6481880139112473
1733851312999592000,7.430592041015625,-1.1783020215839146,-1.343503689700365,-0.3257207313746214
1733851313009560800,7.440560791015625,-1.3634326712682843,-1.125500551853329,0.09675766196548938
1733851313019529700,7.45052978515625,-1.4903306199535726,-0.8123935836624354,0.5306769022524357
1733851313029497900,7.460497802734375,-1.4024965614169835,-0.4339578187316656,0.8098550781607627
1733851313039466800,7.470466796875,-1.2827999224126339,-0.16587916551921517,0.7350199096679687
1733851313049435000,7.480434814453125,-1.1460650548458098,-0.052986142115108666,0.34510756888985633
1733851313059403800,7.49040380859375,-0.9517325693130493,-0.008368746025115252,-0.041059740141034126
1733851313069372000,7.500371826171875,-0.8241355324476957,-0.02434095279127359,-0.3168208010822534
1733851313079341000,7.510341064453125,-0.7832412120014428,-0.05341697128042578,-0.5849228717029095
1733851313089310000,7.52031005859375,-0.8937316312432289,-0.06710738725233822,-0.6955570833295583
1733851313099278000,7.530278076171875,-1.0036445428580045,-0.05410743776261806,-0.6023416240155697
1733851313109247000,7.5402470703125,-1.0161907206982375,-0.04876614979989827,-0.4154752365797758
1733851313119215000,7.550215087890625,-1.052238185635209,-0.07537939490471035,-0.3789139769017696
1733851313129184000,7.56018408203125,-1.077553828677535,-0.03595847147926688,-0.4394301126629114
1733851313139152000,7.57015185546875,-1.0635703115105628,-0.03600099544674158,-0.519788428491354
1733851313149120800,7.580120849609375,-0.8973696954846382,-0.012894004897214472,-0.5056804081618785
1733851313159090000,7.59008984375,-0.6670411829411983,0.1207827902732417,-0.4460129981845617
1733851313169057800,7.600057861328125,-0.4930605805635452,0.2496054599434137,-0.45033787564635275
1733851313179027000,7.61002685546875,-0.3336006709694862,0.4161706714980304,-0.5662327842801809
1733851313188994800,7.619994873046875,-0.21364918042123315,0.5789470852289349,-0.7193862872064113
1733851313198964000,7.6299638671875,-0.16808453007638455,0.6895459332812577,-0.9241992502212524
1733851313208932900,7.639932861328125,-0.01083294418156147,0.7604943234685808,-1.1736825450897217
1733851313218901000,7.64990087890625,0.20152035121023654,0.7726950488720089,-1.3352414727896451
1733851313228870000,7.659869873046875,0.37921325210928913,0.706314185795933,-1.4393459903866053
1733851313238838000,7.669838134765625,0.511132828348875,0.6020176527582108,-1.5253168853998182
1733851313248807000,7.679806884765625,0.5307581507951021,0.5865001309569925,-1.4541817404687403
1733851313258775000,7.689775146484375,0.4693342525392771,0.601647942662984,-1.4155360757321118
1733851313268744000,7.699743896484375,0.4105640836626291,0.6052696037588641,-1.402831492459774
1733851313278713000,7.709713134765625,0.30104455527961255,0.5508140101457014,-1.3467477861881256
1733851313288680700,7.7196806640625,0.17662439488470552,0.5368391512092202,-1.3143074058324098
1733851313298649900,7.72964990234375,0.09864566766917705,0.5048077900458127,-1.3209206864923237
1733851313308617700,7.73961767578125,0.014623568636178969,0.5479248645754531,-1.2349646967872976
1733851313318587000,7.7495869140625,-0.0016840075641870497,0.5021405070653185,-1.201606909325719
1733851313328554800,7.7595546875,-0.12958148868083952,0.3238245788970962,-1.1579136058107018
1733851313338524000,7.76952392578125,-0.14051263253986834,0.04479242386333644,-1.0327584091395139
1733851313348492800,7.779492919921875,-0.29076866045892236,-0.17271368771437554,-0.9521233221963047
1733851313358461000,7.7894609375,-0.7193529694586992,-0.19149594693258404,-1.0764940904915332
1733851313368429800,7.799429931640625,-1.1194833373904227,0.04669314291812479,-1.200407470408082
1733851313378398000,7.80939794921875,-1.4831249263584614,0.08346490354165434,-1.1823606493249534
1733851313388366800,7.819366943359375,-1.8014163845151663,0.06999824985563755,-1.0266258977338671
1733851313398335000,7.8293349609375,-2.0776497391432525,0.023923677227273583,-0.7978796859458088
1733851313408303900,7.839303955078125,-2.17750595164597,0.05324738686718046,-0.4091398960784077
1733851313418273000,7.84927294921875,-2.1452309909850356,0.08243366079777478,0.0015251637406647205
1733851313428241000,7.859240966796875,-2.037066384342313,0.11883947418574244,0.3721003513641655
1733851313438210000,7.8692099609375,-1.8111100955337285,0.12217303905524313,0.6183781281895935
1733851313448178000,7.879177978515625,-1.5477344689130783,0.23651925694234668,0.8453358491256833
1733851313458146800,7.889146728515625,-1.3598971906185149,0.2915858220607042,0.8296976966194808
1733851313468115700,7.89911572265625,-1.2096768185347317,0.259955223717913,0.6105822136163711
1733851313478083800,7.909083740234375,-1.04145667937994,0.28905235806033014,0.4754866376891732
1733851313488052700,7.919052734375,-0.8737696241885423,0.27831512933820485,0.4731294070385396
1733851313498020900,7.929020751953125,-0.6816571527928114,0.2512267775349319,0.419891664782539
1733851313507989800,7.93898974609375,-0.436767615455389,0.21868337519615888,0.2040935626991093
1733851313517958000,7.9489580078125,-0.16904840667247772,0.08805676137655973,-0.058719680798426266
1733851313527927000,7.958927001953125,-0.14280454286932945,-0.014680267259478567,-0.3052089814826846
1733851313537896000,7.96889599609375,-0.24385902524590491,-0.47747108950465916,-0.4471491260750219
1733851313547864000,7.978864013671875,0.93211133852005,-1.8357061921298503,-0.4311682976109907
1733851313557833000,7.9888330078125,1.2065613168627023,-2.70770939116776,-0.615485475488007
1733851313567801000,7.998801025390625,-2.1639783615529535,-1.303068511198461,-0.792032713483274
1733851313577770000,8.00877001953125,-3.4588895775198933,0.49920624371170996,0.42813035468719896
1733851313587737900,8.01873779296875,-4.123520192188025,1.2121377287555486,1.3298866677582264
1733851313597706800,8.028706787109375,-7.2807590652287,2.4335890831708906,1.2124282361347227
1733851313607676000,8.038676025390625,-7.852172467017173,2.4020656715296207,0.5517871294941753
1733851313617643800,8.048643798828126,-6.142703129315376,0.7154325811445713,0.9243947727933526
1733851313627613000,8.058613037109374,-3.2932226299792524,0.0739524399746675,1.9481949455820022
1733851313637580800,8.068580810546875,-1.1874831069052219,-0.12852542202295736,2.3910195229887963
1733851313647550000,8.078550048828125,-0.5127098684072494,-0.6570834872242063,1.18872185491994
1733851313657517800,8.088517822265626,-0.18049685240387917,-0.9334873761136084,-0.40299795925728976
1733851313667487000,8.098487060546875,-0.3123784347206354,-0.6056300711017102,-0.6922917248580605
1733851313677456000,8.108455810546875,-0.9512000698715448,0.21500832167891784,-0.524472713850066
1733851313687424000,8.118424072265626,-1.2256348506450652,0.2334242135364562,-1.3037393961973487
1733851313697393000,8.128392822265624,-1.3531149831324816,0.08854812509007752,-2.40246329254508
1733851313707361000,8.138361083984375,-1.5367729299157857,-0.13707547029857522,-2.598580031146109
1733851313717330000,8.148329833984375,-1.7902455866813658,-0.33827896497882903,-1.8140230603709815
1733851313727299000,8.158299072265624,-1.8921259984880685,-0.6373970091752708,-0.7432379951760172
1733851313737267000,8.168266845703124,-2.559541859960556,-0.6230222276683897,0.49100532853417095
1733851313747236000,8.178236083984375,-3.0897505601793527,-0.5512161246731877,1.736518380407989
1733851313757203700,8.18820361328125,-3.2791818296670914,-0.2326416483240202,2.771981080070138
1733851313767172900,8.1981728515625,-3.6562574852257965,0.22143435440473258,3.185381848463416
1733851313777140700,8.208140625,-3.9329315693587064,0.6623561669301241,2.5796678254052994
1733851313787110000,8.21810986328125,-3.6715579302102324,0.8441496350158005,1.1799260425891727
1733851313797078800,8.228078857421876,-3.4052386513531205,0.8688250804584473,-0.052188306268304584
1733851313807047000,8.238046875,-3.2743121778041124,0.6885290843889117,-0.6862516409762204
1733851313817015800,8.248015869140625,-3.0766841578572985,0.31929793178550897,-1.2092666302986443
1733851313826984000,8.25798388671875,-2.712970088174939,-0.12396322867395355,-1.6080238101810216
1733851313836952800,8.267952880859376,-2.373887770923972,-0.4509941841306165,-1.8126738377191125
1733851313846921000,8.2779208984375,-2.164919441795349,-0.5782396676119417,-1.812143384104222
1733851313856889900,8.287889892578125,-1.9310469730347395,-0.34764344404302533,-1.6157614186957479
1733851313866859000,8.29785888671875,-1.7219436193495987,0.05821380906894337,-1.3360738319605587
1733851313876827000,8.307826904296874,-1.499285787564516,0.3726645976508036,-1.1647095495611428
1733851313886796000,8.317796142578125,-1.1977391279816627,0.41581667042858894,-1.1069970730438827
1733851313896764000,8.327763916015625,-0.93865739916265,0.35869587619416415,-1.0981868668615817
1733851313906732800,8.33773291015625,-0.6925508872509002,0.17083989319913087,-1.1396034576162695
1733851313916701000,8.347700927734374,-0.5001455703884363,-0.0909070910400711,-1.281417528143525
1733851313926669800,8.357669921875,-0.37759178838729857,-0.2935825853684917,-1.5305983329340815
1733851313936638700,8.367638671875,-0.21336159565150736,-0.42203097836617376,-1.7620795226439832
1733851313946606800,8.37760693359375,-0.14711422276198863,-0.4280240082358941,-1.9233140406951308
1733851313956575700,8.38757568359375,-0.1498474471181631,-0.30881712550986556,-1.900715255396068
1733851313966544000,8.3975439453125,-0.23901976852118967,-0.1314277650014963,-1.8153028710484505
1733851313976513000,8.407512939453126,-0.28695348608493804,0.034967524213157596,-1.6668290503710508
1733851313986482000,8.41748193359375,-0.33849136562049387,0.10829695518496446,-1.4907090978771447
1733851313996450000,8.427449951171875,-0.37997897578477857,0.07080338309290818,-1.412844352430105
1733851314006419000,8.4374189453125,-0.3517518292099237,-0.15278267858615144,-1.4924632480680942
1733851314016387000,8.447386962890626,-0.4079407494217157,-0.36183665843792256,-1.6384709708929062
1733851314026356000,8.45735595703125,-0.3512655069977045,-0.49920142140612,-1.9481904155373573
1733851314036323800,8.46732373046875,-0.15063888975679873,-0.563118159390986,-2.2068010197132826
1733851314046293000,8.47729296875,-0.0901128171235323,-0.4685095286855474,-2.337044771695137
1733851314056262100,8.48726220703125,-0.10143325256109237,-0.2988825184075162,-2.35774093824327
1733851314066229800,8.497229736328125,-0.13124094632565975,-0.09360044917673803,-2.0846932279139754
1733851314076199000,8.507198974609375,-0.21952771706581115,0.1255289070880972,-1.6704349659085274
1733851314086166800,8.517166748046876,-0.3465408165633678,0.33921178884953257,-1.1917834344476461
1733851314096136000,8.527135986328124,-0.620476415643096,0.40034452213905747,-0.6781663880676031
1733851314106103800,8.537103759765625,-0.9496662844330072,0.31166203007958826,-0.2502157007962465
1733851314116073000,8.547072998046875,-1.145363628578186,0.2108474026071839,-0.053142976644635194
1733851314126041900,8.557041748046874,-1.168935058301687,0.135837608199846,-0.19059154543876647
1733851314136010000,8.567010009765625,-1.23232119654119,0.014046335003804415,-0.41784722640812394
1733851314145979000,8.576978759765625,-1.323087509137392,-0.0669144767624326,-0.5247966120421886
1733851314155947000,8.586947021484375,-1.1415876171708106,-0.08107908611735329,-0.6842138515383005
1733851314165916000,8.596916015625,-0.9595312603652477,0.10092384173423051,-0.6454191337198019
1733851314175884000,8.606884033203125,-0.7321382167518139,0.26108504973175,-0.43621115061640736
1733851314185853000,8.61685302734375,-0.5483721334189177,0.39442031972184777,-0.4228063101202249
1733851314195822000,8.626822021484376,-0.4572667981266975,0.5453661930685862,-0.6726812346547841
1733851314205789700,8.636789794921874,-0.5230342785447836,0.6773216078065335,-0.8994698826342821
1733851314215758800,8.6467587890625,-0.4205377806663513,0.599379924665764,-1.1878531092613935
1733851314225726700,8.656726806640625,-0.3019312749862671,0.2999002806153148,-1.424206288921833
1733851314235695900,8.66669580078125,-0.09126374072432518,-0.06570300034713,-1.4590665899008513
1733851314245664000,8.6766640625,0.09241583336889743,-0.2798729532394558,-1.5327128408700226
1733851314255633000,8.6866328125,0.051723172974586486,-0.16868823159057647,-1.3566349739521741
1733851314265601800,8.696601806640626,0.14121990402638912,-0.04762742809355259,-1.0448469063401222
1733851314275570000,8.70656982421875,0.28380905057936906,0.08385182050000875,-0.9170394415944814
1733851314285538800,8.716538818359375,0.2930634933978319,0.2485426530174911,-0.9570014496266841
1733851314295507000,8.7265068359375,0.2573775552496314,0.26023225056100635,-1.0331389328896998
1733851314305475800,8.736475830078126,0.28517595501840115,0.16504110725987703,-0.9726391637414693
1733851314315444000,8.74644384765625,0.2351461419582367,0.07107559676356613,-0.9969301399111747
1733851314325412900,8.756412841796875,0.2808598453849554,-0.10542772902473807,-1.161005434346199
1733851314335382000,8.766382080078126,0.4344236826777458,-0.23286749296914785,-1.1360732376635074
1733851314345350000,8.776349853515624,0.5836509520709514,-0.29772746662087735,-1.0461498056322336
1733851314355318800,8.78631884765625,0.7038222228497266,-0.19966106014437973,-1.0109744473546742
1733851314365287000,8.796286865234375,0.8417465924620627,-0.18314780530408023,-1.1512632080107927
1733851314375255800,8.806255859375,0.9994530825175344,-0.24754410696681586,-1.1888900510936975
1733851314385224000,8.816223876953124,1.0665542957574128,-0.3398029962083325,-1.1709230172485112
1733851314395192800,8.82619287109375,1.0722726734042167,-0.4034750021845102,-1.2162906837165355
1733851314405162000,8.836161865234375,1.1460558486260473,-0.4754610648564994,-1.4315665885567663
1733851314415129900,8.8461298828125,1.1545569888591765,-0.4237167029634118,-1.5438713637441397
1733851314425099000,8.85609912109375,1.0518144072651863,-0.27626378629896786,-1.4534189394026993
1733851314435067000,8.86606689453125,1.087164610652998,-0.18346826943010092,-1.2427718634068965
1733851314445036000,8.8760361328125,1.2255414002079517,-0.1025385834544897,-1.0228279667556286
1733851314455004000,8.88600390625,1.3020908983379602,-0.0223022500379011,-0.9714566759586334
1733851314464973000,8.89597314453125,1.2831138106673956,-0.00786755503732711,-0.9487696278542279
1733851314474942000,8.90594189453125,1.403567990040779,-0.12280351897850632,-1.0026315664231777
1733851314484910000,8.91591015625,1.5393097549170254,-0.1943559029409662,-1.0514818143099547
1733851314494879000,8.92587890625,1.7211363946199416,-0.22049579491298643,-1.0813555590480566
1733851314504846800,8.935846923828125,1.9567016387730836,-0.2661179110661149,-1.1911918982952832
1733851314514815700,8.945815673828125,2.1425790151715276,-0.2856969101525843,-1.3235486969083547
1733851314524783900,8.955783935546876,2.3737673594146966,-0.31993980988562104,-1.5826725113034248
1733851314534752800,8.965752685546875,2.560235102921724,-0.2806770361639559,-1.7745815690815447
1733851314544722000,8.975721923828125,2.6548557528585195,-0.11806874554157257,-1.8523615588545799
1733851314554689800,8.985689697265625,2.7727105633884666,0.14772512120194733,-1.9210025488823652
1733851314564659000,8.995658935546874,2.9689708021134136,0.26794717231988907,-1.967366825172305
1733851314574626800,9.005626708984375,3.0452590920239686,0.30159283681213855,-1.9083844748497008
1733851314584596000,9.015595947265625,3.06051219073534,0.27686799926981326,-1.906938367694616
1733851314594563800,9.025563720703126,3.105366646984219,0.21851718831639735,-1.9837796153128147
1733851314604533000,9.035532958984374,3.111036509314179,0.16687763850465415,-2.065107652956247
1733851314614502000,9.045501953125,3.1028584635555743,0.12342599825840443,-2.127800548234582
1733851314624470000,9.055469970703125,3.0679917328357695,0.09506152557209134,-2.141373731034994
1733851314634439000,9.06543896484375,2.997034867081046,0.04863134443908929,-2.054833511701226
1733851314644406800,9.07540673828125,2.9393028090804814,0.05592157451249659,-1.9100550384104251
1733851314654375700,9.085375732421875,2.9150276150017973,0.09163425453715025,-1.7547352973610162
1733851314664344800,9.0953447265625,2.837806428155303,0.0586132247492671,-1.6457605433791875
1733851314674312700,9.105312744140624,2.7008038495630022,-0.021992416903749108,-1.5806050573796033
1733851314684281900,9.11528173828125,2.576701084554195,-0.08480996147505938,-1.4756214188605545
1733851314694250000,9.12525,2.4128917475789784,-0.06136040456555784,-1.275580492553115
1733851314704219000,9.135218994140626,2.265176051792502,0.004459755887836218,-1.0594476786226033
1733851314714187000,9.14518701171875,2.058659645860642,0.07786642594747245,-0.881379514670372
1733851314724156000,9.155156005859375,1.8685750270307062,0.13247026892490685,-0.7526759778678417
1733851314734124800,9.165124755859376,1.6696207269161938,0.1628483829885721,-0.6092658703207969
1733851314744093000,9.175093017578124,1.44737980536893,0.17065211554206908,-0.5160030647337437
1733851314754061800,9.185061767578125,1.254220309138298,0.14047734203077852,-0.5156102660238743
1733851314764030000,9.195030029296875,1.1860330542273818,0.1040150126826018,-0.645512072700262
1733851314773998800,9.204998779296876,1.1453257807858288,0.009133592917770147,-0.8007961579144001
1733851314783967000,9.214967041015624,1.1597079418815672,-0.04499729878567159,-0.7961123840123414
1733851314793936100,9.22493603515625,1.2556272533267736,-0.1076584106862545,-0.6822831757366656
1733851314803905000,9.234905029296876,1.3725316312640905,-0.22970694657899438,-0.8394330548226833
1733851314813873000,9.244872802734376,1.37025725659132,-0.33489969780407847,-1.1071382350802421
1733851314823841800,9.254841796875,1.133018087876588,-0.28537440019994975,-1.2175164261192082
1733851314833810000,9.264809814453125,0.8718076764658093,-0.22970468155667184,-1.2131629070848227
1733851314843778800,9.27477880859375,0.6542363541647791,-0.1744606409795582,-1.159375202795863
1733851314853747000,9.284746826171874,0.4670008411556482,-0.10822802726775407,-1.0061515572428703
1733851314863715800,9.2947158203125,0.2570262575939298,0.0072631959360092875,-0.7827122196912765
1733851314873685000,9.30468505859375,0.14622691853344438,0.026989932930096983,-0.5833405709475279
1733851314883652600,9.314652587890626,0.15540040507018565,-0.03571333761177957,-0.422593544152379
1733851314893621800,9.324621826171875,0.134144266551733,-0.11971161737777292,-0.35756256131529807
1733851314903589600,9.334589599609375,0.14969576368778942,-0.2071873639959842,-0.44536184079945085
1733851314913558800,9.344558837890625,0.09377426224052905,-0.29300087649039924,-0.5620084445834159
1733851314923526700,9.354526611328126,-0.07332096453756093,-0.2833962319947779,-0.5951064120650291
1733851314933495800,9.364495849609375,-0.22426848185211418,-0.35014271351285275,-0.6282090557217598
1733851314943464700,9.374464599609375,-0.3398100470036268,-0.2967021421611309,-0.6015647944241762
1733851314953432600,9.3844326171875,-0.3666419398277998,-0.2320692187309265,-0.5492039080679416
1733851314963401500,9.3944013671875,-0.4511071064531803,-0.13876220867596567,-0.5510837304651737
1733851314973369600,9.40436962890625,-0.5101712898403405,-0.07966441528014838,-0.49641865881979463
1733851314983338500,9.41433837890625,-0.43489539184272286,-0.0074044310376048085,-0.4286620504111051
1733851314993306600,9.424306640625,-0.3365028221517801,0.044488253284990786,-0.4239116410136223
1733851315003275500,9.434275634765624,-0.268159938287735,0.08361198386214673,-0.4387766171902418
1733851315013244700,9.44424462890625,-0.18518179534971713,0.007697787960991263,-0.4612158280134201
1733851315023212500,9.454212646484375,-0.175034495344758,-0.084521134596318,-0.48396425091624257
1733851315033181700,9.464181640625,-0.2134568727195263,-0.26826321599911895,-0.5769727894812822
1733851315043149800,9.47414990234375,-0.2906412346869707,-0.5682598331283778,-0.6167962658256292
1733851315053118700,9.48411865234375,-0.48742929667830465,-0.7607092083282768,-0.5879010107308625
1733851315063086800,9.4940869140625,-0.7020838547497987,-0.759615860133618,-0.6064823770821094
1733851315073055700,9.5040556640625,-0.9505629410117864,-0.45831367683112617,-0.566558947494626
1733851315083024600,9.514024658203125,-1.2155851657956838,-0.044969022539258004,-0.43330607682466504
1733851315092992500,9.523992431640625,-1.4011796335995197,0.35604400997851043,-0.3082248221725225
1733851315102961700,9.533961669921876,-1.3550456589341162,0.5573245976161212,-0.12737199593782425
1733851315112929500,9.543929443359374,-1.2198317173242568,0.3109933735704049,-0.1528752705067396
1733851315122898700,9.553898681640625,-1.0465431888639927,-0.053814044306613504,-0.2045364841610193
1733851315132866600,9.563866455078125,-0.8666209214776753,-0.4711147792804986,-0.25261574767529965
1733851315142835700,9.573835693359374,-0.718439361745119,-0.7762259264118969,-0.4181564384877681
1733851315152804600,9.5838046875,-0.5944704522490502,-0.9431481347106396,-0.6417851611316203
1733851315162772700,9.593772705078125,-0.45622868725061416,-1.0082095126859842,-0.8325918106257915
1733851315172741600,9.60374169921875,-0.11192425143718719,-0.6908665874257683,-0.9198550835371017
1733851315182709800,9.613709716796874,0.16566870110630988,0.12754410110171885,-0.9211568137854337
1733851315192678700,9.6236787109375,-0.18678513889312742,0.8483313776798546,-1.2479098108172415
1733851315202646800,9.633646728515625,-0.5287532407134771,1.1923165914762766,-1.5547522387206554
1733851315212615700,9.64361572265625,-0.46253626296222206,1.1428594637375324,-1.7145172687411308
1733851315222584800,9.653584716796875,-0.30857202817499635,0.8343501986004411,-1.7672984263360498
1733851315232552700,9.663552734375,-0.1830219869673252,0.2453381944203749,-1.7163363008618353
1733851315242521900,9.67352197265625,0.016414543706178664,-0.3780755167836323,-1.5398767411500214
1733851315252489500,9.683489501953124,0.2890688708037138,-0.8547013511031866,-1.3334551738947629
1733851315262458600,9.693458740234375,0.4832277533352375,-1.1036326381120831,-1.1929074700415134
1733851315272426500,9.703426513671875,0.728182172602415,-1.0691436546634883,-1.1662240457773208
1733851315282395600,9.713395751953126,0.902366188597679,-0.5372635141011327,-1.180170153543353
1733851315292364500,9.723364501953125,0.9522767591923474,0.07958108437824994,-0.9449044768586754
1733851315302332700,9.733332763671875,0.521953497570753,0.6511634495254606,-0.5572963213697075
1733851315312301600,9.743301513671875,-0.17219781061410902,1.1077241452094166,-0.25517449224740263
1733851315322269700,9.753269775390624,-0.4660533311724662,1.3762638035297392,-0.13676321687847376
1733851315332238600,9.763238525390625,-0.6253712019473314,1.2973730760358273,-0.47350540074408054
1733851315342206700,9.773206787109375,-0.8002239109843969,1.0563927480313926,-0.8929197303384542
1733851315352175600,9.783175537109376,-0.946091348555684,0.6701674252029508,-1.1134557476639746
1733851315362144800,9.793144775390624,-0.7637900770783423,0.2644969222681597,-0.9165028504997491
1733851315372112600,9.803112548828125,-0.6395055257618427,0.18274717034762725,-0.5492439478173852
1733851315382081800,9.813081787109375,-0.6886597250312566,0.17921941634658722,-0.41668344332575796
1733851315392049700,9.823049560546876,-0.7347592129051684,0.2652128337188624,-0.4960585933357477
1733851315402018600,9.8330185546875,-0.8136801894068717,0.3804928435910493,-0.5955367663063108
1733851315411986700,9.842986572265625,-0.9881792627006769,0.5218322823438794,-0.4438933756820857
1733851315421955600,9.85295556640625,-1.2950386417388915,0.6607135873548686,-0.25677359800711275
1733851315431924500,9.862924560546874,-1.626889254170656,0.7233299833308905,-0.09119812814220786
1733851315441892600,9.872892578125,-1.9899211868077515,0.9257636499937624,0.03857435306608677
1733851315451861500,9.882861572265625,-2.1509961303830147,1.0380524238944053,0.36540187663882967
1733851315461829600,9.89282958984375,-2.009462338101864,0.8936044246669859,0.6945704103797674
1733851315471798800,9.902798828125,-1.657589512860775,0.6505729362864047,0.7526855494137853
1733851315481766700,9.9127666015625,-1.4126836089104413,0.4333909055639058,0.7930820764057338
1733851315491735800,9.92273583984375,-1.5091244600117206,0.03920180078204721,0.5914788692176342
1733851315501704700,9.93270458984375,-1.4813719452112912,-0.2677965848680586,0.24639153939820824
1733851315511672800,9.9426728515625,-1.7956822247773407,-0.2967564296316355,0.14611571324393152
1733851315521641700,9.952641845703125,-4.168726530614495,0.558599585988,1.1643375013783572
1733851315531609600,9.962609619140625,-7.361940387877821,1.1641827492080628,1.7789654832541941
1733851315541578800,9.972578857421874,-4.55177132371068,0.6372726521432399,1.173835543694347
1733851315551546600,9.982546630859375,-3.6478514759302136,-0.2832175509596243,0.8485175479017197
1733851315561515500,9.992515625,-3.125323393341899,-0.9061251027397811,0.05267605325262993
1733851315571484700,10.002484619140626,-2.6769933503866192,-1.8768464501611888,-0.1965102679632604
1733851315581452500,10.01245263671875,-2.09164143961668,-2.06578248347789,-0.2723848259737715
1733851315591421700,10.022421630859375,-1.6023521942853927,-1.6097110326156019,-0.20759554293807594
1733851315601389600,10.0323896484375,-1.5494821893632411,-0.8579466166347265,-0.10426372674666344
1733851315611358700,10.042358642578124,-1.512078049120307,-0.09602295448277146,-0.23472550539337098
1733851315621326600,10.05232666015625,-1.7442787852764128,0.3941992608496919,-0.09598707945179194
1733851315631295700,10.062295654296875,-2.2917671215981246,0.7010400447852909,-0.25734390870835633
1733851315641264600,10.0722646484375,-3.4377778159081935,1.0166448211412877,-0.6364589976727962
1733851315651232800,10.082232666015624,-4.366081578838825,1.246355567112565,-0.24620438279565424
1733851315661201700,10.09220166015625,-4.449641905578971,0.9171201786804943,0.16858963005430996
1733851315671169800,10.102169677734375,-4.291781832396984,0.1001163247436285,-0.026413229020684957
1733851315681138700,10.112138671875,-4.244062049844861,-0.25776597004532814,-0.11569354084283112
1733851315691106600,10.1221064453125,-4.283771544420719,-0.48651992674842476,0.19311499950177966
1733851315701075500,10.132075439453125,-4.41400302144289,-0.3343035220092162,0.8659507671311497
1733851315711044600,10.142044677734376,-4.371420017257333,0.11650942380297928,1.3996993319138884
1733851315721012500,10.152012451171874,-4.249230976915359,0.34056473782844837,1.2983899979934095
1733851315730981600,10.161981689453125,-4.011633934673667,0.4680363947484642,1.1129760013230143
1733851315740949500,10.171949462890625,-3.6594782008379694,0.42222303033955394,0.9489802018649875
1733851315750918700,10.181918701171876,-3.1781647566914555,0.25163144934568554,0.22358561415448783
1733851315760886800,10.19188671875,-2.5857214263558386,0.053105530711077154,-0.8098512787684797
1733851315770855700,10.201855712890625,-2.097769567108154,-0.13621749262921512,-1.7065642639100551
1733851315780824600,10.211824462890625,-1.6439233910799025,-0.2635241317132488,-2.333769403286278
1733851315790792700,10.221792724609376,-1.2577461451768874,-0.26625468918830153,-2.5968393249586224
1733851315800761600,10.23176171875,-0.8604425251036882,-0.20490257752705365,-2.719917715355754
1733851315810729700,10.241729736328125,-0.5662228474080562,-0.023690927917324005,-2.6375761167556044
1733851315820698600,10.25169873046875,-0.4932610715717077,0.22958810597229748,-2.408890695244074
1733851315830666500,10.26166650390625,-0.4445230518877506,0.30472686052154746,-1.8949366719946263
1733851315840635600,10.2716357421875,-0.4105383646994829,0.24517098462730644,-1.522495690499246
1733851315850604500,10.2816044921875,-0.3604296411842108,0.12262253638841211,-1.6935516376018522
1733851315860572700,10.29157275390625,-0.24970073701143264,-0.014245309908315539,-2.2362194218993188
1733851315870541600,10.30154150390625,-0.19670622892677783,-0.07671331038959324,-2.504595048764348
1733851315880509700,10.311509765625,-0.16060323441028593,-0.08271211241297423,-2.6425451373398303
1733851315890478600,10.321478515625,-0.1408019708752632,-0.0035175066016614434,-2.6554332604855295
1733851315900446500,10.331446533203126,-0.09451426695287227,0.15255495251119136,-2.5859119804918764
1733851315910415400,10.341415283203125,-0.11349603079855441,0.31952640677914024,-2.4634406160771847
1733851315920384800,10.351384765625,-0.08864508265852927,0.4636145962508395,-2.249834690275788
1733851315930352400,10.361352294921875,-0.13244798402786254,0.5285965157818049,-2.057170430216193
1733851315940321500,10.371321533203124,-0.10855039108991622,0.6092997360577806,-1.76340024985373
1733851315950289400,10.381289306640625,0.08611176478862761,0.660327291451022,-1.5633406188458203
1733851315960258600,10.391258544921875,0.24991876367628574,0.5422751317180693,-1.4129817150741815
1733851315970226400,10.401226318359376,0.4739981526970863,0.3925971959479153,-1.4534370595812798
1733851315980195600,10.411195556640624,0.5914817918270826,0.31948523451853544,-1.6383827080875635
1733851315990164500,10.42116455078125,0.5603220989316702,0.3770776648527011,-1.9154069208323954
1733851316000132600,10.431132568359375,0.6312333719789981,0.4385984476117417,-2.176641443771124
1733851316010101500,10.4411015625,0.6390519367754459,0.42487540801186113,-2.333342410045862
1733851316020069600,10.451069580078125,0.595209287917614,0.3196006045265123,-2.5304730018645523
1733851316030038500,10.46103857421875,0.7554939578980207,0.0522302822465077,-2.49983528701663
1733851316040006700,10.471006591796876,0.7132797870248556,-0.19676891889944673,-2.0334405950605867
1733851316049975600,10.4809755859375,0.6308510946631432,-0.33226836291979994,-1.2379419590324163
1733851316059944700,10.49094482421875,0.38462124863266944,-0.5459570716338232,-0.4473550604432821
1733851316069912300,10.500912353515625,-0.03804886788725853,-0.6611236294604838,0.17619360225200653
1733851316079881500,10.510881591796876,-0.33920155971646304,-0.7126474074054509,0.47413960699439045
1733851316089849600,10.520849609375,-0.5699678791552781,-0.7857844667434692,0.524728807502985
1733851316099818500,10.530818603515625,-0.7760510082364082,-0.7059850999720394,0.49997021382153034
1733851316109786600,10.54078662109375,-0.9403376073345542,-0.5826094071287662,0.38073008641302586
1733851316119755500,10.550755615234374,-0.9794216634884476,-0.45997408432401715,0.21269991687238216
1733851316129724400,10.560724365234375,-1.0841253160223365,-0.2146789983930066,0.13014613682627676
1733851316139692500,10.570692626953125,-1.2041481182411313,0.05822079136557877,0.10751987899839878
1733851316149661400,10.580661376953126,-1.1137895096629857,0.258026886003837,0.020634207227826117
1733851316159629600,10.590629638671874,-1.090491636183858,0.49275761556159703,0.07094809792637824
1733851316169598500,10.600598388671875,-1.0785884324222803,0.6168351365312934,0.022293080350756642
1733851316179566600,10.610566650390625,-1.0185220862552522,0.5766666096089408,0.061875149154663085
1733851316189535700,10.62053564453125,-0.9904659123331307,0.5138206791933626,0.18170389010608196
1733851316199504600,10.630504638671875,-0.9107210522279143,0.35991997462902214,0.10528466729223727
1733851316209472500,10.640472412109375,-0.8064841404229403,0.23462595400903372,-0.3305833689749241
1733851316219441400,10.65044140625,-0.6044412266433239,0.10317278970479965,-0.804354727178812
1733851316229409500,10.660409423828124,-0.3086316494077444,0.030431086359918116,-1.0329302585750817
1733851316239378400,10.67037841796875,-0.06297784969955682,0.13892017571665347,-1.2913888870596886
1733851316249346600,10.6803466796875,0.1164610180839896,0.2972029312901199,-1.5269816037416457
1733851316259315500,10.6903154296875,0.3415608361937105,0.5004322053100914,-1.7176859619051217
1733851316269283600,10.70028369140625,0.649334407467395,0.5777855671688914,-1.7651830416172742
1733851316279252500,10.71025244140625,1.0054033692240714,0.5426346126802265,-1.7105828519016504
1733851316289221600,10.7202216796875,1.1446284461714327,0.46872547299116846,-1.6606377945154904
1733851316299189500,10.730189453125,1.4529508834995328,0.301393368717283,-1.5883207463234663
1733851316309158700,10.74015869140625,1.8103227445483208,0.12786672065220772,-1.5310194809556006
1733851316319126500,10.75012646484375,2.1263227307669816,0.05067220261693001,-1.517562618011236
1733851316329095700,10.760095703125,2.396861234754324,0.014088219650462268,-1.6129332095324993
1733851316339063600,10.7700634765625,2.6203584399729967,0.12080737672522664,-1.7474983318448065
1733851316349032700,10.78003271484375,2.761258610525727,0.32780389432422813,-1.8925860172152518
1733851316359001600,10.790001708984375,2.9640625718057154,0.4787898439530283,-2.0855495524823664
1733851316368969500,10.799969482421876,3.09372764711678,0.5504707861986011,-2.1297259633392094
1733851316378938400,10.8099384765625,3.1688515694230794,0.5438381432510913,-2.1297306395143267
1733851316388906500,10.819906494140625,3.3668396548539397,0.25056203001588584,-2.1758833188802003
1733851316398875400,10.82987548828125,3.4797184305369853,-0.058063189651072024,-2.1554963644117118
1733851316408843500,10.839843505859376,3.462579079687595,-0.09172850869186222,-2.1123656632155177
1733851316418812400,10.8498125,3.413666287958622,-0.04093282582573592,-2.216855965259671
1733851316428781600,10.859781494140625,3.3507711481064555,0.1180399578385055,-2.2202029376000163
1733851316438749400,10.86974951171875,3.3321471116572616,0.30725977653264996,-2.217447501412034
1733851316448718600,10.879718505859374,3.3608962362796064,0.4420347422033548,-2.2620903607368468
1733851316458686500,10.8896865234375,3.3300533542484043,0.47128122188858684,-2.265241518244147
1733851316468655600,10.899655517578125,3.293797799518704,0.36992739123925567,-2.2442256182223557
1733851316478623700,10.909623779296876,3.0895079835951327,0.24339966410584746,-2.200745957458019
1733851316488592600,10.919592529296875,2.91362417794466,0.10321144121475517,-2.211930783817172
1733851316498561500,10.9295615234375,2.803221436986327,-0.017623700300231575,-2.160415116113424
1733851316508529400,10.939529296875,2.5850059715628624,-0.16773768940009176,-2.0548311736136675
1733851316518498300,10.949498291015624,2.4383523520499466,-0.2792597897771746,-1.8972247829318045
1733851316528466400,10.959466552734375,2.300881571424007,-0.4223470220454037,-1.6717583234667777
1733851316538435600,10.969435546875,2.149853390088677,-0.5753727338735014,-1.4029045576959847
1733851316548403500,10.979403564453126,2.0055162308245897,-0.6391120694648474,-1.150505083119869
1733851316558372600,10.98937255859375,1.859096858458966,-0.5826403137236833,-0.9358177918225526
1733851316568340500,10.999340576171875,1.7794722637325524,-0.514651577059552,-0.8547025201469659
1733851316578309600,11.0093095703125,1.7367888679124415,-0.33677674372233446,-0.8190957847148179
1733851316588278500,11.019278564453124,1.7178969743072985,-0.14204524893462658,-0.9107669371962547
1733851316598246700,11.02924658203125,1.7200070983290672,0.01141629702746868,-1.0122872835189103
1733851316608215600,11.039215576171875,1.6727964343428612,-0.049732145287841555,-1.1359311988443135
1733851316618183700,11.04918359375,1.5569430267632007,-0.12739040837734936,-1.1394102731317282
1733851316628152600,11.059152587890624,1.473464825348556,-0.17826558622047303,-1.2399854475587606
1733851316638120400,11.069120361328125,1.3946043468624352,-0.34329262842237945,-1.3475497502207756
1733851316648089300,11.07908935546875,1.270307812847197,-0.5087298588603735,-1.2570739450037478
1733851316658058800,11.089058837890626,1.1389824031084774,-0.5632851865209638,-1.0176777443856
1733851316668026400,11.0990263671875,1.052212466672063,-1.1263900480389595,-0.750806676864624
1733851316677995500,11.10899560546875,1.0473547975078223,-1.4489093530237673,-0.33179975902736186
1733851316687963400,11.11896337890625,0.6541720567569136,-1.0224223085641861,-0.15124913060963152
1733851316697932500,11.1289326171875,0.40837300335913895,-0.41826165242791175,-0.31852526691257954
1733851316707900400,11.138900390625,0.4074418599888682,-0.034007191281020636,-0.534924622824788
1733851316717869600,11.14886962890625,0.16453998933732508,-0.020631284618377686,-0.6774807438910007
1733851316727838500,11.15883837890625,0.023214871370792388,-0.10659545762985945,-0.76989307012856
1733851316737806600,11.168806640625,0.046292380097508426,-0.28680925530865786,-0.8674959507465362
1733851316747775500,11.178775390625,0.11328443387448787,-0.4755008123449981,-1.0035586181402205
1733851316757743600,11.18874365234375,0.22234628161787987,-0.6278956058584153,-1.125602112531662
1733851316767712500,11.19871240234375,0.4066577238738537,-0.7479122705973684,-1.122951890283823
1733851316777680600,11.2086806640625,0.5476821053281427,-0.8004875303566455,-1.19936643692255
1733851316787649500,11.2186494140625,0.5361749151468277,-0.6305496274985373,-1.3813380380541085
1733851316797618700,11.22861865234375,0.40436055284738537,-0.467791991533339,-1.4993915860265492
1733851316807586300,11.23858642578125,0.2937438768774271,-0.251736626753211,-1.4083523017078636
1733851316817555500,11.248555419921875,0.22551497478187083,-0.07954692638032138,-1.2695260148197411
1733851316827523600,11.258523681640625,0.13235738313496112,0.07203406653217971,-1.135249646320939
1733851316837492500,11.268492431640626,0.0259112708479166,0.1787352495588362,-1.0431079537183046
1733851316847460600,11.278460693359374,0.05905833816826343,0.08586685011684894,-0.9927566536188125
1733851316857429500,11.288429443359375,0.21082944682538507,-0.08755801807418465,-1.028259928676486
1733851316867398400,11.2983984375,0.20369944881498814,-0.06207330207526683,-0.9959750311434268
1733851316877366500,11.308366455078126,0.04435293646752834,0.052119186554849144,-0.9539578441470861
1733851316887335700,11.318335693359375,-0.10432605139315128,0.2909497161142528,-0.9665250647753476
1733851316897303600,11.328303466796875,-0.23030630071163177,0.4545784358255565,-0.9172679896533489
1733851316907272700,11.338272705078126,-0.3331003202319145,0.5773761095851659,-0.8059639159411192
1733851316917240600,11.348240478515624,-0.5006342306882142,0.7407652483869344,-0.7249719783842563
1733851316927209700,11.358209716796875,-0.7279764208972453,0.7189728840999304,-0.846487064987421
1733851316937178600,11.3681787109375,-0.9487076685339212,0.6387373909335583,-1.0363958888590334
1733851316947146800,11.378146728515626,-1.048494907453656,0.5259887444362044,-1.0573422307759524
1733851316957115600,11.38811572265625,-1.0537900912523268,0.41412616005837916,-0.9103577718734741
1733851316967083800,11.398083740234375,-1.0071855764657258,0.3591976882364601,-0.7016513085514307
1733851316977052700,11.408052734375,-0.9740092830508946,0.2714836758829653,-0.5994342121362686
1733851316987020800,11.418020751953126,-0.9301280557483435,0.2956376547347754,-0.5715922654867172
1733851316996989700,11.42798974609375,-0.9755483291864394,0.41125783808045085,-0.5076783039808273
1733851317006957800,11.437957763671875,-1.073293833145499,0.3489301228526979,-0.46894905261397357
1733851317016926700,11.4479267578125,-1.3229291037052868,0.2854485614147037,-0.5142337169736624
1733851317026896000,11.457895751953124,-1.5721651458144188,0.2276406616989523,-0.6052417293712496
1733851317036863700,11.46786376953125,-1.5755688167780637,0.06934161257781088,-0.6760907508373261
1733851317046833000,11.4778330078125,-1.6714152091175316,-0.0661802990026772,-0.8453174366861581
1733851317056800500,11.487800537109376,-1.7091589565783738,-0.01683240379206836,-0.871556332053244
1733851317066769700,11.497769775390625,-1.6246984661281108,0.06468560346551239,-0.8690195070520043
1733851317076737500,11.507737548828125,-1.498034326198697,0.20991342795901,-0.872740573401749
1733851317086706700,11.517706787109375,-1.4024708424538372,0.388184201811254,-0.7545099152967333
1733851317096675600,11.527675537109374,-1.461301217085123,0.602264467126131,-0.6598860504895449
1733851317106643700,11.537643798828125,-1.4142419442683458,0.771383308686316,-0.6417825307831168
1733851317116612600,11.547612548828125,-1.3684580982148646,0.6401702002156525,-0.6970061130940913
1733851317126580700,11.557580810546876,-1.2693442285120486,0.3741944740992039,-0.6465560287952423
1733851317136549600,11.567549560546874,-1.2293342896848916,0.23949396190419792,-0.43757893183827395
1733851317146517800,11.577517822265625,-1.0941326230347155,0.13951638804413377,-0.24932342813163993
1733851317156486700,11.587486572265625,-0.9379472050666808,0.09400953230112791,-0.22655001691803334
1733851317166455800,11.597455810546874,-0.702180300861597,0.08092983210608362,-0.23378099108487366
1733851317176423700,11.607423583984374,-0.4477858530759811,0.14894918310418725,-0.3407315457627177
1733851317186392800,11.617392822265625,-0.2489443656861782,0.2616320708889514,-0.4225027971290052
1733851317196360700,11.627360595703125,-0.09016600861549377,0.3921692528594285,-0.4784700374141335
1733851317206329600,11.63732958984375,-0.0027039982616901396,0.4930653298038989,-0.5218251950159669
1733851317216297700,11.647297607421875,0.14406711015105247,0.5504124801401049,-0.5009186005875468
1733851317226266600,11.6572666015625,0.36071254977881906,0.5067351413791998,-0.4281391955807805
1733851317236235500,11.667235595703126,0.5094517433941363,0.36941564232483504,-0.4528993966974318
1733851317246203600,11.67720361328125,0.6335398953557014,0.2950473241588101,-0.3589063040744513
1733851317256172500,11.687172607421875,0.6851485020399093,0.19261081283930687,-0.4481864697661251
1733851317266140700,11.697140625,0.6057680913329124,0.07669117162302136,-0.67302011122033
1733851317276109600,11.707109619140626,0.39651919169723987,-0.047478484609536825,-0.9555796731952577
1733851317286077700,11.71707763671875,0.03256079186499119,-0.5750380950916558,-1.0653788953024894
1733851317296046800,11.727046875,-0.1816191344320774,-1.8428171931788324,-0.35893911036550996
1733851317306014700,11.7370146484375,-3.526202533814311,-2.149986807209998,1.5522263735048472
1733851317315984000,11.74698388671875,-12.468387329065798,-0.6717361358243972,1.7372285745039582
1733851317325952800,11.756952880859375,-14.299351879626512,0.5119563466262071,1.8295237041026353
1733851317335921000,11.7669208984375,-12.495541877973078,0.28831673726215956,3.2500366914644836
1733851317345889800,11.776889892578126,-3.0598364834308622,1.7986071723133326,1.791589987027645
1733851317355857700,11.786857666015624,-0.4531342283666134,1.8238710851684212,2.4135499192267655
1733851317365826600,11.79682666015625,0.28048984302878377,1.1227705423675476,2.5582056429207323
1733851317375794700,11.806794677734375,0.029523031604290005,0.5546974274503067,0.7980236244611442
1733851317385763600,11.816763671875,-0.0471083726555109,0.22348958816779776,-0.8921594134904444
1733851317395732700,11.826732666015625,-1.44312258631587,-0.5134159708499908,-1.5647016780659555
1733851317405700600,11.83670068359375,-2.2274241210252046,-1.8257380480840801,-2.426639702424407
1733851317415669800,11.846669677734376,-2.3680191711515186,-2.463960548298061,-3.20753055190742
1733851317425637600,11.8566376953125,-2.6510148595213887,-2.2417333630152045,-3.370619173392653
1733851317435606800,11.866606689453125,-3.343839887538552,-1.680867366465181,-2.5094302138358353
1733851317445574700,11.87657470703125,-3.7865842393159865,-0.23804690490104258,-0.9933090268045663
1733851317455543800,11.886543701171876,-3.900003697746992,0.695867829779163,0.6166536424845457
1733851317465512700,11.8965126953125,-4.06254169961214,1.2794773538611828,2.063335236456245
1733851317475480800,11.906480712890625,-4.108793163177371,1.5352340299107134,3.1578423918917773
1733851317485449700,11.91644970703125,-4.0776720487266775,1.3352321204394102,3.9286505310386417
1733851317495417600,11.92641748046875,-4.009361898088455,0.8393788404174148,3.8962650957405565
1733851317505386500,11.936386474609375,-3.805274326738715,0.1351355974103324,3.022686610209942
1733851317515354600,11.946354736328125,-3.479724275755882,-0.4543098114846274,1.5573641747847198
1733851317525323500,11.956323486328126,-3.2087159622997046,-0.7542826093468815,0.320360519515723
1733851317535292700,11.966292724609374,-2.9130887558937073,-0.9129686850242316,-0.7383075530365109
1733851317545260500,11.976260498046875,-2.702541048619151,-1.0015368299890308,-1.7655641498893497
1733851317555229700,11.986229736328125,-2.522909288612008,-0.9923393049895762,-2.5884298085317012
1733851317565197800,11.99619775390625,-2.3931191256165505,-0.7713919303841889,-2.986660188060999
1733851317575166700,12.006166748046875,-2.1414701771467923,-0.4000918990848586,-3.0303017613887784
1733851317585134800,12.016134765625,-2.008823455676436,-0.03490101658189669,-2.864104360233247
1733851317595103700,12.026103759765626,-1.8903338543742894,0.3528447755457833,-2.614214238129556
1733851317605072000,12.03607177734375,-1.6809639587074516,0.5491609091764316,-2.4793431186079977
1733851317615040800,12.046040771484375,-1.5410644896298646,0.5499486985532567,-2.4293778952166436
1733851317625009700,12.056009765625,-1.451269067892432,0.25932971223071216,-2.368155949273705
1733851317634977500,12.0659775390625,-1.191222293433547,-0.1944324022432789,-2.3883745614379643
1733851317644946700,12.07594677734375,-1.0042027612626552,-0.4936134286733344,-2.3957985739588734
1733851317654914600,12.08591455078125,-0.870737709146738,-0.41510505156051364,-2.369507363882661
1733851317664883700,12.0958837890625,-0.7930033120810985,-0.08168591117039323,-2.2834821083337067
1733851317674851600,12.1058515625,-0.8494435767054558,0.2919691953551024,-2.125558322265744
1733851317684820700,12.11582080078125,-0.9231143775939941,0.5201992377819493,-1.9422095875620842
1733851317694789600,12.12578955078125,-0.9156786746352911,0.5379964680181816,-1.836411710050702
1733851317704757800,12.1357578125,-0.8528332191437482,0.4103494910638779,-1.7948773381352423
1733851317714726700,12.1457265625,-0.7830401364713907,0.2633582736270502,-2.026120627436042
1733851317724694800,12.15569482421875,-0.599545271295309,0.11974767507184296,-2.243163541948795
1733851317734663700,12.16566357421875,-0.5187397962212562,-0.027361031264811753,-2.3580004659622906
1733851317744631800,12.1756318359375,-0.5252355879813433,-0.2240261244636029,-2.474246087729931
1733851317754600700,12.1856005859375,-0.44653789884150025,-0.3133781863477081,-2.536592946049571
1733851317764568800,12.19556884765625,-0.363185661894083,-0.2449019218949601,-2.461927288904786
1733851317774537700,12.205537841796875,-0.2874444844722748,-0.06736647657994181,-2.2235312052398917
1733851317784507000,12.2155068359375,-0.2157306628704071,0.10311294927634299,-2.0414602353870865
1733851317794474500,12.225474609375,-0.10625731171667575,0.2765742039550096,-2.011543820551038
1733851317804443600,12.235443603515625,0.08813128791749476,0.3950659606816247,-1.9975135416328906
1733851317814411500,12.24541162109375,0.14245207616984842,0.35600371450074014,-1.9741420183956622
1733851317824380700,12.255380615234374,0.1765998449653387,0.2602824829109013,-1.863633478975296
1733851317834348800,12.265348876953125,0.2770259663105011,0.10972834882810711,-1.7983312779814005
1733851317844317700,12.275317626953125,0.4440913824722171,-0.04012370139993727,-1.6369371854543684
1733851317854286600,12.28528662109375,0.6634989802896976,-0.16072843169253317,-1.4535264914304018
1733851317864254700,12.295254638671874,0.7432879717975854,-0.286387522765249,-1.3853624712646007
1733851317874223600,12.3052236328125,0.7557505630075931,-0.32348530047275126,-1.368477971959114
1733851317884192000,12.31519189453125,0.7612967989578843,-0.3213008691057563,-1.4818383936792612
1733851317894161000,12.325160888671874,0.626276334093511,-0.1573373462158255,-1.5272621742486954
1733851317904129000,12.33512890625,0.4399795632392168,0.18799619518332183,-1.3363865511715411
1733851317914098000,12.345097900390625,0.25213819329142567,0.571710046647489,-1.1509890672445298
1733851317924067000,12.355067138671876,0.13430910172462462,0.8672675488181412,-1.0772884557396172
1733851317934035000,12.365034912109374,0.08167173651456833,0.9834640707470476,-1.014872623836994
1733851317944004000,12.375004150390625,0.15007394935041665,0.7990970989115536,-1.0903262164890766
1733851317953972200,12.38497216796875,0.30120588332116605,0.4404390705097466,-1.1692290728121995
1733851317963941000,12.394941162109374,0.4975216516256332,0.015732918117567895,-1.0917401749402285
1733851317973909200,12.4049091796875,0.7018126365929842,-0.31664325255826115,-1.0555705449283121
1733851317983878100,12.414878173828125,0.7791378683358431,-0.5038948764519766,-1.1450059011816978
