time,seconds_elapsed,z,y,x
1733851305592943600,0.023943603515625,-0.36913806200027466,-1.062644362449646,1.2261056900024414
1733851305602912800,0.033912841796875,-0.2763004004955292,-1.0944790840148926,1.3523045778274536
1733851305612880600,0.043880615234375,-0.2098042219877243,-1.251328945159912,1.4816806316375732
1733851305622849800,0.053849853515625,-0.23332634568214417,-1.3659203052520752,1.5818947553634644
1733851305632818700,0.063818603515625,-0.2941063344478607,-1.4828834533691406,1.6726312637329102
1733851305642786800,0.073786865234375,-0.32924947142601013,-1.4559376239776611,1.7376011610031128
1733851305652755700,0.083755615234375,-0.31255704164505005,-1.3724392652511597,1.769046425819397
1733851305662723800,0.093723876953125,-0.2798721194267273,-1.2797354459762573,1.7988338470458984
1733851305672692700,0.103692626953125,-0.26172134280204773,-1.2156521081924438,1.799090027809143
1733851305682660600,0.11366064453125,-0.17550060153007507,-1.251387119293213,1.7537122964859009
1733851305692629500,0.12362939453125,0.03364463150501251,-1.3059896230697632,1.702530860900879
1733851305702597600,0.13359765625,0.2736316919326782,-1.3838698863983154,1.662832260131836
1733851305712566500,0.14356640625,0.41172778606414795,-1.4396711587905884,1.546122431755066
1733851305722535700,0.15353564453125,0.4262479543685913,-1.547585129737854,1.358725666999817
1733851305732503600,0.163503662109375,0.4264514148235321,-1.4790034294128418,1.0776028633117676
1733851305742472700,0.17347265625,0.24660624563694,-1.7059342861175537,0.9280770421028137
1733851305752440600,0.183440673828125,0.06904370337724686,-2.0370030403137207,0.909527599811554
1733851305762409700,0.19340966796875,-0.09259038418531418,-2.2027106285095215,0.9638371467590332
1733851305772377900,0.2033779296875,-0.25285303592681885,-2.13085675239563,1.0207850933074951
1733851305782346800,0.2133466796875,-0.43511077761650085,-1.9131667613983154,0.9970027208328247
1733851305792315000,0.22331494140625,-0.6391448378562927,-1.7731640338897705,0.9317094683647156
1733851305802283800,0.23328369140625,-0.7497456669807434,-1.487583041191101,0.939556360244751
1733851305812252700,0.243252685546875,-0.770990788936615,-0.9791374206542969,0.9707382321357727
1733851305822220800,0.253220703125,-0.859614372253418,-0.4066968560218811,0.9122008085250854
1733851305832189700,0.263189697265625,-0.9628073573112488,-0.020326504483819008,0.9725469350814819
1733851305842157600,0.273157470703125,-0.9514291882514954,0.18843774497509003,1.0735628604888916
1733851305852126700,0.283126708984375,-0.9006094336509705,0.1875370740890503,1.1250860691070557
1733851305862094600,0.293094482421875,-0.5225880146026611,0.132240429520607,1.0138206481933594
1733851305872063700,0.303063720703125,-0.24861103296279907,-0.13340188562870026,0.8886076211929321
1733851305882031600,0.313031494140625,-0.07669484615325928,-0.4755599796772003,0.8716811537742615
1733851305892000800,0.323000732421875,0.013228385709226131,-0.5306411385536194,0.8144029378890991
1733851305901969700,0.3329697265625,0.0410982146859169,-0.27393481135368347,0.6871263384819031
1733851305911937800,0.342937744140625,0.0363154411315918,0.06031239777803421,0.5343371033668518
1733851305921906700,0.35290673828125,0.018508847802877426,0.32795199751853943,0.4100677967071533
1733851305931874800,0.362874755859375,0.042704202234745026,0.49171507358551025,0.3870439827442169
1733851305941843700,0.37284375,0.07809942960739136,0.6433166861534119,0.4437240958213806
1733851305951811800,0.382811767578125,0.12157446891069412,0.7551484107971191,0.4755376875400543
1733851305961780700,0.39278076171875,0.14142544567584991,0.7580698132514954,0.37808138132095337
1733851305971748900,0.402748779296875,0.1366349458694458,0.6586793065071106,0.16874518990516663
1733851305981717800,0.4127177734375,0.11849414557218552,0.4089151918888092,-0.0926835834980011
1733851305991687000,0.42268701171875,0.06985097378492355,0.1253276914358139,-0.2851947247982025
1733851306001654800,0.43265478515625,0.00011387682752683759,-0.08353029191493988,-0.32970207929611206
1733851306011624000,0.4426240234375,-0.0377458855509758,-0.2185586839914322,-0.23793114721775055
1733851306021591600,0.452591552734375,-0.014896241948008537,-0.31653210520744324,-0.07170645147562027
1733851306031560700,0.462560791015625,0.05030326545238495,-0.3940870761871338,0.06375843286514282
1733851306041528600,0.472528564453125,0.1371603012084961,-0.41548922657966614,0.14366237819194794
1733851306051497700,0.482497802734375,0.20645228028297424,-0.30936145782470703,0.17665894329547882
1733851306061465900,0.4924658203125,0.22060078382492065,-0.05387893691658974,0.17189495265483856
1733851306071434800,0.502434814453125,0.18695120513439178,0.21258151531219482,0.10146845132112503
1733851306081403600,0.512403564453125,0.1340380311012268,0.3800290524959564,-0.03420708701014519
1733851306091371800,0.522371826171875,0.07061805576086044,0.405876100063324,-0.20099712908267975
1733851306101340700,0.532340576171875,0.009200974367558956,0.3183819651603699,-0.33566173911094666
1733851306111308800,0.542308837890625,-0.021528709679841995,0.16019338369369507,-0.38530704379081726
1733851306121277700,0.552277587890625,-0.006147452164441347,0.06562869250774384,-0.34509024024009705
1733851306131245800,0.562245849609375,0.04679033160209656,0.038005318492650986,-0.24637776613235474
1733851306141214700,0.572214599609375,0.14033661782741547,0.05583735927939415,-0.12240252643823624
1733851306151184000,0.582183837890625,0.2197321057319641,0.07808487862348557,-0.0422230064868927
1733851306161152000,0.592152099609375,0.2815932333469391,0.09584393352270126,-0.010671704076230526
1733851306171121000,0.602120849609375,0.32138296961784363,0.11913487315177917,-0.01559535600244999
1733851306181088800,0.6120888671875,0.3372816741466522,0.18248924612998962,-0.05759590119123459
1733851306191057700,0.6220576171875,0.3365386724472046,0.223893404006958,-0.13944469392299652
1733851306201025800,0.63202587890625,0.2953570485115051,0.2638530731201172,-0.2413172572851181
1733851306210994700,0.64199462890625,0.26077723503112793,0.27952471375465393,-0.3388952314853668
1733851306220962800,0.651962890625,0.2496715486049652,0.27572253346443176,-0.3977721035480499
1733851306230931700,0.661931640625,0.25242072343826294,0.28395596146583557,-0.42672544717788696
1733851306240900900,0.67190087890625,0.26849621534347534,0.3562701344490051,-0.43374067544937134
1733851306250868700,0.68186865234375,0.3228417634963989,0.45352107286453247,-0.4480392038822174
1733851306260838000,0.691837890625,0.3966718316078186,0.5579087138175964,-0.4672080874443054
1733851306270805800,0.7018056640625,0.44407474994659424,0.6418134570121765,-0.47939231991767883
1733851306280775000,0.71177490234375,0.46393847465515137,0.6727597713470459,-0.5118362307548523
1733851306290742800,0.72174267578125,0.4461379051208496,0.692696213722229,-0.5572372674942017
1733851306300712000,0.7317119140625,0.40965548157691956,0.6926521062850952,-0.5852554440498352
1733851306310679600,0.741679443359375,0.3606937825679779,0.6725079417228699,-0.5894113183021545
1733851306320648700,0.751648681640625,0.32276877760887146,0.6609792113304138,-0.5707044005393982
1733851306330617600,0.76161767578125,0.2921328544616699,0.6954069137573242,-0.5393581986427307
1733851306340585700,0.771585693359375,0.2928483188152313,0.7341892123222351,-0.5374953150749207
1733851306350554600,0.7815546875,0.3158439099788666,0.7930434942245483,-0.5428227186203003
1733851306360522800,0.791522705078125,0.3570778965950012,0.8392577171325684,-0.5383508205413818
1733851306370491600,0.80149169921875,0.40904974937438965,0.8832808136940002,-0.5238783955574036
1733851306380459800,0.811459716796875,0.4410138428211212,0.924296498298645,-0.5047633051872253
1733851306390428700,0.8214287109375,0.43923220038414,0.9656590819358826,-0.517576277256012
1733851306400396800,0.831396728515625,0.4518577754497528,1.02861487865448,-0.5452169179916382
1733851306410365700,0.84136572265625,0.476716011762619,1.1130890846252441,-0.5582872033119202
1733851306420334800,0.8513349609375,0.49153369665145874,1.185326337814331,-0.5552823543548584
1733851306430303000,0.861302978515625,0.49118107557296753,1.2599539756774902,-0.5490590929985046
1733851306440272000,0.87127197265625,0.48688948154449463,1.3215519189834595,-0.517399787902832
1733851306450240000,0.881239990234375,0.46609392762184143,1.3448573350906372,-0.4854101538658142
1733851306460209000,0.891208984375,0.45214200019836426,1.356521725654602,-0.4581132233142853
1733851306470176800,0.9011767578125,0.4468303322792053,1.3439263105392456,-0.4293944835662842
1733851306480145700,0.911145751953125,0.47155651450157166,1.3222594261169434,-0.4346694052219391
1733851306490114800,0.92111474609375,0.5058615207672119,1.3425052165985107,-0.4628286063671112
1733851306500082700,0.931082763671875,0.5471032857894897,1.37832772731781,-0.48568326234817505
1733851306510051800,0.9410517578125,0.5835111141204834,1.3980498313903809,-0.4997977316379547
1733851306520019700,0.951019775390625,0.5945723652839661,1.4329032897949219,-0.49545031785964966
1733851306529988900,0.96098876953125,0.575891375541687,1.449259638786316,-0.4807819128036499
1733851306539956700,0.970956787109375,0.5359722375869751,1.4582388401031494,-0.4653058648109436
1733851306549926000,0.98092578125,0.4929787218570709,1.4784539937973022,-0.454289972782135
1733851306559893800,0.990893798828125,0.46806350350379944,1.4913228750228882,-0.4419601857662201
1733851306569863000,1.00086279296875,0.4701436758041382,1.477957010269165,-0.40065667033195496
1733851306579831800,1.010831787109375,0.4748714864253998,1.4723597764968872,-0.3710375130176544
1733851306589800000,1.020800048828125,0.4900000989437103,1.4909558296203613,-0.36287757754325867
1733851306599768800,1.030768798828125,0.5158826112747192,1.5134531259536743,-0.3567773699760437
1733851306609736700,1.04073681640625,0.5345385670661926,1.5353271961212158,-0.3569784462451935
1733851306619705600,1.05070556640625,0.5506623983383179,1.552091360092163,-0.36138856410980225
1733851306629673700,1.060673828125,0.5572893619537354,1.5709404945373535,-0.3573477268218994
1733851306639642600,1.070642578125,0.5481644868850708,1.5942882299423218,-0.34635981917381287
1733851306649611800,1.08061181640625,0.5309684872627258,1.5948692560195923,-0.3261682391166687
1733851306659579600,1.09057958984375,0.4975259006023407,1.5953019857406616,-0.2927453815937042
1733851306669548800,1.100548828125,0.4612387418746948,1.5878584384918213,-0.2678743898868561
1733851306679516700,1.1105166015625,0.4338141679763794,1.5740916728973389,-0.256573885679245
1733851306689485800,1.12048583984375,0.4276313781738281,1.558828592300415,-0.26300379633903503
1733851306699454000,1.130453857421875,0.4285280108451843,1.5262585878372192,-0.2913858890533447
1733851306709422800,1.1404228515625,0.44551604986190796,1.510429859161377,-0.3276522755622864
1733851306719391000,1.150390869140625,0.4709067642688751,1.4873440265655518,-0.3368496894836426
1733851306729360000,1.16035986328125,0.48071011900901794,1.4688571691513062,-0.3307827413082123
1733851306739328800,1.170328857421875,0.4844319820404053,1.4497781991958618,-0.32445842027664185
1733851306749296600,1.180296630859375,0.4598805606365204,1.4320915937423706,-0.3178173005580902
1733851306759265500,1.190265625,0.40760061144828796,1.3865693807601929,-0.3151700496673584
1733851306769233700,1.200233642578125,0.35290008783340454,1.3301963806152344,-0.30153971910476685
1733851306779202800,1.210202880859375,0.3117503523826599,1.2499926090240479,-0.29389071464538574
1733851306789170700,1.220170654296875,0.27986645698547363,1.1621756553649902,-0.2889510691165924
1733851306799139800,1.230139892578125,0.25909581780433655,1.0821428298950195,-0.2982684373855591
1733851306809107700,1.240107666015625,0.2527793347835541,1.0096741914749146,-0.319078654050827
1733851306819076900,1.250076904296875,0.24683958292007446,0.9339398741722107,-0.34200844168663025
1733851306829045800,1.260045654296875,0.2453434318304062,0.85486900806427,-0.36623281240463257
1733851306839014000,1.270013916015625,0.24577201902866364,0.7731611728668213,-0.37108445167541504
1733851306848982800,1.279982666015625,0.22908705472946167,0.6945582628250122,-0.36555251479148865
1733851306858951000,1.289950927734375,0.1973988115787506,0.6062608361244202,-0.34998610615730286
1733851306868919800,1.299919921875,0.1674606204032898,0.5161056518554688,-0.3264213800430298
1733851306878888000,1.309887939453125,0.1350933462381363,0.44033557176589966,-0.2960091233253479
1733851306888856800,1.31985693359375,0.1049540713429451,0.3736273944377899,-0.25454211235046387
1733851306898826000,1.329825927734375,0.07758289575576782,0.29130667448043823,-0.21605008840560913
1733851306908793600,1.339793701171875,0.059162337332963943,0.21060144901275635,-0.19694510102272034
1733851306918762800,1.3497626953125,0.042044539004564285,0.1265241503715515,-0.1869449019432068
1733851306928730600,1.359730712890625,0.036565881222486496,0.04732706397771835,-0.177140474319458
1733851306938699800,1.36969970703125,0.04259802773594856,-0.02785686030983925,-0.1503399908542633
1733851306948667600,1.379667724609375,0.051630668342113495,-0.11987093836069107,-0.10778506100177765
1733851306958636800,1.38963671875,0.055509861558675766,-0.2249799221754074,-0.06925724446773529
1733851306968605000,1.39960498046875,0.06120369955897331,-0.3362680971622467,-0.024579256772994995
1733851306978573800,1.40957373046875,0.05438373237848282,-0.4551277458667755,0.023017948493361473
1733851306988542700,1.419542724609375,0.03145550936460495,-0.5788057446479797,0.05434870719909668
1733851306998510800,1.4295107421875,0.0142849525436759,-0.6910260319709778,0.07308485358953476
1733851307008479700,1.439479736328125,-0.00014858116628602147,-0.7786954641342163,0.09521731734275818
1733851307018448000,1.44944775390625,-0.009207604452967644,-0.8372930288314819,0.11661628633737564
1733851307028416800,1.459416748046875,-0.011121351271867752,-0.8802312016487122,0.13913117349147797
1733851307038384600,1.469384521484375,-0.0018475411925464869,-0.9100497961044312,0.16098986566066742
1733851307048353800,1.479353759765625,0.020692655816674232,-0.9541720151901245,0.18234603106975555
1733851307058322700,1.48932275390625,0.04490507021546364,-1.017318606376648,0.19926685094833374
1733851307068290800,1.499290771484375,0.061122387647628784,-1.105916976928711,0.19246673583984375
1733851307078259700,1.509259765625,0.05275567248463631,-1.2162426710128784,0.1576082855463028
1733851307088227800,1.519227783203125,0.02520580217242241,-1.3464810848236084,0.12071791291236877
1733851307098196700,1.52919677734375,-0.01594804972410202,-1.4839024543762207,0.09672653675079346
1733851307108164900,1.539164794921875,-0.05676206201314926,-1.6108946800231934,0.10892434418201447
1733851307118133800,1.5491337890625,-0.08855540305376053,-1.7422910928726196,0.13402438163757324
1733851307128102000,1.559101806640625,-0.10627660900354385,-1.8602169752120972,0.15704980492591858
1733851307138070800,1.56907080078125,-0.10897062718868256,-1.978275179862976,0.19156882166862488
1733851307148040000,1.5790400390625,-0.11618353426456451,-2.0964624881744385,0.24601581692695618
1733851307158007800,1.5890078125,-0.1380612701177597,-2.227858304977417,0.2911168336868286
1733851307167977000,1.59897705078125,-0.16976194083690643,-2.3255858421325684,0.30477750301361084
1733851307177944600,1.608944580078125,-0.2074667066335678,-2.356098175048828,0.270859956741333
1733851307187914000,1.6189140625,-0.24837738275527954,-2.3385751247406006,0.22927230596542358
1733851307197881600,1.628881591796875,-0.29233628511428833,-2.2960309982299805,0.1844497174024582
1733851307207850800,1.638850830078125,-0.3282202482223511,-2.244314432144165,0.14120717346668243
1733851307217819600,1.648819580078125,-0.3568752706050873,-2.189019203186035,0.11004513502120972
1733851307227787800,1.658787841796875,-0.3863258361816406,-2.156512975692749,0.08998407423496246
1733851307237756700,1.668756591796875,-0.4141342043876648,-2.1527419090270996,0.08789671957492828
1733851307247724800,1.678724853515625,-0.44010400772094727,-2.164341449737549,0.09071381390094757
1733851307257693700,1.688693603515625,-0.46246808767318726,-2.2012343406677246,0.0957123339176178
1733851307267661800,1.698661865234375,-0.4752912223339081,-2.2794435024261475,0.10605365037918091
1733851307277630700,1.708630615234375,-0.47667694091796875,-2.3479199409484863,0.08407188951969147
1733851307287599900,1.718599853515625,-0.47433069348335266,-2.372810125350952,0.0348617322742939
1733851307297567700,1.728567626953125,-0.4681245684623718,-2.395717144012451,-0.040599942207336426
1733851307307537000,1.738536865234375,-0.4607827663421631,-2.447683095932007,-0.11347601562738419
1733851307317504800,1.7485048828125,-0.4728076756000519,-2.498908758163452,-0.16850467026233673
1733851307327474000,1.758473876953125,-0.4834749698638916,-2.554461717605591,-0.18868184089660645
1733851307337441800,1.76844189453125,-0.4721488654613495,-2.6209373474121094,-0.16053223609924316
1733851307347410700,1.77841064453125,-0.5023528337478638,-2.65541934967041,-0.11278947442770004
1733851307357378800,1.78837890625,-0.5386568903923035,-2.6719729900360107,-0.06242639198899269
1733851307367347700,1.79834765625,-0.6032435894012451,-2.6679677963256836,-0.03281976655125618
1733851307377316600,1.808316650390625,-0.6925176978111267,-2.6869637966156006,-0.03830678015947342
1733851307387284700,1.81828466796875,-0.7385001182556152,-2.6872172355651855,-0.04352284595370293
1733851307397253600,1.828253662109375,-0.7457931041717529,-2.657604217529297,-0.04609031230211258
1733851307407221800,1.8382216796875,-0.7217279672622681,-2.5931782722473145,-0.06611328572034836
1733851307417191000,1.84819091796875,-0.6572510004043579,-2.5009961128234863,-0.08708784729242325
1733851307427158800,1.85815869140625,-0.5600448250770569,-2.391411304473877,-0.06490078568458557
1733851307437128000,1.8681279296875,-0.45792853832244873,-2.3102011680603027,-0.026046890765428543
1733851307447095800,1.878095703125,-0.38946533203125,-2.273998737335205,0.011654681526124477
1733851307457065000,1.88806494140625,-0.37911587953567505,-2.2893810272216797,0.04306430369615555
1733851307467033900,1.898033935546875,-0.4071965217590332,-2.300506353378296,0.07943323254585266
1733851307477001700,1.908001708984375,-0.46174731850624084,-2.2976934909820557,0.1194833368062973
1733851307486970600,1.917970703125,-0.5160350799560547,-2.2696194648742676,0.14086373150348663
1733851307496938800,1.927938720703125,-0.5486164689064026,-2.259247064590454,0.14956970512866974
1733851307506907600,1.93790771484375,-0.5431585907936096,-2.276344060897827,0.15591682493686676
1733851307516875800,1.947875732421875,-0.5041705369949341,-2.2985594272613525,0.16895020008087158
1733851307526844700,1.9578447265625,-0.4490811228752136,-2.320005178451538,0.18196186423301697
1733851307536813800,1.967813720703125,-0.37958645820617676,-2.3396012783050537,0.18905000388622284
1733851307546781700,1.97778173828125,-0.2914145290851593,-2.3282594680786133,0.16855910420417786
1733851307556750800,1.987750732421875,-0.23973682522773743,-2.2868235111236572,0.15353363752365112
1733851307566718700,1.99771875,-0.219541534781456,-2.2248902320861816,0.16703000664710999
1733851307576687900,2.00768798828125,-0.21329744160175323,-2.1428382396698,0.21372762322425842
1733851307586655700,2.01765576171875,-0.204965740442276,-2.0602500438690186,0.2786445617675781
1733851307596625000,2.027625,-0.21208852529525757,-2.042736768722534,0.34533828496932983
1733851307606593800,2.03759375,-0.21957680583000183,-2.0969598293304443,0.3759654462337494
1733851307616562000,2.04756201171875,-0.24337910115718842,-2.143167734146118,0.38174402713775635
1733851307626530800,2.05753076171875,-0.24512480199337006,-2.183525323867798,0.3716343939304352
1733851307636498700,2.067498779296875,-0.17895519733428955,-2.1307075023651123,0.32759368419647217
1733851307646467600,2.077467529296875,-0.11374609172344208,-1.935821533203125,0.2736036777496338
1733851307656435700,2.087435791015625,-0.033431243151426315,-1.7668834924697876,0.22004173696041107
1733851307666404600,2.097404541015625,0.01360337808728218,-1.7115033864974976,0.10634686797857285
1733851307676372700,2.107372802734375,-0.01245325617492199,-1.5730756521224976,0.11319172382354736
1733851307686342000,2.117341796875,0.09079323709011078,-1.1275607347488403,0.42234450578689575
1733851307696310800,2.127310791015625,0.1772104799747467,-1.230680227279663,0.9586753845214844
1733851307706279000,2.13727880859375,0.22980950772762299,-1.2875525951385498,1.526122808456421
1733851307716247800,2.147247802734375,0.27855384349823,-0.23111145198345184,2.0463733673095703
1733851307726216000,2.1572158203125,0.24983403086662292,0.045148640871047974,2.1970648765563965
1733851307736184800,2.167184814453125,0.0037098464090377092,0.42202305793762207,1.689515233039856
1733851307746153700,2.17715380859375,-0.35434842109680176,0.3212016522884369,0.4850621223449707
1733851307756121900,2.187121826171875,-0.2283201962709427,-0.024857759475708008,0.09519268572330475
1733851307766090800,2.1970908203125,-0.005516686011105776,0.03353577479720116,-0.23342646658420563
1733851307776058600,2.20705859375,0.051316697150468826,0.07247912883758545,-0.35101789236068726
1733851307786027800,2.21702783203125,0.018627725541591644,0.10312731564044952,-0.2915812134742737
1733851307795995600,2.22699560546875,-0.010200416669249535,0.14906969666481018,-0.19170258939266205
1733851307805964800,2.23696484375,0.013272684998810291,0.2083660364151001,-0.03685256466269493
1733851307815932700,2.2469326171875,0.044888053089380264,0.14649197459220886,0.1194336786866188
1733851307825901800,2.25690185546875,0.06001187860965729,-0.025451283901929855,0.22607891261577606
1733851307835870700,2.26687060546875,0.049076613038778305,-0.20001348853111267,0.2666849195957184
1733851307845838800,2.2768388671875,0.03744952008128166,-0.3062877058982849,0.24657350778579712
1733851307855807700,2.286807861328125,0.03140906244516373,-0.33091771602630615,0.14933614432811737
1733851307865775900,2.29677587890625,-0.0012442199513316154,-0.29707959294319153,0.040269847959280014
1733851307875744800,2.306744873046875,0.010037675499916077,-0.25736916065216064,-0.10542786121368408
1733851307885712600,2.316712646484375,0.030798081308603287,-0.1723485141992569,-0.22114886343479156
1733851307895681500,2.326681640625,0.03894366696476936,-0.11111806333065033,-0.2416284829378128
1733851307905650700,2.336650634765625,0.011767171323299408,-0.030999530106782913,-0.24298004806041718
1733851307915618600,2.34661865234375,-0.029124600812792778,0.09128963202238083,-0.2297966033220291
1733851307925587700,2.356587646484375,-0.061658840626478195,0.1932508796453476,-0.21535028517246246
1733851307935555600,2.3665556640625,-0.09012307971715927,0.2619275152683258,-0.19797705113887787
1733851307945524700,2.376524658203125,-0.10644000768661499,0.3048832416534424,-0.16902901232242584
1733851307955492600,2.38649267578125,-0.12101482599973679,0.3448522686958313,-0.15916883945465088
1733851307965461800,2.396461669921875,-0.1441670060157776,0.3137414753437042,-0.15946178138256073
1733851307975430700,2.4064306640625,-0.13411614298820496,0.332088828086853,-0.16077154874801636
1733851307985398800,2.416398681640625,-0.051452431827783585,0.4759272336959839,-0.1692558377981186
1733851307995367700,2.42636767578125,0.0798259899020195,0.6385990977287292,-0.11690463125705719
1733851308005335800,2.436335693359375,0.2093600183725357,0.7815812826156616,-0.039667628705501556
1733851308015304700,2.4463046875,0.28714683651924133,0.9283545017242432,0.03659495338797569
1733851308025272600,2.4562724609375,0.2997819483280182,1.1156584024429321,0.0793546661734581
1733851308035241700,2.46624169921875,0.28360986709594727,1.311864972114563,0.09300534427165985
1733851308045209600,2.476209716796875,0.25888189673423767,1.50135338306427,0.06398861110210419
1733851308055178800,2.4861787109375,0.2629641592502594,1.7121104001998901,0.024688061326742172
1733851308065147600,2.496147705078125,0.2992004454135895,1.9150151014328003,0.0011451853206381202
1733851308075115800,2.50611572265625,0.3327694237232208,2.0877065658569336,-0.012782053090631962
1733851308085084700,2.516084716796875,0.3399796783924103,2.2504842281341553,-0.002357375342398882
1733851308095052800,2.526052734375,0.33684036135673523,2.3877923488616943,0.031862515956163406
1733851308105021700,2.536021728515625,0.32896167039871216,2.47023606300354,0.03488413617014885
1733851308114989800,2.54598974609375,0.30151134729385376,2.5252106189727783,0.015477745793759823
1733851308124958700,2.555958740234375,0.2792840600013733,2.568887233734131,0.000571767333894968
1733851308134928000,2.565927978515625,0.2703801989555359,2.5969395637512207,-0.04465606063604355
1733851308144895700,2.575895751953125,0.2791542410850525,2.615438938140869,-0.10443311184644699
1733851308154865000,2.585864990234375,0.3237186074256897,2.642002820968628,-0.15098536014556885
1733851308164832500,2.59583251953125,0.409252405166626,2.685004711151123,-0.17614397406578064
1733851308174801700,2.6058017578125,0.48805177211761475,2.7178263664245605,-0.17545126378536224
1733851308184769500,2.61576953125,0.5443214178085327,2.7046687602996826,-0.17007885873317719
1733851308194738700,2.62573876953125,0.5758352875709534,2.6497175693511963,-0.150789275765419
1733851308204707600,2.63570751953125,0.5770068168640137,2.586716890335083,-0.13603776693344116
1733851308214675700,2.64567578125,0.5498157739639282,2.520599603652954,-0.11865454912185669
1733851308224644600,2.65564453125,0.5045213103294373,2.4568283557891846,-0.09896978735923767
1733851308234612700,2.66561279296875,0.46040502190589905,2.42213773727417,-0.12034935504198074
1733851308244581600,2.67558154296875,0.4295959770679474,2.43396258354187,-0.17609092593193054
1733851308254549800,2.6855498046875,0.4109877347946167,2.4642114639282227,-0.23941479623317719
1733851308264518700,2.6955185546875,0.4038669764995575,2.4925050735473633,-0.26151955127716064
1733851308274487800,2.70548779296875,0.4232789874076843,2.513256311416626,-0.2404324859380722
1733851308284455700,2.71545556640625,0.451246976852417,2.5241899490356445,-0.20850437879562378
1733851308294424800,2.7254248046875,0.4692445993423462,2.5382637977600098,-0.17931175231933594
1733851308304392700,2.735392822265625,0.47843649983406067,2.5549428462982178,-0.15279491245746613
1733851308314361900,2.74536181640625,0.47622281312942505,2.582277774810791,-0.1113300547003746
1733851308324329700,2.755329833984375,0.45055311918258667,2.602437734603882,-0.05636134743690491
1733851308334298600,2.765298583984375,0.3910244107246399,2.597564458847046,-0.006446018815040588
1733851308344267500,2.775267578125,0.31855180859565735,2.56907057762146,0.022742757573723793
1733851308354235600,2.785235595703125,0.253409206867218,2.503748893737793,0.02391299419105053
1733851308364204500,2.79520458984375,0.2053317129611969,2.418961524963379,-0.0032041105441749096
1733851308374172700,2.805172607421875,0.20708127319812775,2.338505506515503,-0.005689337849617004
1733851308384141600,2.8151416015625,0.23540665209293365,2.25980806350708,-0.0011260116007179022
1733851308394109700,2.825109619140625,0.29421085119247437,2.2115261554718018,-0.012218794785439968
1733851308404078800,2.835078857421875,0.35999998450279236,2.1759917736053467,-0.0051773968152701855
1733851308414047700,2.8450478515625,0.3966628909111023,2.1298484802246094,0.010501942597329617
1733851308424016000,2.855015869140625,0.3853239417076111,2.095924139022827,0.03202427923679352
1733851308433984800,2.86498486328125,0.3450377285480499,2.089498281478882,0.0601724237203598
1733851308443953000,2.874952880859375,0.29502809047698975,2.0760433673858643,0.0925775021314621
1733851308453921800,2.884921875,0.24999958276748657,2.056389093399048,0.13137421011924744
1733851308463889700,2.8948896484375,0.22775232791900635,2.0294225215911865,0.14924268424510956
1733851308473858600,2.904858642578125,0.23217763006687164,2.0151467323303223,0.14026136696338654
1733851308483826700,2.91482666015625,0.2528674602508545,2.0012922286987305,0.11170642077922821
1733851308493795600,2.924795654296875,0.2877945303916931,1.9988981485366821,0.08174937963485718
1733851308503764700,2.9347646484375,0.33467522263526917,1.9959592819213867,0.06484310328960419
1733851308513732600,2.944732666015625,0.3715774416923523,1.9926294088363647,0.0605289526283741
1733851308523701800,2.95470166015625,0.37894028425216675,1.990597128868103,0.05167873576283455
1733851308533669600,2.964669677734375,0.3607364594936371,1.9735527038574219,0.05803143233060837
1733851308543638800,2.974638671875,0.3184204399585724,1.9611881971359253,0.05875102058053017
1733851308553606700,2.984606689453125,0.26427161693573,1.9464269876480103,0.040812067687511444
1733851308563575800,2.994575927734375,0.2237153947353363,1.937787413597107,0.007650652900338173
1733851308573544700,3.004544677734375,0.2045285999774933,1.9413167238235474,-0.036117956042289734
1733851308583512800,3.014512939453125,0.18343690037727356,1.932021975517273,-0.06657466292381287
1733851308593481700,3.024481689453125,0.19737602770328522,1.9053629636764526,-0.10028424113988876
1733851308603449600,3.03444970703125,0.2074688822031021,1.8650778532028198,-0.11879800260066986
1733851308613418500,3.04441845703125,0.19941586256027222,1.8139879703521729,-0.13488954305648804
1733851308623386600,3.05438671875,0.18167681992053986,1.767093539237976,-0.16080263257026672
1733851308633355500,3.06435546875,0.13772445917129517,1.7207751274108887,-0.18729616701602936
1733851308643324700,3.07432470703125,0.09664200991392136,1.6500189304351807,-0.20327965915203094
1733851308653292500,3.08429248046875,0.06763899326324463,1.5682992935180664,-0.21252797544002533
1733851308663261700,3.09426171875,0.05427710711956024,1.4689080715179443,-0.2237984836101532
1733851308673229600,3.1042294921875,0.05828654021024704,1.351269006729126,-0.22224965691566467
1733851308683198700,3.11419873046875,0.07166066765785217,1.2229275703430176,-0.21177251636981964
1733851308693166800,3.124166748046875,0.07080018520355225,1.0945487022399902,-0.19167663156986237
1733851308703135700,3.1341357421875,0.05662791058421135,0.9733269810676575,-0.16877450048923492
1733851308713104600,3.144104736328125,0.03167211636900902,0.879105269908905,-0.16986337304115295
1733851308723072800,3.15407275390625,0.00923391804099083,0.7834466099739075,-0.1584586501121521
1733851308733041700,3.164041748046875,0.00034148350823670626,0.6939968466758728,-0.1335783749818802
1733851308743009800,3.174009765625,0.005659549497067928,0.6130327582359314,-0.10662771016359329
1733851308752978700,3.183978759765625,0.0015468874480575323,0.5151823163032532,-0.06294946372509003
1733851308762946600,3.193946533203125,-0.011023499071598053,0.4076191484928131,-0.009641770273447037
1733851308772915700,3.203915771484375,-0.02673414908349514,0.2871163785457611,0.04765179753303528
1733851308782884600,3.213884521484375,-0.03394518792629242,0.15029382705688477,0.11711849272251129
1733851308792852700,3.223852783203125,-0.02641744166612625,0.028586557134985924,0.16867037117481232
1733851308802821600,3.233821533203125,-0.02058085799217224,-0.08961624652147293,0.19354961812496185
1733851308812789800,3.243789794921875,-0.011015638709068298,-0.2129829078912735,0.20582838356494904
1733851308822758700,3.253758544921875,-0.016651153564453125,-0.3159388601779938,0.2015920877456665
1733851308832726800,3.263726806640625,-0.03219418600201607,-0.42439696192741394,0.1922220140695572
1733851308842695700,3.27369580078125,-0.05446140840649605,-0.5346904397010803,0.18896523118019104
1733851308852664800,3.283664794921875,-0.0790075808763504,-0.6284434199333191,0.17966292798519135
1733851308862632700,3.2936328125,-0.0865083709359169,-0.70502769947052,0.17547829449176788
1733851308872601900,3.303601806640625,-0.08510345965623856,-0.7715458273887634,0.16953209042549133
1733851308882569700,3.31356982421875,-0.0776042714715004,-0.8079893589019775,0.16395996510982513
1733851308892539000,3.323538818359375,-0.06117573007941246,-0.8320735096931458,0.15923698246479034
1733851308902506800,3.3335068359375,-0.02627180889248848,-0.8288151025772095,0.15355166792869568
1733851308912476000,3.343475830078125,-0.0005623247707262635,-0.797739565372467,0.12969183921813965
1733851308922444800,3.35344482421875,0.016193486750125885,-0.7628257870674133,0.10652101039886475
1733851308932413000,3.363412841796875,0.02166026644408703,-0.7473859190940857,0.09819985926151276
1733851308942381800,3.3733818359375,0.014983722940087318,-0.7438009977340698,0.08737144619226456
1733851308952349700,3.383349609375,-0.004913508892059326,-0.7816102504730225,0.07799652218818665
1733851308962318800,3.39331884765625,-0.03298509120941162,-0.8362945318222046,0.06917320191860199
1733851308972286700,3.40328662109375,-0.07282935827970505,-0.9051923155784607,0.04187674820423126
1733851308982255600,3.413255615234375,-0.10906831920146942,-0.9959624409675598,0.02555582858622074
1733851308992224800,3.423224853515625,-0.12315235286951065,-1.081307053565979,0.03640191629528999
1733851309002192600,3.433192626953125,-0.10761653631925583,-1.1472413539886475,0.06719578057527542
1733851309012161800,3.443161865234375,-0.09198782593011856,-1.1938689947128296,0.09869484603404999
1733851309022129700,3.453129638671875,-0.06778208911418915,-1.2239136695861816,0.1283070594072342
1733851309032098800,3.463098876953125,-0.04877644032239914,-1.243712067604065,0.15655294060707092
1733851309042066700,3.473066650390625,-0.044347070157527924,-1.2705283164978027,0.1866069734096527
1733851309052035800,3.483035888671875,-0.05216033011674881,-1.322707176208496,0.22533926367759705
1733851309062004700,3.493004638671875,-0.06711530685424805,-1.3893051147460938,0.2603079080581665
1733851309071972900,3.502972900390625,-0.09265517443418503,-1.4652704000473022,0.28496891260147095
1733851309081941800,3.512941650390625,-0.11544863134622574,-1.5535796880722046,0.2830093502998352
1733851309091910000,3.522909912109375,-0.13668283820152283,-1.647506833076477,0.26523855328559875
1733851309101878800,3.532878662109375,-0.1438845545053482,-1.7380716800689697,0.2709944546222687
1733851309111846700,3.5428466796875,-0.15229028463363647,-1.8250702619552612,0.29689913988113403
1733851309121815800,3.55281591796875,-0.15991732478141785,-1.908616065979004,0.33089494705200195
1733851309131784700,3.56278466796875,-0.17141498625278473,-1.9778960943222046,0.35075464844703674
1733851309141752800,3.5727529296875,-0.19580954313278198,-2.0452120304107666,0.3620922565460205
1733851309151721700,3.5827216796875,-0.23077327013015747,-2.1038568019866943,0.36089932918548584
1733851309161689900,3.59268994140625,-0.26507240533828735,-2.159059762954712,0.34484046697616577
1733851309171658800,3.60265869140625,-0.3010748028755188,-2.206472635269165,0.32216453552246094
1733851309181627000,3.612626953125,-0.33486098051071167,-2.250811815261841,0.3077693581581116
1733851309191595800,3.622595703125,-0.3532411456108093,-2.282074451446533,0.3054826855659485
1733851309201564700,3.632564697265625,-0.36310654878616333,-2.293982744216919,0.32048743963241577
1733851309211532800,3.64253271484375,-0.37507131695747375,-2.2948341369628906,0.33521589636802673
1733851309221502000,3.652501953125,-0.3826732933521271,-2.2829294204711914,0.3415331542491913
1733851309231469800,3.6624697265625,-0.3756568729877472,-2.2841203212738037,0.33200493454933167
1733851309241439000,3.67243896484375,-0.3664282262325287,-2.32541823387146,0.29562216997146606
1733851309251406600,3.682406494140625,-0.36920487880706787,-2.4206414222717285,0.22154590487480164
1733851309261375700,3.692375732421875,-0.363295316696167,-2.5194640159606934,0.1311800479888916
1733851309271344600,3.7023447265625,-0.34401553869247437,-2.580249786376953,0.05830754339694977
1733851309281312800,3.712312744140625,-0.32206976413726807,-2.6344616413116455,0.003396888030692935
1733851309291281700,3.72228173828125,-0.29292920231819153,-2.65753436088562,-0.019373157992959023
1733851309301249800,3.732249755859375,-0.23840896785259247,-2.6489417552948,-0.016153927892446518
1733851309311218700,3.74221875,-0.17442536354064941,-2.6065077781677246,-0.01442597433924675
1733851309321186800,3.752186767578125,-0.11374017596244812,-2.548401117324829,-0.0064383563585579395
1733851309331155700,3.76215576171875,-0.07597682625055313,-2.4906888008117676,0.03728237748146057
1733851309341124900,3.772124755859375,-0.07263083010911942,-2.4723024368286133,0.12593767046928406
1733851309351092700,3.7820927734375,-0.10710460692644119,-2.4863009452819824,0.22674743831157684
1733851309361062000,3.792061767578125,-0.14507754147052765,-2.48974871635437,0.3129483759403229
1733851309371029800,3.80202978515625,-0.18693119287490845,-2.500095844268799,0.3698810338973999
1733851309380999000,3.8119990234375,-0.22341570258140564,-2.491117477416992,0.39254000782966614
1733851309390966800,3.821966796875,-0.26459333300590515,-2.4375553131103516,0.37769025564193726
1733851309400936000,3.83193603515625,-0.2782537639141083,-2.346764087677002,0.330298513174057
1733851309410904800,3.84190478515625,-0.2634510099887848,-2.224961519241333,0.27539846301078796
1733851309420872700,3.851872802734375,-0.23890705406665802,-2.1120553016662598,0.22343434393405914
1733851309430841600,3.861841552734375,-0.20417848229408264,-2.0580596923828125,0.1749316304922104
1733851309440809700,3.871809814453125,-0.14393006265163422,-2.0504322052001953,0.13583137094974518
1733851309450778600,3.881778564453125,-0.08271101117134094,-2.076446056365967,0.08369609713554382
1733851309460746800,3.891746826171875,-0.04577776789665222,-2.1115622520446777,0.039186421781778336
1733851309470715600,3.901715576171875,-0.03952687606215477,-2.1388964653015137,0.00965992920100689
1733851309480684800,3.911684814453125,-0.07030263543128967,-2.1307051181793213,-0.011442161165177822
1733851309490652700,3.921652587890625,-0.10515426099300385,-2.1173605918884277,-0.018041785806417465
1733851309500621800,3.931621826171875,-0.10877802222967148,-2.1034557819366455,0.003341265954077244
1733851309510590000,3.94158984375,-0.09383483231067657,-2.103583812713623,0.0499463826417923
1733851309520558800,3.951558837890625,-0.061393000185489655,-2.1614928245544434,0.07963263988494873
1733851309530527000,3.96152685546875,-0.035349778831005096,-2.245680332183838,0.09267909824848175
1733851309540496000,3.971495849609375,-0.00515033258125186,-2.266479969024658,0.10190322250127792
1733851309550464800,3.98146484375,0.04733269661664963,-2.2120416164398193,0.09007854759693146
1733851309560432600,3.9914326171875,0.0939827561378479,-2.1153085231781006,0.061528127640485764
1733851309570401800,4.00140185546875,0.1303166151046753,-2.0048797130584717,0.06559906154870987
1733851309580369700,4.01136962890625,0.15514633059501648,-1.90531587600708,0.11584891378879547
1733851309590338800,4.0213388671875,0.14161579310894012,-1.8631904125213623,0.15984179079532623
1733851309600307700,4.0313076171875,0.04784002527594566,-1.9350602626800537,0.10376547276973724
1733851309610275800,4.04127587890625,-0.08337818086147308,-1.956932544708252,0.06477173417806625
1733851309620244700,4.05124462890625,-0.16490179300308228,-1.9383410215377808,0.07277426868677139
1733851309630212900,4.061212890625,-0.1951453536748886,-2.002652883529663,0.07056805491447449
1733851309640181800,4.071181640625,-0.18233582377433777,-2.0379512310028076,0.022169629111886024
1733851309650150000,4.08114990234375,-0.13678078353405,-1.9872105121612549,-0.04179288446903229
1733851309660118800,4.091118896484375,-0.08319691568613052,-1.9357638359069824,-0.07948992401361465
1733851309670088000,4.101087890625,-0.047951240092515945,-1.8804680109024048,-0.11591695994138718
1733851309680055800,4.111055908203125,-0.04562470316886902,-1.3712447881698608,-0.3206445276737213
1733851309690025000,4.12102490234375,-0.013933592475950718,0.13829846680164337,-1.007123351097107
1733851309699992800,4.130992919921875,-0.046692073345184326,1.1233479976654053,-1.8035699129104614
1733851309709962000,4.1409619140625,0.038712307810783386,0.8341915011405945,-1.2447059154510498
1733851309719929600,4.1509296875,0.09181254357099533,-0.06376008689403534,0.17975451052188873
1733851309729898800,4.160898681640625,-0.1765776127576828,0.04224790260195732,0.009063534438610077
1733851309739867600,4.17086767578125,-0.08130809664726257,-0.10449174046516418,-0.10012633353471756
1733851309749835800,4.180835693359375,0.0597398467361927,-0.0025687620509415865,-0.2627875804901123
1733851309759804700,4.1908046875,0.13058525323867798,0.13559655845165253,-0.28258100152015686
1733851309769772800,4.200772705078125,0.18572492897510529,0.23277738690376282,-0.27822837233543396
1733851309779741700,4.21074169921875,0.22722069919109344,0.2060360461473465,-0.2624097466468811
1733851309789709800,4.220709716796875,0.2648318111896515,0.04437442496418953,-0.21695654094219208
1733851309799678700,4.2306787109375,0.26778444647789,-0.1304841935634613,-0.09215494990348816
1733851309809647900,4.24064794921875,0.14504054188728333,-0.3218625485897064,0.11791690438985825
1733851309819615700,4.25061572265625,-0.022025413811206818,-0.5288194417953491,0.37597721815109253
1733851309829585000,4.2605849609375,-0.18392927944660187,-0.6165188550949097,0.5277907848358154
1733851309839552800,4.270552734375,-0.2781639099121094,-0.5209619998931885,0.46607574820518494
1733851309849522000,4.28052197265625,-0.26617512106895447,-0.212581068277359,0.22331205010414124
1733851309859489800,4.29048974609375,-0.19177758693695068,0.13606107234954834,-0.046440865844488144
1733851309869458700,4.300458740234375,-0.10336662083864212,0.4724290072917938,-0.23075635731220245
1733851309879427600,4.310427490234375,0.017981113865971565,0.8134350776672363,-0.338814377784729
1733851309889395700,4.320395751953125,0.17033611238002777,1.192165732383728,-0.3322579860687256
1733851309899364600,4.330364501953125,0.3095288574695587,1.4853187799453735,-0.21972769498825073
1733851309909332700,4.340332763671875,0.3599781394004822,1.7245210409164429,-0.03734971210360527
1733851309919301600,4.350301513671875,0.3059122562408447,1.9200726747512817,0.16444624960422516
1733851309929269800,4.360269775390625,0.218398779630661,2.076447010040283,0.2932657301425934
1733851309939239000,4.370239013671875,0.1107061430811882,2.249420166015625,0.35186856985092163
1733851309949207800,4.380207763671875,0.03265034034848213,2.4006600379943848,0.3526700735092163
1733851309959176000,4.390176025390625,-0.009121343493461609,2.4946019649505615,0.31537461280822754
1733851309969144800,4.400144775390625,-0.0009779869578778744,2.543480396270752,0.2606370747089386
1733851309979113000,4.410113037109375,0.05408313497900963,2.5756142139434814,0.1968011111021042
1733851309989081900,4.420081787109375,0.14613685011863708,2.615013837814331,0.14540468156337738
1733851309999050800,4.43005078125,0.2585776448249817,2.673764228820801,0.12158536165952682
1733851310009018600,4.4400185546875,0.34176507592201233,2.723499298095703,0.11479020118713379
1733851310018987800,4.44998779296875,0.3756713569164276,2.793076276779175,0.11368472874164581
1733851310028955600,4.45995556640625,0.3792962431907654,2.843505859375,0.1169256865978241
1733851310038924800,4.4699248046875,0.3412929177284241,2.8693923950195312,0.11860907077789307
1733851310048892700,4.479892578125,0.28727293014526367,2.859687089920044,0.1074381172657013
1733851310058861800,4.48986181640625,0.23276574909687042,2.853060245513916,0.08535465598106384
1733851310068830700,4.499830810546875,0.19168592989444733,2.83856201171875,0.04480322450399399
1733851310078798800,4.509798828125,0.18418434262275696,2.8344781398773193,-0.00041458988562226295
1733851310088767700,4.519767822265625,0.2171877920627594,2.8216676712036133,-0.025894327089190483
1733851310098735900,4.52973583984375,0.2836855947971344,2.8067545890808105,-0.03422336280345917
1733851310108704800,4.539704833984375,0.3716377019882202,2.780869483947754,-0.02848733775317669
1733851310118673000,4.5496728515625,0.41164448857307434,2.770493984222412,-0.030381644144654274
1733851310128641800,4.559641845703125,0.3999790549278259,2.7734029293060303,-0.04942131042480469
1733851310138611000,4.56961083984375,0.3514258861541748,2.761845111846924,-0.0565418042242527
1733851310148578800,4.579578857421875,0.2754991054534912,2.7425930500030518,-0.06620797514915466
1733851310158548000,4.5895478515625,0.18601448833942413,2.701300859451294,-0.06499943137168884
1733851310168515600,4.599515625,0.12374047935009003,2.628063440322876,-0.060920197516679764
1733851310178484700,4.609484619140625,0.10525202006101608,2.5591681003570557,-0.06462518870830536
1733851310188452600,4.61945263671875,0.12906429171562195,2.4701623916625977,-0.06371987611055374
1733851310198421800,4.629421875,0.20050358772277832,2.3657193183898926,-0.06742699444293976
1733851310208390700,4.639390625,0.2783101797103882,2.257120132446289,-0.08551564067602158
1733851310218358800,4.64935888671875,0.35084882378578186,2.1754260063171387,-0.12336182594299316
1733851310228327700,4.65932763671875,0.3833317160606384,2.1360957622528076,-0.1417142003774643
1733851310238295800,4.6692958984375,0.37832897901535034,2.1018707752227783,-0.15913020074367523
1733851310248264700,4.6792646484375,0.3508901000022888,2.10107421875,-0.20963747799396515
1733851310258232800,4.68923291015625,0.31316933035850525,2.0666213035583496,-0.24679790437221527
1733851310268201700,4.69920166015625,0.26689693331718445,1.9812521934509277,-0.26269617676734924
1733851310278171000,4.7091708984375,0.22894442081451416,1.8753066062927246,-0.2873882055282593
1733851310288138800,4.719138671875,0.19869668781757355,1.7781404256820679,-0.28649500012397766
1733851310298108000,4.72910791015625,0.1896776258945465,1.6751480102539062,-0.27918383479118347
1733851310308075800,4.73907568359375,0.18421199917793274,1.6133756637573242,-0.3065084218978882
1733851310318044700,4.749044677734375,0.18008969724178314,1.5712740421295166,-0.3794785141944885
1733851310328013800,4.759013916015625,0.1964760571718216,1.5392121076583862,-0.4798238277435303
1733851310337981700,4.768981689453125,0.20699207484722137,1.5282078981399536,-0.5806242227554321
1733851310347950600,4.77895068359375,0.20003563165664673,1.5135117769241333,-0.6457648277282715
1733851310357918700,4.788918701171875,0.18802398443222046,1.4849166870117188,-0.6989082098007202
1733851310367887600,4.7988876953125,0.18832901120185852,1.468858242034912,-0.7464253306388855
1733851310377855700,4.808855712890625,0.20186692476272583,1.4395527839660645,-0.789202868938446
1733851310387825000,4.818824951171875,0.2601189613342285,1.4436707496643066,-0.8186260461807251
1733851310397793800,4.828793701171875,0.3440258502960205,1.425337791442871,-0.8112764954566956
1733851310407762000,4.838761962890625,0.3958081007003784,1.4191776514053345,-0.8092219829559326
1733851310417730800,4.848730712890625,0.4062082767486572,1.4256064891815186,-0.7923641204833984
1733851310427699000,4.858698974609375,0.38376519083976746,1.4338401556015015,-0.7375275492668152
1733851310437667800,4.868667724609375,0.34488409757614136,1.4362188577651978,-0.6621768474578857
1733851310447636000,4.878635986328125,0.2913892865180969,1.4505298137664795,-0.6151958703994751
1733851310457604900,4.88860498046875,0.23594653606414795,1.4707051515579224,-0.5951579213142395
1733851310467573800,4.89857373046875,0.19769668579101562,1.4920990467071533,-0.5904761552810669
1733851310477541600,4.908541748046875,0.17565450072288513,1.5187392234802246,-0.6069296598434448
1733851310487510800,4.9185107421875,0.19068564474582672,1.5390598773956299,-0.610024094581604
1733851310497478700,4.928478759765625,0.2305781990289688,1.559580683708191,-0.5778658986091614
1733851310507447800,4.93844775390625,0.26864591240882874,1.5639009475708008,-0.5297576189041138
1733851310517415700,4.948415771484375,0.29876574873924255,1.592579960823059,-0.48931968212127686
1733851310527384800,4.958384765625,0.30614155530929565,1.6112542152404785,-0.4232255816459656
1733851310537353700,4.968353759765625,0.2878352403640747,1.6043968200683594,-0.34877079725265503
1733851310547321900,4.97832177734375,0.2531987130641937,1.5964959859848022,-0.29902705550193787
1733851310557290800,4.988290771484375,0.20308253169059753,1.5795156955718994,-0.283628910779953
1733851310567259000,4.9982587890625,0.133231520652771,1.5516552925109863,-0.2963465452194214
1733851310577227800,5.008227783203125,0.06424818187952042,1.5188355445861816,-0.34459981322288513
1733851310587196000,5.01819580078125,0.029961736872792244,1.4695851802825928,-0.38066837191581726
1733851310597164800,5.028164794921875,0.03392185643315315,1.3936723470687866,-0.39789849519729614
1733851310607134000,5.038134033203125,0.06214523687958717,1.304425597190857,-0.4066475033760071
1733851310617101600,5.0481015625,0.10488870739936829,1.2276817560195923,-0.4104401171207428
1733851310627070700,5.05807080078125,0.13406501710414886,1.1425492763519287,-0.38866132497787476
1733851310637038600,5.06803857421875,0.15697406232357025,1.0525245666503906,-0.34906676411628723
1733851310647007700,5.0780078125,0.16840176284313202,0.9633195996284485,-0.29575005173683167
1733851310656976600,5.0879765625,0.16725952923297882,0.8492199182510376,-0.22498054802417755
1733851310666944800,5.09794482421875,0.14677481353282928,0.7357521653175354,-0.1658628284931183
1733851310676913700,5.10791357421875,0.10143022984266281,0.6197605729103088,-0.12152227014303207
1733851310686881800,5.1178818359375,0.04854715242981911,0.48473337292671204,-0.07972072064876556
1733851310696850700,5.1278505859375,-0.01419292762875557,0.32865670323371887,-0.058549124747514725
1733851310706818800,5.13781884765625,-0.08665862679481506,0.16714569926261902,-0.04280705004930496
1733851310716787700,5.14778759765625,-0.12410347163677216,0.0144458943977952,-0.024233100935816765
1733851310726756900,5.1577568359375,-0.12958180904388428,-0.13929574191570282,0.0003151283599436283
1733851310736724700,5.167724853515625,-0.12092839926481247,-0.2699379026889801,0.029169412329792976
1733851310746694000,5.17769384765625,-0.09159094840288162,-0.3835003674030304,0.07824330031871796
1733851310756662000,5.187662109375,-0.052778035402297974,-0.48278966546058655,0.12732402980327606
1733851310766631000,5.197630859375,-0.015289433300495148,-0.5736747980117798,0.1925605684518814
1733851310776598800,5.207598876953125,0.016376083716750145,-0.6592589616775513,0.2503884434700012
1733851310786567700,5.217567626953125,0.030685877427458763,-0.7367570996284485,0.2954220771789551
1733851310796536600,5.22753662109375,0.019884895533323288,-0.8144276738166809,0.3269725441932678
1733851310806504700,5.237504638671875,-0.0010998595971614122,-0.8983509540557861,0.3264021873474121
1733851310816473600,5.2474736328125,-0.031626876443624496,-0.986602246761322,0.3060077130794525
1733851310826441700,5.257441650390625,-0.053482457995414734,-1.0744364261627197,0.27115610241889954
1733851310836411000,5.267410888671875,-0.059745945036411285,-1.1439640522003174,0.2627258598804474
1733851310846378800,5.277378662109375,-0.0488862469792366,-1.1970868110656738,0.26431745290756226
1733851310856348000,5.287347900390625,-0.040774255990982056,-1.2451342344284058,0.26067957282066345
1733851310866316800,5.29731689453125,-0.03901130333542824,-1.2852959632873535,0.2554076910018921
1733851310876285000,5.307284912109375,-0.051748670637607574,-1.3269011974334717,0.2500153183937073
1733851310886254000,5.317254150390625,-0.07941056042909622,-1.369554042816162,0.23603956401348114
1733851310896222200,5.32722216796875,-0.1190682202577591,-1.4252370595932007,0.2314320206642151
1733851310906191000,5.337191162109375,-0.16081883013248444,-1.4723771810531616,0.22056053578853607
1733851310916160000,5.347159912109375,-0.19274745881557465,-1.5065891742706299,0.20456719398498535
1733851310926127900,5.3571279296875,-0.21419434249401093,-1.5365463495254517,0.1982206404209137
1733851310936097000,5.367096923828125,-0.22115397453308105,-1.543312907218933,0.18929877877235413
1733851310946065000,5.37706494140625,-0.20139764249324799,-1.5699973106384277,0.1905670315027237
1733851310956034000,5.387033935546875,-0.17571385204792023,-1.5923311710357666,0.1982228308916092
1733851310966002000,5.397001953125,-0.16966600716114044,-1.5847246646881104,0.19105148315429688
1733851310975971000,5.40697119140625,-0.17936576902866364,-1.567149043083191,0.14814715087413788
1733851310985940000,5.41693994140625,-0.20506621897220612,-1.5588182210922241,0.12056276947259903
1733851310995908000,5.426908203125,-0.2647002637386322,-1.571669101715088,0.12080352008342743
1733851311005877000,5.436876953125,-0.3381841778755188,-1.617357850074768,0.15710103511810303
1733851311015845000,5.44684521484375,-0.39045271277427673,-1.6678534746170044,0.21351584792137146
1733851311025814000,5.45681396484375,-0.42935237288475037,-1.7153759002685547,0.26093989610671997
1733851311035782100,5.4667822265625,-0.4519903063774109,-1.735809564590454,0.2824888825416565
1733851311045751000,5.4767509765625,-0.45761579275131226,-1.7148300409317017,0.29222729802131653
1733851311055720200,5.48672021484375,-0.4483717083930969,-1.6420581340789795,0.2834329903125763
1733851311065688000,5.49668798828125,-0.4065472185611725,-1.5835742950439453,0.2474464625120163
1733851311075657200,5.5066572265625,-0.3772417902946472,-1.491857886314392,0.19248120486736298
1733851311085624800,5.516624755859375,-0.35621845722198486,-1.4190030097961426,0.15247376263141632
1733851311095594000,5.526593994140625,-0.32199257612228394,-1.3707656860351562,0.12245061248540878
1733851311105561900,5.536561767578125,-0.27903157472610474,-1.3832082748413086,0.11097225546836853
1733851311115531000,5.546531005859375,-0.2573124170303345,-1.4633567333221436,0.11416858434677124
1733851311125500000,5.5565,-0.1902025043964386,-1.6244890689849854,0.16708780825138092
1733851311135468000,5.566468017578125,-0.09731170535087585,-1.7100180387496948,0.22219420969486237
1733851311145437000,5.57643701171875,0.13412036001682281,-1.8395096063613892,0.2517807185649872
1733851311155405000,5.586405029296875,0.21833564341068268,-1.9801710844039917,0.3430038392543793
1733851311165374000,5.5963740234375,0.17240384221076965,-1.9198920726776123,0.3734205961227417
1733851311175343000,5.606343017578125,0.057465795427560806,-1.8218357563018799,0.3260405659675598
1733851311185311000,5.61631103515625,-0.13719967007637024,-1.7345097064971924,0.23363056778907776
1733851311195280100,5.626280029296875,-0.24525503814220428,-1.689139485359192,0.20576006174087524
1733851311205248000,5.636248046875,-0.2106345295906067,-1.6941086053848267,0.26669302582740784
1733851311215217200,5.646217041015625,-0.12347592413425446,-1.7230433225631714,0.33314475417137146
1733851311225185000,5.65618505859375,-0.04363459348678589,-1.779574990272522,0.35305988788604736
1733851311235154000,5.66615380859375,0.0034104129299521446,-1.88178288936615,0.33560633659362793
1733851311245122800,5.676122802734375,0.005205131135880947,-1.9350677728652954,0.3402472138404846
1733851311255091000,5.686091064453125,0.0033366577699780464,-1.9144432544708252,0.3794388175010681
1733851311265059800,5.696059814453125,-0.008606904186308384,-1.9108511209487915,0.4136737287044525
1733851311275028000,5.706028076171875,-0.053056661039590836,-1.9264847040176392,0.40997061133384705
1733851311284996900,5.715996826171875,-0.08959431946277618,-1.9560267925262451,0.3594977557659149
1733851311294965000,5.725965087890625,-0.08275106549263,-1.9527262449264526,0.27840715646743774
1733851311304934100,5.73593408203125,-0.06169145554304123,-1.9555542469024658,0.19780883193016052
1733851311314903000,5.745903076171875,-0.04286210611462593,-1.9851016998291016,0.14807535707950592
1733851311324871200,5.75587109375,-0.03997395187616348,-2.0576090812683105,0.1250237673521042
1733851311334840000,5.765840087890625,-0.0690106600522995,-2.158325672149658,0.10503087937831879
1733851311344808200,5.77580810546875,-0.10355864465236664,-2.2381796836853027,0.05562954023480415
1733851311354777000,5.785777099609375,-0.13930626213550568,-2.2799301147460938,-0.005093726329505444
1733851311364746000,5.79574609375,-0.18654514849185944,-2.2922747135162354,-0.06002728268504143
1733851311374714000,5.805714111328125,-0.21389581263065338,-2.2723002433776855,-0.1315600574016571
1733851311384683000,5.81568310546875,-0.21219252049922943,-2.282658576965332,-0.2120300829410553
1733851311394651000,5.82565087890625,-0.17306296527385712,-2.29567289352417,-0.2884415090084076
1733851311404620000,5.8356201171875,-0.12294711917638779,-2.309201717376709,-0.38357362151145935
1733851311414588000,5.845587890625,-0.08395710587501526,-2.539391040802002,-0.5654706954956055
1733851311424557000,5.85555712890625,-0.12342456728219986,-2.277209758758545,-0.41259196400642395
1733851311434526000,5.86552587890625,-0.11702073365449905,-2.2858073711395264,-0.32882729172706604
1733851311444494000,5.875494140625,-0.12478435784578323,-2.253793716430664,-0.2866845428943634
1733851311454463000,5.885462890625,-0.14436525106430054,-2.191014528274536,-0.3198299705982208
1733851311464431000,5.89543115234375,-0.15144509077072144,-2.156332015991211,-0.35052746534347534
1733851311474400000,5.90539990234375,-0.11296293884515762,-2.1983649730682373,-0.3810233175754547
1733851311484368100,5.9153681640625,-0.04460328444838524,-2.2545464038848877,-0.3890783488750458
1733851311494337000,5.9253369140625,0.03500685468316078,-2.262755870819092,-0.37107592821121216
1733851311504306200,5.93530615234375,0.08093833178281784,-2.2276060581207275,-0.3465709388256073
1733851311514274000,5.945274169921875,0.10172297060489655,-2.1703500747680664,-0.3197830021381378
1733851311524243200,5.9552431640625,0.10327348858118057,-2.0931951999664307,-0.2555601894855499
1733851311534210800,5.9652109375,0.09689655154943466,-1.9740933179855347,-0.1712370663881302
1733851311544180000,5.975179931640625,0.0876070186495781,-1.9176738262176514,-0.17029985785484314
1733851311554148900,5.98514892578125,0.04581243917346001,-1.9562315940856934,-0.30568593740463257
1733851311564117000,5.995116943359375,0.024577230215072632,-1.9105448722839355,-0.4381803870201111
1733851311574086000,6.0050859375,0.07376421988010406,-1.7783544063568115,-0.4608350992202759
1733851311584054000,6.015053955078125,0.18554222583770752,-1.6861587762832642,-0.38152793049812317
1733851311594023000,6.02502294921875,0.3035183846950531,-1.6112579107284546,-0.28581124544143677
1733851311603991000,6.034990966796875,0.3818064332008362,-1.3342145681381226,-0.20882508158683777
1733851311613960000,6.0449599609375,0.464118093252182,-0.08909358084201813,-0.07066775113344193
1733851311623929000,6.05492919921875,0.4650324881076813,0.7974210977554321,0.655983030796051
1733851311633897000,6.06489697265625,0.3353687524795532,0.14075857400894165,1.9182915687561035
1733851311643866000,6.0748662109375,-0.03819585591554642,-0.13666163384914398,1.0912140607833862
1733851311653834000,6.084833984375,-0.2121519297361374,-0.00009099766612052917,0.06107943132519722
1733851311663803100,6.09480322265625,-0.07404034584760666,-0.09139490127563477,-0.12198717892169952
1733851311673772000,6.10477197265625,-0.04425955191254616,0.03220613673329353,-0.4078484773635864
1733851311683740200,6.114740234375,0.028183992952108383,0.11086753010749817,-0.6410166621208191
1733851311693709000,6.124708984375,0.08946013450622559,0.1993422657251358,-0.595222532749176
1733851311703677000,6.134677001953125,0.19872386753559113,0.2091667652130127,-0.33021873235702515
1733851311713645800,6.144645751953125,0.2421714812517166,0.1152205765247345,-0.060173917561769485
1733851311723614000,6.154614013671875,0.14187315106391907,0.018536096438765526,0.12554135918617249
1733851311733582800,6.164582763671875,-0.02115304209291935,-0.07031441479921341,0.2600746750831604
1733851311743552000,6.174552001953125,-0.20609068870544434,-0.19976754486560822,0.3162553012371063
1733851311753520000,6.18452001953125,-0.3722016215324402,-0.28689950704574585,0.18775327503681183
1733851311763489000,6.194489013671875,-0.4278883635997772,-0.2708614766597748,-0.029347902163863182
1733851311773457200,6.20445703125,-0.3209211528301239,-0.22632329165935516,-0.13875295221805573
1733851311783426000,6.214426025390625,-0.12691105902194977,-0.18559029698371887,-0.18923458456993103
1733851311793395000,6.22439501953125,0.054333288222551346,-0.08962276577949524,-0.24132788181304932
1733851311803363000,6.234363037109375,0.18220148980617523,0.05833308771252632,-0.27034440636634827
1733851311813332000,6.24433203125,0.22966940701007843,0.26067712903022766,-0.2940920889377594
1733851311823300000,6.254300048828125,0.20587915182113647,0.49192267656326294,-0.3416305184364319
1733851311833269000,6.26426904296875,0.12603545188903809,0.7305312752723694,-0.3751421570777893
1733851311843236900,6.27423681640625,0.036957792937755585,0.9393525123596191,-0.3872562050819397
1733851311853206000,6.2842060546875,-0.03129876032471657,1.1097875833511353,-0.37796124815940857
1733851311863175000,6.2941748046875,-0.053272977471351624,1.2749520540237427,-0.35111069679260254
1733851311873143000,6.30414306640625,-0.019644442945718765,1.4233055114746094,-0.2941579222679138
1733851311883111400,6.314111328125,0.029063325375318527,1.5429435968399048,-0.2418777048587799
1733851311893079600,6.32407958984375,0.06916254013776779,1.6475025415420532,-0.18512921035289764
1733851311903048400,6.33404833984375,0.10349065810441971,1.7446491718292236,-0.13373592495918274
1733851311913016300,6.344016357421875,0.12489768117666245,1.828070878982544,-0.10464195907115936
1733851311922985200,6.353985107421875,0.1406473070383072,1.9112297296524048,-0.09759771078824997
1733851311932954400,6.363954345703125,0.15878209471702576,2.0086963176727295,-0.10728389769792557
1733851311942922200,6.373922119140625,0.19334377348423004,2.090923547744751,-0.11569283902645111
1733851311952891400,6.383891357421875,0.23848222196102142,2.156873941421509,-0.11264538019895554
1733851311962859500,6.393859619140625,0.29070237278938293,2.2389962673187256,-0.09300028532743454
1733851311972828400,6.403828369140625,0.3374895751476288,2.3350179195404053,-0.06225915253162384
1733851311982797300,6.41379736328125,0.3715761601924896,2.42468523979187,-0.03644459322094917
1733851311992765400,6.423765380859375,0.38407012820243835,2.501070499420166,-0.005414774641394615
1733851312002734300,6.433734375,0.380897581577301,2.5733137130737305,0.03662177175283432
1733851312012702500,6.443702392578125,0.34835800528526306,2.6217710971832275,0.1004691943526268
1733851312022671400,6.45367138671875,0.28214624524116516,2.6786978244781494,0.16540904343128204
1733851312032639500,6.463639404296875,0.2174500674009323,2.743760108947754,0.21613453328609467
1733851312042608400,6.4736083984375,0.18413200974464417,2.801701307296753,0.2608233690261841
1733851312052577500,6.48357763671875,0.18232318758964539,2.8314707279205322,0.2860932946205139
1733851312062545400,6.49354541015625,0.20788860321044922,2.828803777694702,0.2983931303024292
1733851312072514300,6.503514404296875,0.2584415376186371,2.813136100769043,0.30070769786834717
1733851312082482400,6.513482421875,0.3008376657962799,2.788407325744629,0.3034934997558594
1733851312092451300,6.523451416015625,0.3039141595363617,2.749671220779419,0.3166031837463379
1733851312102419500,6.53341943359375,0.27346473932266235,2.7118725776672363,0.33589568734169006
1733851312112388400,6.543388427734375,0.21149058640003204,2.6800456047058105,0.35262325406074524
1733851312122357200,6.553357177734375,0.1369917392730713,2.6441726684570312,0.3478600084781647
1733851312132325400,6.563325439453125,0.06859058141708374,2.600752830505371,0.3300943374633789
1733851312142294500,6.57329443359375,0.028889112174510956,2.5068140029907227,0.3026447892189026
1733851312152262400,6.583262451171875,0.014339464716613293,2.36493182182312,0.27673089504241943
1733851312162231600,6.5932314453125,0.031182460486888885,2.2208268642425537,0.2588580846786499
1733851312172199400,6.603199462890625,0.07106516510248184,2.1146228313446045,0.2409859001636505
1733851312182168600,6.61316845703125,0.10744298249483109,2.042127847671509,0.24055549502372742
1733851312192137500,6.623137451171875,0.14090798795223236,1.98932683467865,0.23895306885242462
1733851312202105600,6.633105712890625,0.16492220759391785,1.9456208944320679,0.240345299243927
1733851312212074500,6.643074462890625,0.16261936724185944,1.891666054725647,0.23777136206626892
1733851312222042400,6.65304248046875,0.135186105966568,1.8336141109466553,0.23727698624134064
1733851312232011300,6.66301123046875,0.07847195863723755,1.7648206949234009,0.21477434039115906
1733851312241980400,6.67298046875,0.009154208935797215,1.7113786935806274,0.17306852340698242
1733851312251948300,6.6829482421875,-0.05770817771553993,1.6758537292480469,0.1144787073135376
1733851312261917400,6.69291748046875,-0.0820530503988266,1.663697600364685,0.07947595417499542
1733851312271885300,6.70288525390625,-0.0577908493578434,1.6672422885894775,0.07818538695573807
1733851312281854500,6.7128544921875,0.022460900247097015,1.6807235479354858,0.06984452903270721
1733851312291822300,6.722822265625,0.1402437388896942,1.699591875076294,0.08210013061761856
1733851312301791500,6.73279150390625,0.25381213426589966,1.6933082342147827,0.11524182558059692
1733851312311760400,6.742760498046875,0.33104008436203003,1.7084741592407227,0.14458614587783813
1733851312321728500,6.752728515625,0.3513496518135071,1.7352489233016968,0.15593154728412628
1733851312331697400,6.762697509765625,0.3209238350391388,1.768545150756836,0.15960244834423065
1733851312341665500,6.77266552734375,0.2525337040424347,1.8130121231079102,0.1703810840845108
1733851312351634400,6.782634521484375,0.16837674379348755,1.855979084968567,0.19936640560626984
1733851312361603600,6.792603515625,0.08383951336145401,1.891969084739685,0.23270626366138458
1733851312371571200,6.8025712890625,0.02385234832763672,1.9268908500671387,0.2725442349910736
1733851312381540400,6.812540283203125,-0.0007078829221427441,1.952077865600586,0.3144911229610443
1733851312391508200,6.82250830078125,0.0052488092333078384,1.9689234495162964,0.33861643075942993
1733851312401477400,6.832477294921875,0.0395100936293602,1.986922264099121,0.3630226254463196
1733851312411445500,6.842445556640625,0.08754100650548935,2.001924514770508,0.3751772940158844
1733851312421414400,6.852414306640625,0.1440247744321823,2.011596441268921,0.3678697943687439
1733851312431383300,6.86238330078125,0.20255200564861298,2.007495880126953,0.35270947217941284
1733851312441351400,6.872351318359375,0.23919308185577393,1.9744157791137695,0.3397027850151062
1733851312451320300,6.8823203125,0.26226484775543213,1.937772274017334,0.31143254041671753
1733851312461288400,6.892288330078125,0.2560221254825592,1.8876696825027466,0.3087296783924103
1733851312471257300,6.90225732421875,0.2384849488735199,1.8067632913589478,0.316821426153183
1733851312481225500,6.9122255859375,0.22231021523475647,1.7208470106124878,0.31880056858062744
1733851312491194400,6.9221943359375,0.21200457215309143,1.6422432661056519,0.31467294692993164
1733851312501163500,6.93216357421875,0.19537512958049774,1.5536646842956543,0.30726584792137146
1733851312511131400,6.94213134765625,0.16351893544197083,1.4858163595199585,0.2654600739479065
1733851312521100500,6.9521005859375,0.15679894387722015,1.4403969049453735,0.21864409744739532
1733851312531068400,6.962068359375,0.16207920014858246,1.3984295129776,0.17389313876628876
1733851312541037300,6.972037353515625,0.17008279263973236,1.359777569770813,0.12633481621742249
1733851312551005400,6.98200537109375,0.16172607243061066,1.2997111082077026,0.08306483179330826
1733851312560974300,6.991974365234375,0.1412530541419983,1.2154009342193604,0.04558024927973747
1733851312570943200,7.001943115234375,0.12420296669006348,1.1290287971496582,0.02835998497903347
1733851312580911400,7.011911376953125,0.08909977972507477,1.0450811386108398,0.03328868746757507
1733851312590880500,7.021880615234375,0.051599010825157166,0.9547230005264282,0.05980178713798523
1733851312600848400,7.031848388671875,0.01386220008134842,0.86904376745224,0.09813796728849411
1733851312610817500,7.041817626953125,-0.010057247243821621,0.7814268469810486,0.13350500166416168
1733851312620786400,7.051786376953125,-0.027319438755512238,0.698760449886322,0.14121617376804352
1733851312630754600,7.061754638671875,-0.032068390399217606,0.6184027791023254,0.15078197419643402
1733851312640723500,7.071723388671875,-0.03549731895327568,0.5328113436698914,0.1540760099887848
1733851312650691600,7.081691650390625,-0.04103429615497589,0.4563693106174469,0.1557266265153885
1733851312660660500,7.091660400390625,-0.04398364946246147,0.3723711669445038,0.15920908749103546
1733851312670628400,7.10162841796875,-0.05625363066792488,0.2805091440677643,0.1614043265581131
1733851312680597200,7.11159716796875,-0.0785885825753212,0.1714196503162384,0.17114748060703278
1733851312690566400,7.12156640625,-0.11337985098361969,0.05888989940285683,0.17546792328357697
1733851312700534300,7.1315341796875,-0.15796934068202972,-0.05069513991475105,0.16683371365070343
1733851312710503400,7.14150341796875,-0.20393124222755432,-0.16714026033878326,0.1394878476858139
1733851312720471300,7.15147119140625,-0.22678206861019135,-0.29125094413757324,0.11417613923549652
1733851312730440400,7.1614404296875,-0.22609709203243256,-0.41990241408348083,0.09843125939369202
1733851312740408300,7.171408203125,-0.20805425941944122,-0.5534894466400146,0.06694693863391876
1733851312750377500,7.18137744140625,-0.1730227768421173,-0.6808367371559143,0.022913705557584763
1733851312760346400,7.191346435546875,-0.12400293350219727,-0.8066906929016113,-0.009960262104868889
1733851312770314500,7.201314453125,-0.06809306144714355,-0.9349027276039124,-0.022452618926763535
1733851312780283400,7.211283447265625,-0.0175404641777277,-1.057371973991394,-0.02215781807899475
1733851312790251500,7.22125146484375,0.025086091831326485,-1.16274094581604,-0.0378105491399765
1733851312800220400,7.231220458984375,0.03709552064538002,-1.2446292638778687,-0.06580738723278046
1733851312810188300,7.241188232421875,0.020869944244623184,-1.3313060998916626,-0.09122858941555023
1733851312820157200,7.2511572265625,-0.009103666990995407,-1.4066280126571655,-0.1062336415052414
1733851312830126300,7.261126220703125,-0.033041812479496,-1.4809503555297852,-0.1095077395439148
1733851312840094200,7.27109423828125,-0.050189629197120667,-1.5482748746871948,-0.1070033609867096
1733851312850063400,7.2810634765625,-0.05394548550248146,-1.619971513748169,-0.09599145501852036
1733851312860031500,7.291031494140625,-0.044737085700035095,-1.6752527952194214,-0.09911608695983887
1733851312870000400,7.30100048828125,-0.023198237642645836,-1.730654001235962,-0.09494930505752563
1733851312879968500,7.310968505859375,0.0015319593949243426,-1.802620768547058,-0.06841620802879333
1733851312889938000,7.32093798828125,0.024922503158450127,-1.875449776649475,-0.035551466047763824
1733851312899906800,7.33090673828125,0.03580356389284134,-1.9487117528915405,-0.004244435578584671
1733851312909875000,7.340875,0.03389541059732437,-2.015150785446167,0.010093225166201591
1733851312919843800,7.35084375,0.020693739876151085,-2.0753095149993896,0.0062410663813352585
1733851312929812000,7.36081201171875,0.005131292622536421,-2.125441789627075,0.0032095902133733034
1733851312939780900,7.37078076171875,-0.006953067146241665,-2.167659044265747,0.018855661153793335
1733851312949750000,7.38075,-0.025801056995987892,-2.216961622238159,0.040099963545799255
1733851312959718000,7.3907177734375,-0.06084819883108139,-2.272642135620117,0.07662896066904068
1733851312969687000,7.40068701171875,-0.11877461522817612,-2.33585786819458,0.11711513251066208
1733851312979655000,7.410655029296875,-0.18688389658927917,-2.3690638542175293,0.13443952798843384
1733851312989623800,7.420623779296875,-0.2485690861940384,-2.3694891929626465,0.12504123151302338
1733851312999592000,7.430592041015625,-0.28377875685691833,-2.33113431930542,0.1194150373339653
1733851313009560800,7.440560791015625,-0.2944308817386627,-2.2422995567321777,0.13519719243049622
1733851313019529700,7.45052978515625,-0.26748859882354736,-2.128422260284424,0.15987655520439148
1733851313029497900,7.460497802734375,-0.2137364149093628,-2.002366542816162,0.18943019211292267
1733851313039466800,7.470466796875,-0.1583511084318161,-1.8778719902038574,0.22783271968364716
1733851313049435000,7.480434814453125,-0.12184290587902069,-1.7978339195251465,0.265741229057312
1733851313059403800,7.49040380859375,-0.09372677654027939,-1.7657618522644043,0.287426620721817
1733851313069372000,7.500371826171875,-0.07526706904172897,-1.7667185068130493,0.2865605652332306
1733851313079341000,7.510341064453125,-0.05383770912885666,-1.7916237115859985,0.275248646736145
1733851313089310000,7.52031005859375,-0.03765048459172249,-1.8450921773910522,0.2606761157512665
1733851313099278000,7.530278076171875,-0.017546266317367554,-1.9114283323287964,0.24042469263076782
1733851313109247000,7.5402470703125,-0.0008194857509806752,-1.9481600522994995,0.20794637501239777
1733851313119215000,7.550215087890625,0.010899880900979042,-1.947250485420227,0.17657031118869781
1733851313129184000,7.56018408203125,0.012637327425181866,-1.9391592741012573,0.15572655200958252
1733851313139152000,7.57015185546875,0.008856997825205326,-1.9177391529083252,0.1436854749917984
1733851313149120800,7.580120849609375,0.014800640754401684,-1.88405442237854,0.11075681447982788
1733851313159090000,7.59008984375,0.03636132925748825,-1.8338698148727417,0.07956106960773468
1733851313169057800,7.600057861328125,0.05915239453315735,-1.7882024049758911,0.050665777176618576
1733851313179027000,7.61002685546875,0.07661978900432587,-1.7383110523223877,0.017461949959397316
1733851313188994800,7.619994873046875,0.08821012824773788,-1.693769097328186,-0.006990129128098488
1733851313198964000,7.6299638671875,0.0857459306716919,-1.6791932582855225,-0.012578901834785938
1733851313208932900,7.639932861328125,0.08445563167333603,-1.6977331638336182,-0.018922284245491028
1733851313218901000,7.64990087890625,0.08211515098810196,-1.7357242107391357,-0.03636087477207184
1733851313228870000,7.659869873046875,0.07363564521074295,-1.7820000648498535,-0.06819630414247513
1733851313238838000,7.669838134765625,0.07064563035964966,-1.8351460695266724,-0.10612734407186508
1733851313248807000,7.679806884765625,0.08705176413059235,-1.884656548500061,-0.1254403293132782
1733851313258775000,7.689775146484375,0.12187600135803223,-1.9447026252746582,-0.13560961186885834
1733851313268744000,7.699743896484375,0.16153180599212646,-2.0005671977996826,-0.14995019137859344
1733851313278713000,7.709713134765625,0.1841684877872467,-2.0393733978271484,-0.16292883455753326
1733851313288680700,7.7196806640625,0.18803033232688904,-2.0816497802734375,-0.1663731038570404
1733851313298649900,7.72964990234375,0.18824729323387146,-2.1169304847717285,-0.15425793826580048
1733851313308617700,7.73961767578125,0.18372391164302826,-2.155635356903076,-0.12312611937522888
1733851313318587000,7.7495869140625,0.16598132252693176,-2.214674472808838,-0.06476296484470367
1733851313328554800,7.7595546875,0.12525039911270142,-2.2681708335876465,-0.011596149764955044
1733851313338524000,7.76952392578125,0.0648091658949852,-2.3283824920654297,-0.014192518778145313
1733851313348492800,7.779492919921875,0.034285616129636765,-2.408212900161743,-0.0037827554624527693
1733851313358461000,7.7894609375,0.0235563013702631,-2.5135576725006104,0.035156793892383575
1733851313368429800,7.799429931640625,0.03727610781788826,-2.631005048751831,0.08651984483003616
1733851313378398000,7.80939794921875,0.06646355986595154,-2.6889758110046387,0.10862434655427933
1733851313388366800,7.819366943359375,0.11417701840400696,-2.635219097137451,0.10862328112125397
1733851313398335000,7.8293349609375,0.1531514972448349,-2.4952683448791504,0.1096363291144371
1733851313408303900,7.839303955078125,0.17297659814357758,-2.3489322662353516,0.11378739774227142
1733851313418273000,7.84927294921875,0.17192108929157257,-2.205090045928955,0.13951703906059265
1733851313428241000,7.859240966796875,0.1421045958995819,-2.058878183364868,0.16913406550884247
1733851313438210000,7.8692099609375,0.10092596709728241,-1.9133610725402832,0.18135789036750793
1733851313448178000,7.879177978515625,0.060946330428123474,-1.7807574272155762,0.20820574462413788
1733851313458146800,7.889146728515625,0.013899258337914944,-1.6882107257843018,0.2656490206718445
1733851313468115700,7.89911572265625,-0.016855990514159203,-1.605933666229248,0.3156658709049225
1733851313478083800,7.909083740234375,-0.01802881620824337,-1.5032135248184204,0.33922815322875977
1733851313488052700,7.919052734375,0.010392172262072563,-1.4149619340896606,0.3453068137168884
1733851313498020900,7.929020751953125,0.0500960610806942,-1.3486864566802979,0.3429887890815735
1733851313507989800,7.93898974609375,0.09841006249189377,-1.3066482543945312,0.3069237470626831
1733851313517958000,7.9489580078125,0.13482387363910675,-1.2622761726379395,0.24427902698516846
1733851313527927000,7.958927001953125,0.131887748837471,-1.1035022735595703,0.11410557478666306
1733851313537896000,7.96889599609375,0.04039086028933525,-0.8401193022727966,-0.4370296895503998
1733851313547864000,7.978864013671875,-0.07025203853845596,-0.8728256225585938,-1.5535743236541748
1733851313557833000,7.9888330078125,-0.11578841507434845,-0.739070475101471,-1.9276814460754395
1733851313567801000,7.998801025390625,-0.14318569004535675,-0.3937927186489105,-1.7722824811935425
1733851313577770000,8.00877001953125,-0.12470883876085281,0.08240217715501785,-1.6752681732177734
1733851313587737900,8.01873779296875,-0.07965268939733505,-0.011801549233496189,-1.1811015605926514
1733851313597706800,8.028706787109375,-0.040920060127973557,-0.6738473176956177,-0.29694664478302
1733851313607676000,8.038676025390625,0.06899179518222809,-0.3284885585308075,-0.14515283703804016
1733851313617643800,8.048643798828126,0.2024303525686264,-0.003102258313447237,-0.059745099395513535
1733851313627613000,8.058613037109374,0.3166821002960205,0.188514843583107,-0.04495443403720856
1733851313637580800,8.068580810546875,0.40466880798339844,0.3631660044193268,-0.029021525755524635
1733851313647550000,8.078550048828125,0.34651923179626465,0.4045339524745941,0.02950809895992279
1733851313657517800,8.088517822265626,0.21002060174942017,0.3268420398235321,0.10085873305797577
1733851313667487000,8.098487060546875,0.10225045680999756,0.29635897278785706,0.20286846160888672
1733851313677456000,8.108455810546875,0.04388907179236412,0.22760029137134552,0.35479652881622314
1733851313687424000,8.118424072265626,-0.015699421986937523,0.10774685442447662,0.43738994002342224
1733851313697393000,8.128392822265624,-0.09088517725467682,0.016844432801008224,0.37917304039001465
1733851313707361000,8.138361083984375,-0.14320485293865204,0.06321406364440918,0.19153417646884918
1733851313717330000,8.148329833984375,-0.16236211359500885,0.09345847368240356,-0.08852413296699524
1733851313727299000,8.158299072265624,-0.11183129996061325,0.198815256357193,-0.38073790073394775
1733851313737267000,8.168266845703124,-0.004840212408453226,0.47203585505485535,-0.5393925309181213
1733851313747236000,8.178236083984375,0.12025698274374008,0.7620351314544678,-0.5689786076545715
1733851313757203700,8.18820361328125,0.22301934659481049,1.0724828243255615,-0.4939110577106476
1733851313767172900,8.1981728515625,0.2863575518131256,1.3870179653167725,-0.3015059232711792
1733851313777140700,8.208140625,0.3052305281162262,1.5991696119308472,-0.09110476076602936
1733851313787110000,8.21810986328125,0.28795886039733887,1.7515814304351807,0.02686261758208275
1733851313797078800,8.228078857421876,0.2532852292060852,1.8721468448638916,0.10094329714775085
1733851313807047000,8.238046875,0.20417095720767975,1.9651284217834473,0.1314239650964737
1733851313817015800,8.248015869140625,0.14892975986003876,2.040802240371704,0.1147913858294487
1733851313826984000,8.25798388671875,0.10579720884561539,2.0869696140289307,0.04221305251121521
1733851313836952800,8.267952880859376,0.06503590196371078,2.138115644454956,-0.04397748410701752
1733851313846921000,8.2779208984375,0.0346074253320694,2.2202181816101074,-0.10684752464294434
1733851313856889900,8.287889892578125,0.049220722168684006,2.2855608463287354,-0.12544837594032288
1733851313866859000,8.29785888671875,0.10058297961950302,2.3414523601531982,-0.08537259697914124
1733851313876827000,8.307826904296874,0.16105177998542786,2.401310443878174,-0.03583744540810585
1733851313886796000,8.317796142578125,0.21296530961990356,2.4653730392456055,0.002364001702517271
1733851313896764000,8.327763916015625,0.25828811526298523,2.520890951156616,0.027316110208630562
1733851313906732800,8.33773291015625,0.278486043214798,2.5728201866149902,0.03656260669231415
1733851313916701000,8.347700927734374,0.2706919014453888,2.6346893310546875,0.0342564731836319
1733851313926669800,8.357669921875,0.23798267543315887,2.6669762134552,0.02601665072143078
1733851313936638700,8.367638671875,0.17302115261554718,2.6746978759765625,0.018564624711871147
1733851313946606800,8.37760693359375,0.09586352109909058,2.666750431060791,0.009274452924728394
1733851313956575700,8.38757568359375,0.027010533958673477,2.6653575897216797,0.024422552436590195
1733851313966544000,8.3975439453125,-0.022115999832749367,2.6638288497924805,0.05543852597475052
1733851313976513000,8.407512939453126,-0.026599543169140816,2.667069911956787,0.07944489270448685
1733851313986482000,8.41748193359375,0.0031945710070431232,2.66253399848938,0.10268256813287735
1733851313996450000,8.427449951171875,0.05954757705330849,2.6443419456481934,0.1055280938744545
1733851314006419000,8.4374189453125,0.11796774715185165,2.606715440750122,0.10825596749782562
1733851314016387000,8.447386962890626,0.15149953961372375,2.548783540725708,0.12658756971359253
1733851314026356000,8.45735595703125,0.13452322781085968,2.4596598148345947,0.1252724975347519
1733851314036323800,8.46732373046875,0.09751420468091965,2.375749349594116,0.09090501815080643
1733851314046293000,8.47729296875,0.04886837303638458,2.2778313159942627,0.06867241114377975
1733851314056262100,8.48726220703125,-0.009806016460061073,2.1575253009796143,0.055992353707551956
1733851314066229800,8.497229736328125,-0.05859885737299919,2.0510475635528564,0.06805220991373062
1733851314076199000,8.507198974609375,-0.08529398590326309,1.9927036762237549,0.07939975708723068
1733851314086166800,8.517166748046876,-0.049145303666591644,1.933273434638977,0.12170220911502838
1733851314096136000,8.527135986328124,0.02394520491361618,1.8748701810836792,0.18473538756370544
1733851314106103800,8.537103759765625,0.11010086536407471,1.841551661491394,0.25074636936187744
1733851314116073000,8.547072998046875,0.18915347754955292,1.8334424495697021,0.28410694003105164
1733851314126041900,8.557041748046874,0.21020042896270752,1.8574708700180054,0.2741326093673706
1733851314136010000,8.567010009765625,0.18823738396167755,1.9228076934814453,0.24863173067569733
1733851314145979000,8.576978759765625,0.12076539546251297,2.0004005432128906,0.21064972877502441
1733851314155947000,8.586947021484375,0.04506419971585274,2.0691897869110107,0.17360760271549225
1733851314165916000,8.596916015625,-0.00829889066517353,2.1206350326538086,0.13443703949451447
1733851314175884000,8.606884033203125,-0.01506795920431614,2.1709041595458984,0.0921112447977066
1733851314185853000,8.61685302734375,0.022988611832261086,2.183997869491577,0.06939581781625748
1733851314195822000,8.626822021484376,0.09296976029872894,2.155515670776367,0.06734362989664078
1733851314205789700,8.636789794921874,0.16047662496566772,2.1161763668060303,0.07303667068481445
1733851314215758800,8.6467587890625,0.18836842477321625,2.0550906658172607,0.08044624328613281
1733851314225726700,8.656726806640625,0.18112754821777344,2.0014219284057617,0.06251544505357742
1733851314235695900,8.66669580078125,0.14858464896678925,1.9695686101913452,0.02450970560312271
1733851314245664000,8.6766640625,0.12348169833421707,1.946519136428833,0.0004275392275303602
1733851314255633000,8.6866328125,0.11528186500072479,1.9381746053695679,-0.023012332618236542
1733851314265601800,8.696601806640626,0.11327356845140457,1.9439520835876465,-0.05826539546251297
1733851314275570000,8.70656982421875,0.12278429418802261,1.9424890279769897,-0.08474858105182648
1733851314285538800,8.716538818359375,0.1346644014120102,1.9306004047393799,-0.09375938773155212
1733851314295507000,8.7265068359375,0.128159299492836,1.9221361875534058,-0.10676460713148117
1733851314305475800,8.736475830078126,0.11795966327190399,1.9312695264816284,-0.11522866785526276
1733851314315444000,8.74644384765625,0.10581132024526596,1.9220829010009766,-0.1113249659538269
1733851314325412900,8.756412841796875,0.08856149762868881,1.8994606733322144,-0.10055753588676453
1733851314335382000,8.766382080078126,0.06381478905677795,1.8852607011795044,-0.10768790543079376
1733851314345350000,8.776349853515624,0.05279622599482536,1.868391752243042,-0.10202869772911072
1733851314355318800,8.78631884765625,0.05414824187755585,1.8253326416015625,-0.07613511383533478
1733851314365287000,8.796286865234375,0.05285554379224777,1.7693252563476562,-0.04342697560787201
1733851314375255800,8.806255859375,0.06258031725883484,1.7075517177581787,-0.013888540677726269
1733851314385224000,8.816223876953124,0.08213750272989273,1.641937255859375,0.020274754613637924
1733851314395192800,8.82619287109375,0.10252051055431366,1.5516915321350098,0.05179887264966965
1733851314405162000,8.836161865234375,0.10519565641880035,1.452913761138916,0.06695332378149033
1733851314415129900,8.8461298828125,0.10589160025119781,1.3496781587600708,0.08885543048381805
1733851314425099000,8.85609912109375,0.09676947444677353,1.2570809125900269,0.12154519557952881
1733851314435067000,8.86606689453125,0.09588447213172913,1.1882128715515137,0.13791456818580627
1733851314445036000,8.8760361328125,0.09789808839559555,1.1371926069259644,0.15305304527282715
1733851314455004000,8.88600390625,0.09810058027505875,1.090942621231079,0.1710999757051468
1733851314464973000,8.89597314453125,0.09957224130630493,1.041064977645874,0.19702425599098206
1733851314474942000,8.90594189453125,0.0955088883638382,0.9889582991600037,0.21358801424503326
1733851314484910000,8.91591015625,0.09603007137775421,0.92661052942276,0.2244289368391037
1733851314494879000,8.92587890625,0.09674543887376785,0.8611088395118713,0.22065211832523346
1733851314504846800,8.935846923828125,0.08777670562267303,0.7811397314071655,0.2115105390548706
1733851314514815700,8.945815673828125,0.07469485700130463,0.6713308691978455,0.20057637989521027
1733851314524783900,8.955783935546876,0.047886140644550323,0.5604802370071411,0.18318620324134827
1733851314534752800,8.965752685546875,0.014052782207727432,0.4450906813144684,0.17012299597263336
1733851314544722000,8.975721923828125,-0.022638652473688126,0.33171191811561584,0.16280542314052582
1733851314554689800,8.985689697265625,-0.048179615288972855,0.22279347479343414,0.1554945409297943
1733851314564659000,8.995658935546874,-0.064854197204113,0.12452416867017746,0.1417182832956314
1733851314574626800,9.005626708984375,-0.06455978006124496,0.03798265755176544,0.1271284520626068
1733851314584596000,9.015595947265625,-0.04992544278502464,-0.04206424206495285,0.11467816680669785
1733851314594563800,9.025563720703126,-0.03379988670349121,-0.13390523195266724,0.10547643154859543
1733851314604533000,9.035532958984374,-0.015736466273665428,-0.23852458596229553,0.09812211245298386
1733851314614502000,9.045501953125,0.00485579390078783,-0.3533003628253937,0.09119075536727905
1733851314624470000,9.055469970703125,0.02479621209204197,-0.46758776903152466,0.08379782736301422
1733851314634439000,9.06543896484375,0.03948521614074707,-0.5881269574165344,0.07480573654174805
1733851314644406800,9.07540673828125,0.05608336627483368,-0.7044056057929993,0.06237729638814926
1733851314654375700,9.085375732421875,0.058545809239149094,-0.8152545690536499,0.043804969638586044
1733851314664344800,9.0953447265625,0.048078253865242004,-0.9131664633750916,0.024129536002874374
1733851314674312700,9.105312744140624,0.027522306889295578,-1.0019525289535522,0.013814771547913551
1733851314684281900,9.11528173828125,0.003070227103307843,-1.0757546424865723,0.0005879158852621913
1733851314694250000,9.12525,-0.012129678390920162,-1.136945128440857,-0.016613829880952835
1733851314704219000,9.135218994140626,-0.008925363421440125,-1.182740569114685,-0.03345140069723129
1733851314714187000,9.14518701171875,0.011553714983165264,-1.2165695428848267,-0.043677233159542084
1733851314724156000,9.155156005859375,0.030604105442762375,-1.2351552248001099,-0.04951062425971031
1733851314734124800,9.165124755859376,0.061667270958423615,-1.256770372390747,-0.05697637051343918
1733851314744093000,9.175093017578124,0.0943455919623375,-1.2701343297958374,-0.06418927758932114
1733851314754061800,9.185061767578125,0.1278602033853531,-1.2888743877410889,-0.07416567206382751
1733851314764030000,9.195030029296875,0.1515841782093048,-1.3191667795181274,-0.08289071917533875
1733851314773998800,9.204998779296876,0.15517063438892365,-1.3324217796325684,-0.08753693848848343
1733851314783967000,9.214967041015624,0.1526518166065216,-1.35007905960083,-0.0884954035282135
1733851314793936100,9.22493603515625,0.14117158949375153,-1.3806366920471191,-0.08375246822834015
1733851314803905000,9.234905029296876,0.11403771489858627,-1.4215649366378784,-0.08303528279066086
1733851314813873000,9.244872802734376,0.08452561497688293,-1.476755976676941,-0.07413414865732193
1733851314823841800,9.254841796875,0.05232107639312744,-1.5588867664337158,-0.054012902081012726
1733851314833810000,9.264809814453125,0.020826391875743866,-1.6480586528778076,-0.0384259857237339
1733851314843778800,9.27477880859375,-0.003360969014465809,-1.7252393960952759,-0.03414814919233322
1733851314853747000,9.284746826171874,0.0017759049078449607,-1.8077458143234253,-0.03806868568062782
1733851314863715800,9.2947158203125,0.018406547605991364,-1.856507420539856,-0.030070414766669273
1733851314873685000,9.30468505859375,0.03774919733405113,-1.8898091316223145,-0.030652418732643127
1733851314883652600,9.314652587890626,0.04784737154841423,-1.9105615615844727,-0.016566958278417587
1733851314893621800,9.324621826171875,0.0517016239464283,-1.937435507774353,-0.005041898228228092
1733851314903589600,9.334589599609375,0.0427430160343647,-1.9446539878845215,-0.020626185461878777
1733851314913558800,9.344558837890625,0.0271091777831316,-1.938895344734192,-0.04727182537317276
1733851314923526700,9.354526611328126,0.0024728081189095974,-1.931114912033081,-0.05979693681001663
1733851314933495800,9.364495849609375,-0.02980879135429859,-1.931243896484375,-0.06661967188119888
1733851314943464700,9.374464599609375,-0.05539111793041229,-1.9211424589157104,-0.08477204293012619
1733851314953432600,9.3844326171875,-0.06937115639448166,-1.9090603590011597,-0.1058889850974083
1733851314963401500,9.3944013671875,-0.07832470536231995,-1.8954007625579834,-0.10776225477457047
1733851314973369600,9.40436962890625,-0.08333747833967209,-1.9046603441238403,-0.10819918662309647
1733851314983338500,9.41433837890625,-0.0870874747633934,-1.9121203422546387,-0.11038830131292343
1733851314993306600,9.424306640625,-0.08688179403543472,-1.9101208448410034,-0.10432787239551544
1733851315003275500,9.434275634765624,-0.08857609331607819,-1.9004733562469482,-0.10145165771245956
1733851315013244700,9.44424462890625,-0.09555667638778687,-1.876532793045044,-0.10966341942548752
1733851315023212500,9.454212646484375,-0.10266119241714478,-1.846408486366272,-0.1257808655500412
1733851315033181700,9.464181640625,-0.1253330558538437,-1.8042105436325073,-0.1564001888036728
1733851315043149800,9.47414990234375,-0.15690003335475922,-1.7337957620620728,-0.1906961053609848
1733851315053118700,9.48411865234375,-0.18980056047439575,-1.6804182529449463,-0.21532897651195526
1733851315063086800,9.4940869140625,-0.2229667752981186,-1.6419126987457275,-0.24894367158412933
1733851315073055700,9.5040556640625,-0.23264528810977936,-1.6363617181777954,-0.2734592854976654
1733851315083024600,9.514024658203125,-0.22463397681713104,-1.6456937789916992,-0.2634577751159668
1733851315092992500,9.523992431640625,-0.19403916597366333,-1.6639618873596191,-0.2207299768924713
1733851315102961700,9.533961669921876,-0.15175296366214752,-1.6550359725952148,-0.17713749408721924
1733851315112929500,9.543929443359374,-0.11910365521907806,-1.6096078157424927,-0.13393056392669678
1733851315122898700,9.553898681640625,-0.10897645354270935,-1.5398046970367432,-0.08344768732786179
1733851315132866600,9.563866455078125,-0.10764829814434052,-1.4715346097946167,-0.025165000930428505
1733851315142835700,9.573835693359374,-0.10094272345304489,-1.4224051237106323,0.05844840407371521
1733851315152804600,9.5838046875,-0.1030244454741478,-1.3824485540390015,0.13715995848178864
1733851315162772700,9.593772705078125,-0.13622048497200012,-1.4001188278198242,0.139132559299469
1733851315172741600,9.60374169921875,-0.1734643280506134,-1.5111875534057617,-0.014826342463493347
1733851315182709800,9.613709716796874,-0.16947224736213684,-1.6363121271133423,-0.11833488941192627
1733851315192678700,9.6236787109375,-0.14194276928901672,-1.7171070575714111,-0.07827124744653702
1733851315202646800,9.633646728515625,-0.11197607964277267,-1.7659430503845215,0.010914288461208344
1733851315212615700,9.64361572265625,-0.09670400619506836,-1.8303444385528564,0.09324608743190765
1733851315222584800,9.653584716796875,-0.09237184375524521,-1.8796703815460205,0.15770816802978516
1733851315232552700,9.663552734375,-0.11077789962291718,-1.8948310613632202,0.20385810732841492
1733851315242521900,9.67352197265625,-0.14480456709861755,-1.8979978561401367,0.21381673216819763
1733851315252489500,9.683489501953124,-0.1897430717945099,-1.875221848487854,0.21119649708271027
1733851315262458600,9.693458740234375,-0.26329129934310913,-1.8738298416137695,0.17904335260391235
1733851315272426500,9.703426513671875,-0.3636252284049988,-1.9559906721115112,0.08127161860466003
1733851315282395600,9.713395751953126,-0.48997730016708374,-2.1308212280273438,-0.08625239133834839
1733851315292364500,9.723364501953125,-0.5827270746231079,-2.3119394779205322,-0.22709913551807404
1733851315302332700,9.733332763671875,-0.6400164365768433,-2.386104106903076,-0.24563181400299072
1733851315312301600,9.743301513671875,-0.6346322894096375,-2.383871555328369,-0.19405189156532288
1733851315322269700,9.753269775390624,-0.5778452157974243,-2.4131178855895996,-0.11455973982810974
1733851315332238600,9.763238525390625,-0.4862457513809204,-2.4033029079437256,-0.05182689428329468
1733851315342206700,9.773206787109375,-0.3824234902858734,-2.2984533309936523,-0.035568296909332275
1733851315352175600,9.783175537109376,-0.2977362871170044,-2.2008025646209717,-0.0791177898645401
1733851315362144800,9.793144775390624,-0.22125135362148285,-2.1657450199127197,-0.19904792308807373
1733851315372112600,9.803112548828125,-0.167805477976799,-2.131829261779785,-0.3552631735801697
1733851315382081800,9.813081787109375,-0.144867941737175,-2.1161818504333496,-0.5035740733146667
1733851315392049700,9.823049560546876,-0.15940041840076447,-2.1254231929779053,-0.6178629994392395
1733851315402018600,9.8330185546875,-0.1730395406484604,-2.1345701217651367,-0.6816049218177795
1733851315411986700,9.842986572265625,-0.1666010320186615,-2.1253740787506104,-0.6866505146026611
1733851315421955600,9.85295556640625,-0.14145147800445557,-2.078583002090454,-0.6599206328392029
1733851315431924500,9.862924560546874,-0.11776777356863022,-1.964651107788086,-0.6215852499008179
1733851315441892600,9.872892578125,-0.08705566823482513,-1.792419195175171,-0.5657845735549927
1733851315451861500,9.882861572265625,-0.04901617020368576,-1.660495400428772,-0.49011683464050293
1733851315461829600,9.89282958984375,-0.022006122395396233,-1.6121118068695068,-0.4078688323497772
1733851315471798800,9.902798828125,-0.009621892124414444,-1.5738853216171265,-0.3928416967391968
1733851315481766700,9.9127666015625,0.014638707041740417,-1.4596983194351196,-0.40722009539604187
1733851315491735800,9.92273583984375,0.02084660343825817,-1.3396902084350586,-0.41468337178230286
1733851315501704700,9.93270458984375,0.029674449935555458,-1.2611526250839233,-0.4339444041252136
1733851315511672800,9.9426728515625,0.09733923524618149,-0.9625890851020813,-0.3571826219558716
1733851315521641700,9.952641845703125,0.2771849036216736,-0.28674405813217163,0.18158046901226044
1733851315531609600,9.962609619140625,0.3417786657810211,-0.43057581782341003,1.0879870653152466
1733851315541578800,9.972578857421874,0.321916788816452,-0.5789352059364319,1.2989554405212402
1733851315551546600,9.982546630859375,0.2651202380657196,-0.22433128952980042,0.9205062389373779
1733851315561515500,9.992515625,0.1521039456129074,-0.023873550817370415,0.4248602092266083
1733851315571484700,10.002484619140626,0.04101546108722687,0.07592581957578659,0.062607541680336
1733851315581452500,10.01245263671875,-0.07921347767114639,0.0942278653383255,-0.22151686251163483
1733851315591421700,10.022421630859375,-0.15945224463939667,0.20553657412528992,-0.3604739010334015
1733851315601389600,10.0323896484375,-0.17995566129684448,0.27347832918167114,-0.35469192266464233
1733851315611358700,10.042358642578124,-0.1262883096933365,0.25466546416282654,-0.24152038991451263
1733851315621326600,10.05232666015625,-0.060266684740781784,0.1069154292345047,-0.056968387216329575
1733851315631295700,10.062295654296875,-0.017413420602679253,-0.0005675684660673141,0.09985379129648209
1733851315641264600,10.0722646484375,0.03619840741157532,0.08457795530557632,0.20830489695072174
1733851315651232800,10.082232666015624,0.10426727682352066,0.3162881135940552,0.16864532232284546
1733851315661201700,10.09220166015625,0.09808288514614105,0.5301842093467712,0.04135182499885559
1733851315671169800,10.102169677734375,0.03753608837723732,0.7290060520172119,-0.13018007576465607
1733851315681138700,10.112138671875,-0.029755868017673492,0.9760850667953491,-0.2992783188819885
1733851315691106600,10.1221064453125,-0.06416498869657516,1.2777067422866821,-0.40785959362983704
1733851315701075500,10.132075439453125,-0.027918830513954163,1.5912518501281738,-0.4131416976451874
1733851315711044600,10.142044677734376,0.05263802036643028,1.9082155227661133,-0.3457911014556885
1733851315721012500,10.152012451171874,0.13318505883216858,2.233551263809204,-0.24579419195652008
1733851315730981600,10.161981689453125,0.19737820327281952,2.53836989402771,-0.1411060392856598
1733851315740949500,10.171949462890625,0.2452341467142105,2.7855849266052246,-0.044613052159547806
1733851315750918700,10.181918701171876,0.2679806351661682,2.9609010219573975,0.01143673900514841
1733851315760886800,10.19188671875,0.2724326252937317,3.076406717300415,0.026719022542238235
1733851315770855700,10.201855712890625,0.25982093811035156,3.1359267234802246,0.03241603821516037
1733851315780824600,10.211824462890625,0.24067680537700653,3.1544137001037598,0.042732592672109604
1733851315790792700,10.221792724609376,0.22037053108215332,3.144662857055664,0.05414872244000435
1733851315800761600,10.23176171875,0.19204649329185486,3.135054111480713,0.040470726788043976
1733851315810729700,10.241729736328125,0.18642206490039825,3.1685845851898193,0.03312969580292702
1733851315820698600,10.25169873046875,0.20744186639785767,3.211704730987549,0.05960577726364136
1733851315830666500,10.26166650390625,0.25779062509536743,3.2638132572174072,0.1089700236916542
1733851315840635600,10.2716357421875,0.29462799429893494,3.266139268875122,0.16518855094909668
1733851315850604500,10.2816044921875,0.3157649040222168,3.2210867404937744,0.2028423249721527
1733851315860572700,10.29157275390625,0.3221738040447235,3.165679693222046,0.208612859249115
1733851315870541600,10.30154150390625,0.3075941205024719,3.1167795658111572,0.19613862037658691
1733851315880509700,10.311509765625,0.2679332494735718,3.0520412921905518,0.1946863979101181
1733851315890478600,10.321478515625,0.21673183143138885,2.9810597896575928,0.17776480317115784
1733851315900446500,10.331446533203126,0.17295345664024353,2.923060178756714,0.16245855391025543
1733851315910415400,10.341415283203125,0.15519346296787262,2.850525140762329,0.1539151817560196
1733851315920384800,10.351384765625,0.14137645065784454,2.779331922531128,0.1541367620229721
1733851315930352400,10.361352294921875,0.156518816947937,2.710932731628418,0.17468170821666718
1733851315940321500,10.371321533203124,0.19603799283504486,2.6587541103363037,0.17929989099502563
1733851315950289400,10.381289306640625,0.24341875314712524,2.611823320388794,0.16582657396793365
1733851315960258600,10.391258544921875,0.2770198881626129,2.5516281127929688,0.1407822072505951
1733851315970226400,10.401226318359376,0.2931128740310669,2.4610812664031982,0.09748347103595734
1733851315980195600,10.411195556640624,0.28318700194358826,2.353790760040283,0.08393703401088715
1733851315990164500,10.42116455078125,0.23292040824890137,2.2373950481414795,0.09144090116024017
1733851316000132600,10.431132568359375,0.13861867785453796,2.095973491668701,0.10939859598875046
1733851316010101500,10.4411015625,0.04659020155668259,1.9427554607391357,0.17220763862133026
1733851316020069600,10.451069580078125,-0.04091727361083031,1.7418359518051147,0.2554665803909302
1733851316030038500,10.46103857421875,-0.10014738142490387,1.5164169073104858,0.3226514160633087
1733851316040006700,10.471006591796876,-0.1198398619890213,1.292343258857727,0.370108425617218
1733851316049975600,10.4809755859375,-0.07900773733854294,1.092118263244629,0.39005815982818604
1733851316059944700,10.49094482421875,0.02880234830081463,0.9680046439170837,0.4414454400539398
1733851316069912300,10.500912353515625,0.1747051477432251,0.8865214586257935,0.5258998274803162
1733851316079881500,10.510881591796876,0.30698248744010925,0.8674595952033997,0.6083720922470093
1733851316089849600,10.520849609375,0.39473843574523926,0.9307336211204529,0.663832426071167
1733851316099818500,10.530818603515625,0.42876508831977844,1.0610144138336182,0.6956846117973328
1733851316109786600,10.54078662109375,0.39704006910324097,1.2081027030944824,0.6943511366844177
1733851316119755500,10.550755615234374,0.3071778416633606,1.3891816139221191,0.635310709476471
1733851316129724400,10.560724365234375,0.17537769675254822,1.568235158920288,0.5874019861221313
1733851316139692500,10.570692626953125,0.02870224229991436,1.7146406173706055,0.5460196137428284
1733851316149661400,10.580661376953126,-0.08443008363246918,1.8306454420089722,0.4818269610404968
1733851316159629600,10.590629638671874,-0.11839630454778671,1.9329813718795776,0.4204690456390381
1733851316169598500,10.600598388671875,-0.07518583536148071,2.0041134357452393,0.36895951628685
1733851316179566600,10.610566650390625,0.03753458708524704,2.056713581085205,0.32711726427078247
1733851316189535700,10.62053564453125,0.17931902408599854,2.0980021953582764,0.2891134023666382
1733851316199504600,10.630504638671875,0.3105134963989258,2.106905937194824,0.25857359170913696
1733851316209472500,10.640472412109375,0.4073560833930969,2.0941824913024902,0.21682438254356384
1733851316219441400,10.65044140625,0.452933669090271,2.0804927349090576,0.154238760471344
1733851316229409500,10.660409423828124,0.44702744483947754,2.081068515777588,0.07001413404941559
1733851316239378400,10.67037841796875,0.3748190104961395,2.0703444480895996,0.006280954927206039
1733851316249346600,10.6803466796875,0.26178255677223206,2.0334701538085938,-0.032988809049129486
1733851316259315500,10.6903154296875,0.13513247668743134,1.9742351770401,-0.061199408024549484
1733851316269283600,10.70028369140625,0.02504844218492508,1.8883110284805298,-0.1071203276515007
1733851316279252500,10.71025244140625,-0.032321639358997345,1.8193705081939697,-0.15090295672416687
1733851316289221600,10.7202216796875,-0.039597298949956894,1.7252877950668335,-0.18207037448883057
1733851316299189500,10.730189453125,-0.008391974493861198,1.6292922496795654,-0.20487476885318756
1733851316309158700,10.74015869140625,0.05219648405909538,1.5212182998657227,-0.22448615729808807
1733851316319126500,10.75012646484375,0.11198684573173523,1.4147552251815796,-0.24078044295310974
1733851316329095700,10.760095703125,0.14342881739139557,1.3171204328536987,-0.27139824628829956
1733851316339063600,10.7700634765625,0.16277427971363068,1.204440951347351,-0.2847294807434082
1733851316349032700,10.78003271484375,0.15891897678375244,1.0653839111328125,-0.27105480432510376
1733851316359001600,10.790001708984375,0.12396498769521713,0.9262326955795288,-0.25068241357803345
1733851316368969500,10.799969482421876,0.07270921021699905,0.811017632484436,-0.21348503232002258
1733851316378938400,10.8099384765625,0.0055975522845983505,0.6882360577583313,-0.16928401589393616
1733851316388906500,10.819906494140625,-0.07610920816659927,0.5878020524978638,-0.16869769990444183
1733851316398875400,10.82987548828125,-0.13959550857543945,0.501857578754425,-0.1937042474746704
1733851316408843500,10.839843505859376,-0.16057437658309937,0.3951309621334076,-0.22122018039226532
1733851316418812400,10.8498125,-0.1362844854593277,0.3030093014240265,-0.24207299947738647
1733851316428781600,10.859781494140625,-0.07567264884710312,0.22877910733222961,-0.2649896740913391
1733851316438749400,10.86974951171875,0.0006548801902681589,0.12399144470691681,-0.2780487537384033
1733851316448718600,10.879718505859374,0.08150849491357803,-0.002483212389051914,-0.2777193784713745
1733851316458686500,10.8896865234375,0.15664799511432648,-0.15817826986312866,-0.26539745926856995
1733851316468655600,10.899655517578125,0.21760135889053345,-0.31843745708465576,-0.24554091691970825
1733851316478623700,10.909623779296876,0.25301578640937805,-0.46054506301879883,-0.19940458238124847
1733851316488592600,10.919592529296875,0.28095245361328125,-0.6401011943817139,-0.13138289749622345
1733851316498561500,10.9295615234375,0.2769779562950134,-0.813510537147522,-0.07297791540622711
1733851316508529400,10.939529296875,0.2796476185321808,-0.9773617386817932,-0.006723177619278431
1733851316518498300,10.949498291015624,0.2750600576400757,-1.1208158731460571,0.054656557738780975
1733851316528466400,10.959466552734375,0.2852029800415039,-1.2433842420578003,0.09002881497144699
1733851316538435600,10.969435546875,0.29239803552627563,-1.313341498374939,0.07877989113330841
1733851316548403500,10.979403564453126,0.3207879662513733,-1.341599941253662,0.04974691942334175
1733851316558372600,10.98937255859375,0.364815890789032,-1.335715889930725,0.041532665491104126
1733851316568340500,10.999340576171875,0.4475496709346771,-1.3475054502487183,0.03620050475001335
1733851316578309600,11.0093095703125,0.5274546146392822,-1.3618329763412476,0.023882053792476654
1733851316588278500,11.019278564453124,0.603848934173584,-1.3886655569076538,0.017471689730882645
1733851316598246700,11.02924658203125,0.6294382214546204,-1.454650640487671,0.019462667405605316
1733851316608215600,11.039215576171875,0.6188467741012573,-1.5570251941680908,0.023456985130906105
1733851316618183700,11.04918359375,0.5904896855354309,-1.6954995393753052,0.04058164358139038
1733851316628152600,11.059152587890624,0.5404927134513855,-1.8194386959075928,0.045674439519643784
1733851316638120400,11.069120361328125,0.43719562888145447,-1.9130522012710571,0.030221180990338326
1733851316648089300,11.07908935546875,0.3289550840854645,-1.9928393363952637,0.021648483350872993
1733851316658058800,11.089058837890626,0.17563983798027039,-2.027681589126587,0.008714043535292149
1733851316668026400,11.0990263671875,-0.0031861718744039536,-2.0423359870910645,-0.10448331385850906
1733851316677995500,11.10899560546875,-0.10055506974458694,-2.0789101123809814,-0.1888653039932251
1733851316687963400,11.11896337890625,-0.13171076774597168,-2.080146312713623,-0.1911228746175766
1733851316697932500,11.1289326171875,-0.10363306105136871,-2.0995945930480957,-0.19435329735279083
1733851316707900400,11.138900390625,-0.05297906696796417,-2.1306233406066895,-0.21047616004943848
1733851316717869600,11.14886962890625,-0.02366618625819683,-2.157778739929199,-0.1966748684644699
1733851316727838500,11.15883837890625,-0.030733078718185425,-2.173753023147583,-0.1833810806274414
1733851316737806600,11.168806640625,-0.06663168966770172,-2.1632461547851562,-0.1761242300271988
1733851316747775500,11.178775390625,-0.12757880985736847,-2.1514909267425537,-0.17716655135154724
1733851316757743600,11.18874365234375,-0.20299527049064636,-2.1490910053253174,-0.18620611727237701
1733851316767712500,11.19871240234375,-0.28386998176574707,-2.1657450199127197,-0.22764605283737183
1733851316777680600,11.2086806640625,-0.343169242143631,-2.1932389736175537,-0.26838815212249756
1733851316787649500,11.2186494140625,-0.38124880194664,-2.220487594604492,-0.28866270184516907
1733851316797618700,11.22861865234375,-0.4113776683807373,-2.2348763942718506,-0.30823028087615967
1733851316807586300,11.23858642578125,-0.43374377489089966,-2.2568376064300537,-0.3341907262802124
1733851316817555500,11.248555419921875,-0.4484228491783142,-2.299273729324341,-0.3455917239189148
1733851316827523600,11.258523681640625,-0.4418802261352539,-2.3297882080078125,-0.3248855471611023
1733851316837492500,11.268492431640626,-0.4128296673297882,-2.361891984939575,-0.28605425357818604
1733851316847460600,11.278460693359374,-0.40222740173339844,-2.4182610511779785,-0.2565440535545349
1733851316857429500,11.288429443359375,-0.381564199924469,-2.4532060623168945,-0.2494392842054367
1733851316867398400,11.2983984375,-0.34903720021247864,-2.473270893096924,-0.23119445145130157
1733851316877366500,11.308366455078126,-0.30514299869537354,-2.4910192489624023,-0.20384112000465393
1733851316887335700,11.318335693359375,-0.2498958855867386,-2.5018293857574463,-0.17904075980186462
1733851316897303600,11.328303466796875,-0.19300250709056854,-2.505154609680176,-0.16712364554405212
1733851316907272700,11.338272705078126,-0.13753631711006165,-2.4718403816223145,-0.1739448457956314
1733851316917240600,11.348240478515624,-0.0965324193239212,-2.4289119243621826,-0.17725995182991028
1733851316927209700,11.358209716796875,-0.07967841625213623,-2.4037437438964844,-0.15161746740341187
1733851316937178600,11.3681787109375,-0.07439151406288147,-2.397061347961426,-0.10061845928430557
1733851316947146800,11.378146728515626,-0.07343866676092148,-2.3783655166625977,-0.04824726656079292
1733851316957115600,11.38811572265625,-0.05912923067808151,-2.346825122833252,-0.005573573522269726
1733851316967083800,11.398083740234375,-0.02415015548467636,-2.299947738647461,0.013475113548338413
1733851316977052700,11.408052734375,0.038345981389284134,-2.2516112327575684,0.014141435734927654
1733851316987020800,11.418020751953126,0.1296505481004715,-2.207766056060791,-0.0010451753623783588
1733851316996989700,11.42798974609375,0.2238289713859558,-2.1688549518585205,-0.035555750131607056
1733851317006957800,11.437957763671875,0.2891503572463989,-2.1331846714019775,-0.059946563094854355
1733851317016926700,11.4479267578125,0.3076300323009491,-2.1008174419403076,-0.047725047916173935
1733851317026896000,11.457895751953124,0.29335078597068787,-2.084954261779785,-0.04323887825012207
1733851317036863700,11.46786376953125,0.2345748096704483,-2.050610065460205,-0.042184799909591675
1733851317046833000,11.4778330078125,0.16073831915855408,-1.988112449645996,-0.030796201899647713
1733851317056800500,11.487800537109376,0.10544310510158539,-1.9228887557983398,-0.021560359746217728
1733851317066769700,11.497769775390625,0.04716792702674866,-1.8862799406051636,-0.02664869651198387
1733851317076737500,11.507737548828125,-0.0023458292707800865,-1.8865678310394287,-0.04073548689484596
1733851317086706700,11.517706787109375,-0.026619307696819305,-1.886552333831787,-0.025156358256936073
1733851317096675600,11.527675537109374,-0.02436654083430767,-1.8778040409088135,-0.010617628693580627
1733851317106643700,11.537643798828125,-0.010053661651909351,-1.8527750968933105,-0.012717599049210548
1733851317116612600,11.547612548828125,0.01113071944564581,-1.807350993156433,-0.02362644113600254
1733851317126580700,11.557580810546876,0.03894795477390289,-1.7211894989013672,-0.04953107610344887
1733851317136549600,11.567549560546874,0.08011084049940109,-1.6051281690597534,-0.08474898338317871
1733851317146517800,11.577517822265625,0.09419182687997818,-1.4895950555801392,-0.13676035404205322
1733851317156486700,11.587486572265625,0.09682143479585648,-1.4009798765182495,-0.19217140972614288
1733851317166455800,11.597455810546874,0.09038326889276505,-1.3554643392562866,-0.23622305691242218
1733851317176423700,11.607423583984374,0.07855004817247391,-1.3239271640777588,-0.2631409466266632
1733851317186392800,11.617392822265625,0.06281768530607224,-1.3055940866470337,-0.26496613025665283
1733851317196360700,11.627360595703125,0.03836347535252571,-1.2922122478485107,-0.24796636402606964
1733851317206329600,11.63732958984375,0.016803625971078873,-1.2844280004501343,-0.23727183043956757
1733851317216297700,11.647297607421875,0.026221895590424538,-1.2684372663497925,-0.23915627598762512
1733851317226266600,11.6572666015625,0.03725813701748848,-1.2579485177993774,-0.24206876754760742
1733851317236235500,11.667235595703126,0.058317881077528,-1.2778974771499634,-0.26323264837265015
1733851317246203600,11.67720361328125,0.09557024389505386,-1.2771936655044556,-0.3017529249191284
1733851317256172500,11.687172607421875,0.12976257503032684,-1.2721322774887085,-0.32643216848373413
1733851317266140700,11.697140625,0.14754538238048553,-1.296567678451538,-0.3248274624347687
1733851317276109600,11.707109619140626,0.11856459826231003,-1.1885815858840942,-0.4336434304714203
1733851317286077700,11.71707763671875,-0.02344549261033535,-0.6427889466285706,-1.1453464031219482
1733851317296046800,11.727046875,-0.02778751030564308,0.5625183582305908,-2.265878677368164
1733851317306014700,11.7370146484375,0.010412600822746754,0.44200971722602844,-1.5690436363220215
1733851317315984000,11.74698388671875,-0.2584920823574066,-1.6202995777130127,0.15682101249694824
1733851317325952800,11.756952880859375,-0.2094755917787552,0.02319929003715515,-0.07396169006824493
1733851317335921000,11.7669208984375,0.056934792548418045,0.36519017815589905,-0.17064668238162994
1733851317345889800,11.776889892578126,0.0994534119963646,0.5220766663551331,-0.20443081855773926
1733851317355857700,11.786857666015624,0.29307374358177185,0.6570289134979248,-0.25130775570869446
1733851317365826600,11.79682666015625,0.43167853355407715,0.6172343492507935,-0.06126673147082329
1733851317375794700,11.806794677734375,0.447866290807724,0.38815295696258545,0.19367581605911255
1733851317385763600,11.816763671875,0.37997734546661377,0.21480700373649597,0.4336042106151581
1733851317395732700,11.826732666015625,0.24472765624523163,0.11126141995191574,0.649132490158081
1733851317405700600,11.83670068359375,0.004492214880883694,0.02997434139251709,0.6461397409439087
1733851317415669800,11.846669677734376,-0.26687297224998474,0.04586702212691307,0.38892418146133423
1733851317425637600,11.8566376953125,-0.46057674288749695,0.09048823267221451,0.03209567070007324
1733851317435606800,11.866606689453125,-0.5353686809539795,0.11074663698673248,-0.18539829552173615
1733851317445574700,11.87657470703125,-0.5032830238342285,0.19471605122089386,-0.3104201853275299
1733851317455543800,11.886543701171876,-0.3519608676433563,0.4493033289909363,-0.37106966972351074
1733851317465512700,11.8965126953125,-0.11090842634439468,0.8103132843971252,-0.3328869938850403
1733851317475480800,11.906480712890625,0.16536469757556915,1.1880486011505127,-0.21690843999385834
1733851317485449700,11.91644970703125,0.38700422644615173,1.5723661184310913,-0.081165611743927
1733851317495417600,11.92641748046875,0.5071730017662048,1.954184889793396,0.06844624876976013
1733851317505386500,11.936386474609375,0.5046320557594299,2.303985595703125,0.2014172226190567
1733851317515354600,11.946354736328125,0.42197683453559875,2.628143072128296,0.29881539940834045
1733851317525323500,11.956323486328126,0.29486462473869324,2.9064958095550537,0.3420878052711487
1733851317535292700,11.966292724609374,0.12075674533843994,3.111638307571411,0.36400777101516724
1733851317545260500,11.976260498046875,-0.07575909793376923,3.2374463081359863,0.3496430814266205
1733851317555229700,11.986229736328125,-0.23278306424617767,3.29215931892395,0.30104225873947144
1733851317565197800,11.99619775390625,-0.3103174865245819,3.2657530307769775,0.24169063568115234
1733851317575166700,12.006166748046875,-0.31513434648513794,3.2043328285217285,0.2049291580915451
1733851317585134800,12.016134765625,-0.24787919223308563,3.139813184738159,0.22392261028289795
1733851317595103700,12.026103759765626,-0.146813303232193,3.0700910091400146,0.27456820011138916
1733851317605072000,12.03607177734375,-0.045420147478580475,3.0124223232269287,0.328992635011673
1733851317615040800,12.046040771484375,0.02681676298379898,2.9918346405029297,0.3912709355354309
1733851317625009700,12.056009765625,0.038955844938755035,3.0010454654693604,0.4189910292625427
1733851317634977500,12.0659775390625,-0.019993755966424942,3.0429797172546387,0.3984295725822449
1733851317644946700,12.07594677734375,-0.11569202691316605,3.1063148975372314,0.34647637605667114
1733851317654914600,12.08591455078125,-0.18722639977931976,3.1519224643707275,0.2870633900165558
1733851317664883700,12.0958837890625,-0.20634090900421143,3.187875747680664,0.2445301115512848
1733851317674851600,12.1058515625,-0.18202410638332367,3.2000582218170166,0.237957164645195
1733851317684820700,12.11582080078125,-0.13867606222629547,3.188053607940674,0.2677937150001526
1733851317694789600,12.12578955078125,-0.0750584751367569,3.1744964122772217,0.28238171339035034
1733851317704757800,12.1357578125,-0.031455833464860916,3.1686668395996094,0.2835911810398102
1733851317714726700,12.1457265625,-0.005794947035610676,3.148811101913452,0.268252968788147
1733851317724694800,12.15569482421875,0.0009351850603707135,3.135157346725464,0.22948187589645386
1733851317734663700,12.16566357421875,-0.03327525034546852,3.1086037158966064,0.20554591715335846
1733851317744631800,12.1756318359375,-0.1060810536146164,3.0495591163635254,0.19933976233005524
1733851317754600700,12.1856005859375,-0.19798913598060608,2.978240966796875,0.18218794465065002
1733851317764568800,12.19556884765625,-0.27407482266426086,2.900334596633911,0.15791256725788116
1733851317774537700,12.205537841796875,-0.32041436433792114,2.8193297386169434,0.13940651714801788
1733851317784507000,12.2155068359375,-0.3259739577770233,2.7198336124420166,0.13603924214839935
1733851317794474500,12.225474609375,-0.2899706959724426,2.6231119632720947,0.13107004761695862
1733851317804443600,12.235443603515625,-0.2287975698709488,2.5446808338165283,0.11219610273838043
1733851317814411500,12.24541162109375,-0.16006511449813843,2.4637179374694824,0.10965384542942047
1733851317824380700,12.255380615234374,-0.10499624907970428,2.360914707183838,0.12254612147808075
1733851317834348800,12.265348876953125,-0.08337803930044174,2.2530345916748047,0.13839593529701233
1733851317844317700,12.275317626953125,-0.08369231969118118,2.1593196392059326,0.14695917069911957
1733851317854286600,12.28528662109375,-0.11367631703615189,2.088541269302368,0.13018232583999634
1733851317864254700,12.295254638671874,-0.16295917332172394,2.0587472915649414,0.10174383223056793
1733851317874223600,12.3052236328125,-0.22420121729373932,2.04573917388916,0.059050966054201126
1733851317884192000,12.31519189453125,-0.2852499783039093,2.040766477584839,0.014001458883285522
1733851317894161000,12.325160888671874,-0.3056822717189789,2.024329662322998,-0.01766325905919075
1733851317904129000,12.33512890625,-0.28617027401924133,2.0090527534484863,-0.03293294832110405
1733851317914098000,12.345097900390625,-0.23679502308368683,1.9801640510559082,-0.028776822611689568
