time,seconds_elapsed,z,y,x
1733752184479922200,0.016922119140625,-0.14891221209466457,0.024226678761839864,-0.0009566431377083062
1733752184489898000,0.02689794921875,-0.12422668364942073,-0.007511325478181242,0.069215501980111
1733752184499873800,0.036873779296875,-0.10634031382501125,-0.007788754180073737,0.1567503583744168
1733752184509848300,0.046848388671875,-0.14620646026730535,0.015654957510530948,0.2514783411432058
1733752184519824400,0.056824462890625,-0.09924304904043674,0.02036635007187724,0.23365539194382726
1733752184529800400,0.066800537109375,0.01712006162703037,-0.010822788113728166,0.17063516440726817
1733752184539775500,0.076775390625,0.1571107161194086,-0.07734510548710823,0.17291618801653383
1733752184549751300,0.086751220703125,0.1876367872864008,-0.09426708725877106,0.13570172512680292
1733752184559727400,0.096727294921875,0.09271978475153446,-0.12363098277859388,0.12100574884153902
1733752184569703400,0.106703369140625,-0.05896481466591358,-0.18327457348890602,0.15246018689982593
1733752184579678200,0.11667822265625,-0.2756879957050085,-0.16485913828909396,0.24140125683024524
1733752184589654300,0.126654296875,-0.3856125977575779,-0.13731675910800695,0.3459650625020265
1733752184599630300,0.13663037109375,-0.26896190232038497,-0.15589980595968664,0.4060067126192152
1733752184609605400,0.14660546875,-0.04262333619594574,-0.12305442499965429,0.3007601123150438
1733752184619581200,0.156581298828125,0.03103869686424732,-0.08067264247462153,0.20057452172748744
1733752184629557200,0.16655712890625,0.021418051081895827,-0.07756327828243374,0.18829992737025023
1733752184639533300,0.176533203125,0.02786941917836666,0.002746083837747574,0.1683388701636344
1733752184649508400,0.18650830078125,-0.03354571124911308,0.05822561367116868,0.07365034262239932
1733752184659484400,0.196484375,-0.06155716924667358,0.07547770418003201,-0.04737739885523915
1733752184669460200,0.206460205078125,0.05141162280738353,0.06515512067340314,-0.13817534869872033
1733752184679435300,0.216435302734375,0.27176819191277024,-0.017147095764428376,-0.2538799954574555
1733752184689411300,0.226411376953125,0.3989654158055782,-0.04196129209063947,-0.45852881741914897
1733752184699387400,0.236387451171875,0.3623842823833227,-0.028585750754177568,-0.23652733065094797
1733752184709363200,0.24636328125,0.08378887479901313,0.011834741635248064,0.2275327078124508
1733752184719338500,0.25633837890625,-0.3484679852336645,0.06849727070815861,0.39463564297296105
1733752184729314300,0.266314208984375,-0.6768570590347052,0.10149470042474568,0.4766053395207971
1733752184739290000,0.2762900390625,-0.6410287898063659,0.1036376307375729,0.4905674485735595
1733752184749265400,0.286265380859375,-0.31652269491851326,0.06959054583758115,0.41915096595045176
1733752184759241200,0.2962412109375,0.05778700305819511,0.002904050878435373,0.4494068053413182
1733752184769217300,0.30621728515625,0.3758119192332029,-0.12008593058288097,0.5752590443659573
1733752184779193300,0.316193359375,0.4260983374029398,-0.23398623133338986,0.7337507665149867
1733752184789168400,0.32616845703125,0.2206844858855009,-0.23800803419537842,0.8599282189060002
1733752184799144200,0.336144287109375,-0.04268938716948032,-0.21562873686589298,0.8955243598788977
1733752184809120500,0.34612060546875,-0.2186275533556938,-0.27128289261385796,0.7828295624606311
1733752184819096300,0.356096435546875,-0.28165713324248787,-0.2036114052053541,0.608411920372583
1733752184829071400,0.3660712890625,-0.2001104844123125,0.11912578031383454,0.48325785621255635
1733752184839047400,0.37604736328125,-0.03688566932678222,0.2691211114700883,0.4792895371034741
1733752184849023200,0.386023193359375,0.03953530705273151,0.05732062765546143,0.49231633806750175
1733752184858998300,0.395998291015625,0.005343114593625069,-0.025343407832086086,0.4542375134333968
1733752184868974300,0.405974365234375,-0.06693886228501797,-0.11530768333040177,0.3468399456404149
1733752184878950400,0.415950439453125,-0.06965513550639152,-0.06800152308046817,0.2715279534161091
1733752184888926200,0.42592626953125,-0.05929097788035869,-0.015661971773207186,0.2887647002253681
1733752184898901200,0.4359013671875,-0.09406184701025486,0.00997727720029652,0.3476416174121201
1733752184908877300,0.445877197265625,-0.16043196949660776,-0.15251184402182696,0.19050036002397536
1733752184918853400,0.455853271484375,-0.25059680906832216,-0.18701354082152247,0.10926767251379788
1733752184928828200,0.465828125,-0.2975830166488886,-0.08039725959934294,0.31208135147020216
1733752184938804500,0.475804443359375,-0.22917466633319852,-0.005424582332000136,0.5316967468194663
1733752184948780300,0.4857802734375,-0.12222294261157512,-0.013223200318962335,0.5293039333987981
1733752184958756000,0.495756103515625,-0.16012684907019137,-0.14226101057715712,0.4581194694332778
1733752184968731400,0.5057314453125,-0.22556524366438388,-0.2828688471198082,0.17049254106618464
1733752184978707200,0.515707275390625,-0.1581260306417942,-0.19182466743029652,0.015869550109282135
1733752184988683300,0.525683349609375,-0.14415128130316734,-0.05821640745140612,0.16147775222249328
1733752184998658300,0.535658203125,-0.237454418900609,0.23135727106928825,0.4796816051609814
1733752185008634400,0.54563427734375,-0.3151011376827955,0.5636638836402446,0.8434549307499081
1733752185018610200,0.555610107421875,-0.2553483875095844,0.7662029103737324,0.9463132476780564
1733752185028586500,0.56558642578125,-0.16730828500688075,0.31963344735018906,0.7069323907595128
1733752185038561300,0.575561279296875,-0.04804419220089912,0.19999745249189435,0.10822269350551068
1733752185048537300,0.585537353515625,0.006914309433102607,0.3604955460272729,-0.01559219447262585
1733752185058513400,0.595513427734375,0.013519991308450698,0.25034480706863105,0.05374591097384691
1733752185068489200,0.6054892578125,0.07497077757120132,0.23987514324150977,0.21396036526225506
1733752185078464300,0.61546435546875,0.060626610398292535,0.37630839751325545,0.4894021311212331
1733752185088440300,0.6254404296875,-0.0715431412100792,0.41410789374932644,0.750579005588591
1733752185098416400,0.63541650390625,-0.24993980646431443,0.37060529050081964,0.7225096799239515
1733752185108391200,0.64539111328125,-0.36317806310951706,0.34414632264226674,0.5198660968374461
1733752185118367200,0.6553671875,-0.3609598025381565,0.33885800697579976,0.26631562559530136
1733752185128343300,0.66534326171875,-0.325318580314517,0.31540735408775505,0.29039237449243666
1733752185138319400,0.6753193359375,-0.27391806342303754,0.3020692221522331,0.3940428647115826
1733752185148294100,0.685294189453125,-0.2427665538340807,0.4465768426124006,0.740119790090248
1733752185158270500,0.6952705078125,-0.1632452733516693,0.3552613717008382,1.0056933651465922
1733752185168246300,0.705246337890625,0.13120704405605793,0.20696524567790328,0.8188503585863858
1733752185178221300,0.71522119140625,0.42783787454664707,0.2635281868338585,0.6724076784104108
1733752185188197400,0.725197265625,0.4324491677343845,0.24579971098490058,0.4859390581205487
1733752185198173200,0.735173095703125,0.1198836860090494,0.26540472129546105,0.3277313405446708
1733752185208149200,0.745149169921875,-0.26095453695356846,0.15451280858069658,-0.05054653041064739
1733752185218124300,0.755124267578125,-0.4961930333703756,0.010868088560178875,-0.3586654079906642
1733752185228100400,0.765100341796875,-0.4745815055429935,0.0050786915037781,-0.3945291869238019
1733752185238076200,0.775076171875,-0.3266857770144939,0.25087672198824584,-0.5748628115899861
1733752185248051500,0.785051513671875,-0.3152051825791597,0.04621076622866094,-0.41458500974178314
1733752185258027300,0.79502734375,-0.12031389411985874,-0.03457227781787515,-0.20070026699900625
1733752185268003300,0.80500341796875,0.08901040883958339,0.08781922629363835,0.07583177831470966
1733752185277979400,0.8149794921875,0.18036241236925124,0.3319445012602955,0.06216361070722341
1733752185287954400,0.824954345703125,0.20843582968711852,0.041676776060834524,0.04893398064747453
1733752185297930200,0.83493017578125,0.2605155610144138,-0.11760945746675133,0.031089842529594895
1733752185307906300,0.84490625,0.22148937252759932,0.46874227799549695,-0.07311082891821861
1733752185317882400,0.85488232421875,0.06296119082570076,0.4674207470681518,-0.042410862489044666
1733752185327857200,0.864857177734375,0.003799392282962799,0.15050349987410008,-0.08722907838076352
1733752185337833500,0.87483349609375,0.030022797819972035,-0.04516264541521668,-0.12958221933320163
1733752185347809300,0.884809326171875,0.10647066220641135,0.27543438627012073,0.0402602603264153
1733752185357784300,0.894784423828125,0.21704700616598127,0.5678782133996486,0.04427987123131752
1733752185367760400,0.904760498046875,0.29012860898971554,0.1751930469073355,0.1626632356800139
1733752185377736400,0.914736328125,0.3448474566489458,0.38322336453348393,0.14697247620373963
1733752185387712300,0.924712158203125,0.31172669281363485,0.5859497305326163,0.13885273650363086
1733752185397687300,0.934687255859375,0.14462942020893096,0.43785168436504895,0.2916657554291189
1733752185407663400,0.944663330078125,-0.11135609616041182,0.14162468543499707,0.24183497207239268
1733752185417639200,0.95463916015625,-0.28842063602805135,-0.031759120093286033,0.0842572229631245
1733752185427614200,0.9646142578125,-0.2957984713196754,-0.4283627752035856,0.01242123628631234
1733752185437590300,0.97459033203125,0.09343582406640052,0.18052045247517526,-0.24762699947729705
1733752185447566300,0.98456640625,0.36226679348349566,0.43785964847579595,-0.46418388403877614
1733752185457542400,0.99454248046875,0.5412234307080507,0.4867890260133892,-0.746551503638178
1733752185467517400,1.004517333984375,0.5574789844602346,0.14300430322512983,-0.6491467759408056
1733752185477493200,1.0144931640625,0.46864568575322624,-0.03592603051438927,-0.574899198077619
1733752185487469300,1.02446923828125,0.14458733463287352,-0.033042510967329145,-0.5486581107534468
1733752185497445400,1.0344453125,-0.2370359012275934,-0.027585852996632455,-0.4188068652205169
1733752185507420400,1.04442041015625,-0.34438685339987274,-0.011118263928964733,-0.37224239018335936
1733752185517397200,1.054397216796875,-0.11121405734121799,-0.17801453406885265,-0.2570413090325892
1733752185527373000,1.064373046875,0.35054011533260343,0.07906937199644744,-0.20774857807531952
1733752185537348000,1.07434814453125,0.6364975761175156,0.4427353647533804,-0.11347177314013242
1733752185547324200,1.08432421875,0.5362608398646116,0.3098245855193585,0.10256810180991888
1733752185557300000,1.094300048828125,0.3580424537867307,0.11679134601689875,-0.12127251001894473
1733752185567276000,1.104276123046875,0.1489408536672592,0.00797083274871111,-0.33045053637549276
1733752185577251000,1.1142509765625,-0.02825578814744949,-0.15973624231740832,-0.3741914784245193
1733752185587227100,1.12422705078125,-0.03098550537228584,0.19599954196214675,-0.5182892759747803
1733752185597203000,1.134202880859375,0.03764087160825729,0.27467326570451256,-0.5796366018630564
1733752185607178000,1.144177978515625,0.09649462711513042,-0.05110051103159785,-0.4332463094614446
1733752185617154000,1.154154052734375,0.03965571856200695,0.19294694945849478,-0.08295300849676132
1733752185627130000,1.164130126953125,0.012165069568157195,0.36390835014544426,-0.006825608236342668
1733752185637106200,1.174106201171875,0.20152385834157466,0.12085486912876367,-0.3484676929727196
1733752185647081200,1.184081298828125,0.3135761200726032,0.06331066185049712,-0.375839684022963
1733752185657057000,1.19405712890625,0.1947638626873493,-0.006969254490733146,-0.29918080723434687
1733752185667032800,1.20403271484375,0.10383797561526298,0.08027787100337445,-0.2124282603241503
1733752185677009200,1.214009033203125,-0.2291723282456398,0.14981208354383707,-0.23039544029980896
1733752185686984000,1.22398388671875,-0.4417763835281133,-0.0044501843418925996,-0.4581733915776014
1733752185696960000,1.2339599609375,-0.42726738118231294,-0.02109174173697829,-0.6612218291379511
1733752185706936000,1.24393603515625,-0.24861644890606402,0.09361761037409305,-0.6847977889060973
1733752185716911000,1.2539111328125,0.07538812620043754,0.10358736185505986,-0.5811228948980569
1733752185726887000,1.263886962890625,0.40352994724214075,-0.022775310909748075,-0.44807840628176926
1733752185736863200,1.27386328125,0.321650120934844,-0.11302147208936512,-0.3228394768498838
1733752185746839000,1.283839111328125,0.18964111284613608,0.10349676096215843,-0.06177841078191995
1733752185756814000,1.29381396484375,0.5021142401129007,0.08490713823921978,0.1559976403109729
1733752185766790100,1.3037900390625,0.5674871682554483,0.011657046980783342,0.18344079690128565
1733752185776766000,1.313765869140625,0.18893559492528436,0.18599552288539706,0.1744300997108221
1733752185786741000,1.323740966796875,-0.38192660272121426,0.2418815876930952,0.050154023961722846
1733752185796717000,1.333717041015625,-0.8253367249310016,0.14875088405311107,0.07871376349180936
1733752185806693000,1.343693115234375,-0.9832043968975543,-0.029143530767410993,0.1638676430337131
1733752185816669000,1.3536689453125,-0.5582879627555608,-0.17300868860557675,0.18138678698092697
1733752185826644200,1.363644287109375,0.2737093891084194,-0.22534955508708954,0.1628105351962149
1733752185836620000,1.3736201171875,0.8853717991769313,-0.3163930771894753,0.18553879209384322
1733752185846596000,1.38359619140625,0.8157844682097435,-0.4142722905308008,0.19544410003647206
1733752185856572200,1.393572265625,0.32347850540578366,-0.44380379770249123,-0.0726598702803254
1733752185866547200,1.403547119140625,-0.15859364815354346,-0.23640841697901485,-0.15608721829056738
1733752185876523000,1.41352294921875,-0.4995715698927641,-0.047822512274235486,-0.2335274547152221
1733752185886499000,1.4234990234375,-0.6311527079582214,0.06040186173170805,-0.32595804726183414
1733752185896474000,1.43347412109375,-0.49613750379085536,0.13757058773860334,-0.3048439475625753
1733752185906450000,1.443449951171875,-0.13101765896379947,0.04664499292746186,-0.24256430926024913
1733752185916426200,1.45342626953125,0.15699088913202286,0.10519830418303608,0.16800883449167012
1733752185926402000,1.463402099609375,0.17398352498710154,0.30620076899901033,0.6254851837158203
1733752185936377000,1.473377197265625,0.058582537350058556,0.3116473439671099,0.7294219435304403
1733752185946353000,1.483352783203125,-0.07496610139608383,0.19499547948613763,0.41625615782439707
1733752185956329200,1.4933291015625,-0.15028525401353834,0.15536401858255267,0.20740648663938044
1733752185966304000,1.503303955078125,-0.10214753831028937,0.15589008828327058,0.035276772825419904
1733752185976280000,1.513280029296875,0.10990998900532722,0.20034180895015596,-0.13223492579907178
1733752185986256100,1.523256103515625,0.12223054139614105,0.2308662726819515,-0.1895832451790571
1733752185996232000,1.53323193359375,-0.15256781199276445,0.2505290045291185,-0.16684446688741444
1733752186006207000,1.54320703125,-0.5540975253283977,0.30890272143408654,0.011157646091282367
1733752186016183000,1.55318310546875,-0.7737450693815946,0.22468203108906745,-0.07445026082843542
1733752186026159000,1.5631591796875,-0.5007493815004825,0.1315970662869513,-0.22589666757583618
1733752186036134000,1.5731337890625,0.11622457897961139,0.0974010744355619,-0.1373804719939828
1733752186046110200,1.583110107421875,0.540342556220293,0.03557590190246701,0.17513240276128053
1733752186056086000,1.5930859375,0.5804775827318429,0.17929931318238376,0.508672867976129
1733752186066062000,1.60306201171875,0.2772609441101551,0.21393311192914843,0.6255842601761221
1733752186076037000,1.613037109375,-0.03262684283852577,0.1298952308051288,0.4369450178489089
1733752186086013200,1.62301318359375,-0.13616262063682077,0.016871493693441153,0.14890139843970537
1733752186095989000,1.632989013671875,-0.028732758009433746,0.17785642089769244,-0.4475219414427876
1733752186105964000,1.642964111328125,0.05765080945789813,0.057759238268435,-0.4560153367608785
1733752186115940000,1.652940185546875,0.08331307398080826,0.028619068501889704,-0.552668369308114
1733752186125916000,1.662916015625,0.07254267364144325,-0.04166720451489091,-0.685753482195735
1733752186135892200,1.672892333984375,0.003880640825629234,-0.022482465443015097,-0.6345294909149408
1733752186145867000,1.682866943359375,-0.03896013751327991,0.09511573997735977,-0.5786506595656276
1733752186155843000,1.692843017578125,-0.01720949347615242,0.11814736373573541,-0.5387623012915254
1733752186165819100,1.702819091796875,0.011578794112801551,0.24025632457882165,-0.2665902047529817
1733752186175794200,1.712794189453125,0.019479191973805425,0.3365985376112163,-0.03342442295700312
1733752186185770000,1.72277001953125,-0.023350480449199674,0.32450960201919077,0.17413550067842007
1733752186195746000,1.73274609375,-0.11177870548665522,0.23228519956916568,0.2233618884012103
1733752186205722000,1.74272216796875,-0.006377133816480636,0.08591215056329965,0.12137363230586051
1733752186215697200,1.752697265625,0.32351416124105453,-0.0031365444600582122,0.07661006921082734
1733752186225673000,1.7626728515625,0.5440443333476781,-0.05778028105646372,0.06372194606512785
1733752186235649000,1.77264892578125,0.5735334626823664,-0.10998013163208961,-0.10883154611885547
1733752186245625000,1.782625,0.4110404690027237,0.0627738515600562,-0.593373889183998
1733752186255599900,1.792599853515625,0.08964286152422428,0.05476181001812219,-0.8115881855636835
1733752186265576200,1.802576171875,-0.09034954848885536,0.05296601264253258,-0.7514698169484734
1733752186275552000,1.812552001953125,-0.08457739482820034,0.21907661229744552,-0.8191206268951297
1733752186285527000,1.822527099609375,-0.1575543682336807,0.38505569452717897,-0.8007382902473211
1733752186295503000,1.832503173828125,-0.17268004117310046,0.46022535567134615,-0.695628687261045
1733752186305479200,1.842479248046875,-0.09716565824449062,0.40373452990353104,-0.5210647320374846
1733752186315454000,1.852453857421875,0.03840016554296016,0.3559209315881133,-0.1543617096722126
1733752186325430300,1.86243017578125,0.1432990483880043,0.3416071595534682,0.14724544792622327
1733752186335406000,1.872406005859375,0.1671153927832842,0.2867999029584229,0.33296500341445207
1733752186345382000,1.8823818359375,0.19906243666410445,0.1790146510221064,0.31673662993013857
1733752186355357200,1.892357177734375,0.15999182451367377,0.04461144127324223,0.17571546334624288
1733752186365333000,1.9023330078125,0.14679974998533724,-0.05645780028104782,0.00048252281993627544
1733752186375309000,1.91230908203125,0.08319967673420905,-0.15353870285153387,-0.17153554731309412
1733752186385285000,1.92228515625,0.0024006314009428023,-0.18219722658097742,-0.19953414582908152
1733752186395260200,1.93226025390625,-0.11785188792049885,-0.2566860658541322,-0.22940350665301082
1733752186405236000,1.942236083984375,-0.30921324868798256,-0.2893020950376987,-0.22614362807422875
1733752186415212000,1.9522119140625,-0.3991027784496546,-0.10992445592209696,-0.1982324155807495
1733752186425187000,1.96218701171875,-0.25784663406610486,0.05629793354421854,-0.11499591396749019
1733752186435163100,1.9721630859375,-0.00571077886223793,0.09679740945398807,0.21859014395475387
1733752186445139200,1.98213916015625,0.2732031931519508,0.09109700585529208,0.41426439948529004
1733752186455115000,1.992114990234375,0.3388210359662771,0.05047068869546056,0.4304562403514981
1733752186465090000,2.002090087890625,0.19569091440439224,-0.05695186740830541,0.2649675719872117
1733752186475065900,2.01206591796875,-0.049960254955291744,-0.2492091541022062,-0.018008242638409135
1733752186485042200,2.022042236328125,-0.26288871988654133,-0.325788535913825,-0.15905863531678915
1733752186495017000,2.032016845703125,-0.4061281470417976,-0.3021509090863168,-0.2199459424778819
1733752186504993000,2.041992919921875,-0.45596214526891704,-0.2469914780527353,-0.1229167700946331
1733752186514968800,2.05196875,-0.37162031276226043,-0.14097352804988622,0.09848989258557557
1733752186524945000,2.06194482421875,-0.24075989018678665,0.04008607280328869,0.19773791006207464
1733752186534919700,2.071919677734375,-0.0688940880060196,0.13968012723848222,0.35154081680774685
1733752186544896000,2.08189599609375,0.07840250558555126,0.15561492460370063,0.4606891737908125
1733752186554871800,2.091871826171875,0.10573825627863406,0.16120163869485257,0.46542467788010833
1733752186564846800,2.101846923828125,0.03793839325010776,0.1920654173836112,0.3383686160236597
1733752186574823000,2.111822998046875,-0.03693126203417778,0.2688165025003254,0.13356062144488096
1733752186584798700,2.121798828125,0.0063087447553873055,0.24178908710405228,-0.0011839490875601769
1733752186594773800,2.131773681640625,0.2008113261580467,0.054959378416836256,-0.07553747154325247
1733752186604749800,2.141749755859375,0.2542272745251655,-0.11831234503909945,-0.09638970543593167
1733752186614726000,2.151725830078125,0.2224479884266853,-0.0997694110020995,-0.07314882284104823
1733752186624701700,2.16170166015625,0.1221452012002468,0.07619520479962229,-0.0402609909787774
1733752186634676700,2.1716767578125,-0.12228431740999221,0.14873232548311352,0.009064473204314707
1733752186644652800,2.18165283203125,-0.3081429891079664,0.18102394501790403,0.0631450229600072
1733752186654628900,2.19162890625,-0.26755554265379905,0.1633566247716546,0.13408669114559887
1733752186664605000,2.20160498046875,0.00760521430671215,0.14036299493610857,0.15815788708478212
1733752186674580000,2.211580078125,0.195126266258955,0.2979727466188371,0.06921469826251268
1733752186684555800,2.2215556640625,0.19173019407987593,0.4542667395278811,-0.21162381207346914
1733752186694531800,2.23153173828125,-0.041243280014395714,0.2627234463222325,0.35370296327769757
1733752186704507000,2.2415068359375,-0.2003711811751127,0.058814592540264124,0.7467264218136668
1733752186714482700,2.251482666015625,-0.12023147653341293,-0.03064560589343309,0.48871553709655996
1733752186724459000,2.261458984375,0.021454291439056396,-0.10016673975661397,0.2883776736691594
1733752186734433800,2.271433837890625,0.1039063646763563,-0.19521116806343197,0.04981237091720104
1733752186744409900,2.281409912109375,0.05553308665156364,-0.2989953676648438,-0.1820782763764262
1733752186754385700,2.2913857421875,0.022649054181575774,-0.21185762082934378,-0.2463926353767514
1733752186764362000,2.301362060546875,-0.06764554924964905,-0.1530662630341947,-0.07346066526919603
1733752186774336800,2.311336669921875,-0.18820085090994834,-0.18674115362092852,0.13601532112061976
1733752186784312800,2.321312744140625,-0.19616379261314867,-0.16843363577499984,0.04280044632852077
1733752186794289000,2.331288818359375,-0.09540800092220306,-0.04170695200338959,-0.10047726701050996
1733752186804264000,2.341263916015625,0.06917875016629696,-0.09396656994223594,-0.09661153149306774
1733752186814239700,2.35123974609375,0.3112444622546434,-0.009898878201842307,-0.2384136193215847
1733752186824215800,2.3612158203125,0.4149515049666166,-0.12631868749260902,-0.2685793327435851
1733752186834192000,2.37119189453125,0.22967034089565275,-0.21562179566845296,0.29797990701198573
1733752186844166700,2.381166748046875,0.025130349603295323,-0.17288666966110466,0.1452580735012889
1733752186854143000,2.39114306640625,-0.13173603636622427,-0.08587181855291127,-0.06958499287962913
1733752186864118800,2.401118896484375,-0.24324352369606494,0.00410129783898592,-0.1290931206420064
1733752186874093800,2.41109375,-0.2576315300107002,0.005752572177350521,-0.1834472266420722
1733752186884070000,2.42106982421875,-0.1507709917038679,0.04578647640198469,-0.23441811994463205
1733752186894046000,2.4310458984375,-0.048832127708196636,-0.006099047527462244,-0.29402678547203537
1733752186904021800,2.441021728515625,0.09361351872086525,-0.013632219511270522,-0.23687340414226055
1733752186913996800,2.450996826171875,0.19780396103560924,-0.010534107365459204,-0.17783114032596348
1733752186923972900,2.460972900390625,0.18714111272394657,-0.08963555500060319,-0.16566460945308206
1733752186933948700,2.47094873046875,0.16697686109542845,-0.1495833893544972,-0.0967287281319499
1733752186943923700,2.480923828125,0.14370646014511584,-0.11363090922459959,-0.03672404902428388
1733752186953899800,2.490899658203125,0.031126375147700308,-0.04259849401563406,-0.008301672138273715
1733752186963875800,2.500875732421875,-0.10537293009757995,0.08889744998440145,-0.008339666061103344
1733752186973852000,2.510851806640625,-0.19854513479173183,0.2339541556946933,0.0568310175076127
1733752186983827000,2.520826904296875,-0.23121464772820471,0.2920115001268685,0.01577770710736513
1733752186993802800,2.530802734375,-0.1011228714376688,0.2948600214257836,0.00043254619836807247
1733752187003778800,2.54077880859375,0.06072305651009082,0.3033965252332389,0.04193564619272947
1733752187013753900,2.55075390625,0.2175683996915817,0.19615195604488253,0.04789192424863577
1733752187023730000,2.56072998046875,0.3062877166301012,0.07053498708084226,-0.06232113935649394
1733752187033705700,2.570705810546875,0.23344927491247652,0.033404695343226196,-0.11615589765757321
1733752187043681800,2.580681884765625,0.061791562524437904,-0.013854483959823846,-0.18665362146794795
1733752187053656800,2.59065673828125,-0.0836333919763565,-0.08895955543518066,-0.2535664725288749
1733752187063632600,2.600632568359375,-0.15083002841472626,-0.13157310088947416,-0.22639935640096664
1733752187073609000,2.61060888671875,-0.17638415638804433,-0.09256737066879868,-0.1917941992267966
1733752187083583700,2.620583740234375,-0.13862988753318786,-0.034601942303776737,-0.053688627828657624
1733752187093559800,2.630559814453125,-0.04711304883062839,0.06013868075087666,0.09772972186803817
1733752187103535900,2.640535888671875,0.0698217242449522,0.21099998108670115,0.16764438509345053
1733752187113511000,2.650510986328125,0.12625322104096412,0.23171295263916253,0.17344547258764503
1733752187123486700,2.66048681640625,0.07217793198227881,0.20460911100581286,0.1280555942878127
1733752187133462800,2.670462890625,-0.013440496331453323,0.12230725989416241,-0.06689268505573272
1733752187143438800,2.68043896484375,-0.11330547666251659,0.05653758751899004,-0.3116413526177406
1733752187153414000,2.690413818359375,-0.21224691240787505,-0.02652531109303236,-0.47022067998498673
1733752187163390000,2.700389892578125,-0.2767044792711735,-0.08611454126760364,-0.5452317895665765
1733752187173365800,2.71036572265625,-0.2597720491707325,-0.13638736930340528,-0.5028907774433493
1733752187183340800,2.7203408203125,-0.1506833134204149,-0.20772914272248744,-0.4139806141078472
1733752187193316600,2.730316650390625,0.004349427381157875,-0.25836583563461896,-0.28321839120984077
1733752187203293000,2.74029296875,0.2113034940779209,-0.19801409665495157,-0.09042524407356976
1733752187213267700,2.750267822265625,0.33767712662816046,-0.20688962315842507,0.10040332499146461
1733752187223243800,2.760243896484375,0.4440349761098623,-0.008284136481583118,0.2855395276337862
1733752187233219800,2.7702197265625,0.4055208287984133,0.40397126126885413,0.4107616520613432
1733752187243195600,2.780195556640625,0.12178104406297206,0.2624003518477082,0.27579817808121443
1733752187253170700,2.790170654296875,-0.22871289404034614,0.1896675624616444,0.0012967618122696875
1733752187263146800,2.800146728515625,-0.5080003755420446,0.26452231243774293,-0.0631295331299305
1733752187273122800,2.810122802734375,-0.5313181227654218,0.21470088143125174,-0.14554273566156625
1733752187283097900,2.820097900390625,-0.16938216867148875,0.11757234032675623,-0.12230711376368998
1733752187293074000,2.830073974609375,0.24737317084670066,0.054377340745180844,-0.09606324996054172
1733752187303049700,2.8400498046875,0.4513245485961437,0.03779664669185877,-0.07700374470353126
1733752187313025800,2.85002587890625,0.5261223076879978,0.006219312906265258,-0.10153174449950456
1733752187323000800,2.860000732421875,0.436463664072752,0.020675708281993863,-0.145388421882689
1733752187332977000,2.869976806640625,0.20863982782661913,0.11341755873486399,-0.11079729323387146
1733752187342952700,2.87995263671875,-0.18868775764405726,0.19267799632400273,-0.1393666773751378
1733752187352928000,2.889927978515625,-0.4994125799387693,0.2833648139432072,-0.1834472266420722
1733752187362903800,2.89990380859375,-0.6294611016094684,0.26822394343465567,-0.11848404834419488
1733752187372879600,2.909879638671875,-0.538768438771367,0.19763678777515886,0.06970774247646332
1733752187382856000,2.91985595703125,-0.1677455073803663,0.12298603593856096,0.26089579250365497
1733752187392831000,2.9298310546875,0.2415244448184967,0.07031418393701315,0.39765784033834933
1733752187402806800,2.939806884765625,0.4493465265214443,0.05829553710222244,0.5013759889662266
1733752187412782800,2.949782958984375,0.39170740750133987,0.06730681881457566,0.48975452475547787
1733752187422758000,2.9597578125,0.14186287810504436,0.020307459491491316,0.38697891767472026
1733752187432733700,2.969733642578125,-0.07165946106612682,-0.03208718300387263,0.30872137351781126
1733752187442710000,2.9797099609375,-0.2107330007135868,-0.05371215483471751,0.1508358736336231
1733752187452685800,2.989685791015625,-0.25624972026348114,-0.062369216281920666,-0.026506898653507232
1733752187462660900,2.999660888671875,-0.14080430896282195,-0.05064326878339052,-0.15755933666974306
1733752187472636700,3.00963671875,0.05550970577597618,0.0019590251132845875,-0.1670303448483348
1733752187482612700,3.01961279296875,0.08942249677181244,0.08838628559187055,-0.06517360617816448
1733752187492587800,3.029587890625,-0.09511807806491851,0.09390008057728409,0.1016933648020029
1733752187502563800,3.039563720703125,-0.23424890085756778,0.08745390011258423,0.10293635060042142
1733752187512539400,3.049539306640625,0.02461421677470207,0.05958944937027991,0.02196077965646982
1733752187522514400,3.059514404296875,0.35239655685424803,0.06509849511533976,-0.13194237259328365
1733752187532490500,3.069490478515625,0.25352351016998287,0.1386748226534575,-0.38057021967619653
1733752187542466300,3.07946630859375,-0.1959831753492355,0.20400698039419948,-0.43907998405098914
1733752187552442600,3.089442626953125,-0.5527215608000755,0.23031046543009578,-0.47142859447002405
1733752187562417400,3.09941748046875,-0.5617857417434453,0.23663038916662335,-0.6008364801496267
1733752187572393500,3.1093935546875,-0.33621815999150273,0.25917525232136246,-0.4617161787509918
1733752187582369300,3.119369384765625,-0.0763484956651926,0.32390381814576685,-0.4699751807913184
1733752187592344600,3.129344482421875,0.14784078347086907,0.39130335674509403,-0.7693053333684802
1733752187602320400,3.1393203125,0.2789338457584381,0.325401070966199,-0.6395432274237275
1733752187612296400,3.14929638671875,0.4464063814163208,0.24038930330872535,-0.37061551963388917
1733752187622271500,3.159271484375,1.0244973612725734,0.39340624730847773,-0.016486439898610115
1733752187632247600,3.16924755859375,0.8038222277373075,0.06338182739056647,0.6884490048900246
1733752187642223400,3.179223388671875,0.19179624505341053,-0.019712197012081743,0.6413742422431707
1733752187652199400,3.189199462890625,-0.5779337434679269,-0.30077940153740346,0.6263365398481487
1733752187662174500,3.199174560546875,-1.130550090327859,0.1100529776725918,0.20637568228691816
1733752187672150300,3.209150390625,-1.3908435330241917,0.2509169078681618,0.14960750088244676
1733752187682126600,3.219126708984375,-0.9128858290463685,-0.011748743852227926,0.23674831645786762
1733752187692101400,3.229101318359375,0.276701556661725,-0.08832666435912251,0.4768976735308766
1733752187702077400,3.239077392578125,0.9577660042583942,-0.061596478343755,0.39610885733067985
1733752187712053500,3.249053466796875,1.106181372746825,-0.03680332480557263,0.26719050873368977
1733752187722029600,3.259029541015625,0.9040285688519477,-0.048138373290374875,-0.05029752408564091
1733752187732004400,3.26900439453125,0.42317572795450686,-0.14099120983704924,-0.48801907926499843
1733752187741980700,3.278980712890625,0.00709025052189827,-0.20711166841126977,-0.8419117198958992
1733752187751956500,3.28895654296875,-0.31744273237287995,-0.06846658330895006,-0.9218345669165253
1733752187761931500,3.298931640625,-0.5734738414496183,0.02098338599167764,-0.6392918830111622
1733752187771907300,3.3089072265625,-0.6396604240626096,-0.13541370196565986,-0.6317597339406609
1733752187781883400,3.31888330078125,-0.39291210711598396,-0.4901656628396362,-0.7047381686508655
1733752187791858400,3.3288583984375,0.06668634882867336,-0.6004071488216519,-0.5131719329610467
1733752187801834200,3.338834228515625,0.5311147091478109,-0.46178347183354196,0.10999386789649725
1733752187811810600,3.348810546875,0.7918646634399891,-0.35754268757104873,0.39457098023891446
1733752187821786400,3.358786376953125,0.583873654910922,-0.44243806230723853,0.5474605715319514
1733752187831761400,3.368761474609375,0.16961831551492212,-0.5334979510225355,0.5823860467016697
1733752187841737500,3.378737548828125,-0.09311024537384509,-0.536195154217258,0.5436088645398617
1733752187851713500,3.388713623046875,-0.23304712385237217,-0.24330628673397003,0.9932371306121349
1733752187861688300,3.398688232421875,-0.09865034384429454,1.2109296681400388,0.11264584371000527
1733752187871664600,3.40866455078125,0.35574119110703467,1.3800146804958582,-0.5792258291050791
1733752187881640400,3.418640380859375,0.4190215308845043,0.7114229071117937,-0.8652633693888783
1733752187891616300,3.4286162109375,0.16144026975631712,0.5655972628556192,-1.1472571872398256
1733752187901591600,3.438591552734375,-0.27116321175694463,1.2847025411635637,-1.0114493713900445
1733752187911567400,3.4485673828125,-0.7895920423328876,1.788211304374784,-1.0281412707328796
1733752187921543400,3.45854345703125,-0.8442986150324344,1.341662738008797,-1.6900784085333347
1733752187931518500,3.4685185546875,-0.369191039788723,0.5169241251014173,-1.063206154373288
1733752187941494500,3.47849462890625,0.19437457110881803,0.1685190490361303,-0.3259717835262418
1733752187951470300,3.48847021484375,0.4808218612372875,0.1079459954559803,-0.20976620150804517
1733752187961445400,3.4984453125,0.4052472725540399,0.1366279000610113,-0.01804945143163204
1733752187971421400,3.50842138671875,0.22550445338785646,0.06973689550571144,0.052288113380968566
1733752187981397500,3.5183974609375,0.01905950525701046,-0.04862564535066485,-0.06344166781902313
1733752187991373600,3.52837353515625,-0.20665537601113318,-0.38280316636003553,-0.1578027900367975
1733752188001348600,3.5383486328125,-0.22453297800719738,-0.48434879325442015,-0.5248077179580927
1733752188011324400,3.548324462890625,0.021963994526863095,-0.1375930918313563,-0.6531088114395738
1733752188021300500,3.558300537109375,0.4226023119807243,0.02860810871645808,-0.13352467334866522
1733752188031275500,3.568275634765625,1.0135983661174774,0.3885919788945466,0.27770255039781333
1733752188041251300,3.578251220703125,1.3108107958883046,0.5760489526346325,0.27196254544109105
1733752188051227400,3.588227294921875,1.053838606569171,0.21762279675994067,0.5070318227708339
1733752188061202400,3.598202392578125,0.44953883422315116,0.4636761537123471,0.24212153392881153
1733752188071178500,3.608178466796875,-0.36275954543650146,0.8572270701885223,-0.23843904602378604
1733752188081154300,3.618154296875,-1.11958153706789,0.6100631216457113,-0.47029009195938704
1733752188091130400,3.62813037109375,-1.2088847913742065,0.024616116470843552,-0.6173027540430426
1733752188101105400,3.63810546875,-0.7352490422487259,0.01777326483875513,-0.8621941910766064
1733752188111081500,3.64808154296875,-0.3058160074651241,0.0985920743184164,-1.0029014694057405
1733752188121057500,3.6580576171875,0.044831659895181654,0.04213887714724988,-0.9656937285177409
1733752188131032600,3.668032470703125,0.3771691790610552,0.015146752260066568,-0.6624350043199956
1733752188141008400,3.67800830078125,0.7730652704238891,0.05734528717268258,-0.3571742926500737
1733752188150984400,3.687984375,0.8718401174306869,-0.1593384386388585,0.08997048604339361
1733752188160960500,3.69796044921875,0.46563598254323,-0.21319084219448267,0.6874382204122841
1733752188170935300,3.707935302734375,-0.03657996437847614,0.06438607252966612,0.48315936427414413
1733752188180911600,3.71791162109375,-0.44222354277372355,0.325385471538268,0.01796148088723421
1733752188190887400,3.727887451171875,-0.5590542709529399,0.31299444772712887,-0.2769179758913815
1733752188200862500,3.737862548828125,-0.4096966531783342,0.18417006102390587,-0.41599955271482464
1733752188210838500,3.747838623046875,-0.0632470220297575,0.1286758816106245,-0.20622239142134785
1733752188220814600,3.757814697265625,0.30975802308917044,0.23220707456534728,0.15514051202498375
1733752188230789400,3.767789306640625,0.6065244626581668,0.2235560044675134,0.3223871299725026
1733752188240765400,3.777765380859375,0.8231067739218473,0.13191838892949745,0.29795608774498106
1733752188250741500,3.787741455078125,0.9603542671859264,0.19061384860211983,0.25033676989264786
1733752188260717300,3.79771728515625,0.6696177554309368,0.2078199628110975,0.7812685236889868
1733752188270692400,3.8076923828125,-0.049099254211783405,0.1766669371184893,0.6072591336082667
1733752188280668400,3.81766845703125,-0.7907499801963567,0.1933382320647128,-0.17679091055803
1733752188290644500,3.82764453125,-1.2028215458124876,0.43338787335660306,-0.4886792967393994
1733752188300619300,3.837619384765625,-0.9483189614772796,0.5302359535519033,-0.611834332569316
1733752188310595600,3.847595703125,-0.4161374998807907,0.6667188191190362,-0.25939042944200336
1733752188320571400,3.8575712890625,0.07537994289398194,0.6518126341491938,0.1042627038333565
1733752188330547500,3.86754736328125,0.3589046235740185,0.5458996058255434,0.044161505548655985
1733752188340522500,3.8775224609375,0.3521107256501913,0.41662605058271435,-0.07704813183452934
1733752188350498600,3.88749853515625,0.18015198448896408,0.24954554644972085,-0.14286178948190062
1733752188360474400,3.897474365234375,0.22723522270321844,0.1217064079241827,-0.16914032273963092
1733752188370449700,3.90744970703125,0.43682606764435766,0.0406771522979252,0.40226485920976846
1733752188380425500,3.917425537109375,0.5769254432082176,-0.055811063342727715,0.9055836893394589
1733752188390401300,3.9274013671875,0.29747663366496563,-0.023007804491370916,1.6984879249602556
1733752188400376300,3.937376220703125,-0.08266133207380771,0.331820947945863,0.9267769917547702
1733752188410352400,3.947352294921875,-0.3165565971881151,0.40389651553221045,0.1026425552856177
1733752188420328400,3.957328369140625,-0.4193921177625656,0.45486452275794,0.19871530372686683
1733752188430304500,3.967304443359375,-0.2663017432004213,0.5929205924585461,0.40602907058149573
1733752188440279600,3.977279541015625,0.1008960769444704,0.49148375970087943,0.32946821080725636
1733752188450255400,3.98725537109375,0.1926297732681036,0.3578627863708883,0.06063092124722898
1733752188460231400,3.9972314453125,0.14172726902663707,0.3123099725943059,0.030695326786674557
1733752188470206500,4.00720654296875,0.23574761498272417,0.391910894184187,0.17173711603349073
1733752188480182500,4.0171826171875,0.3220107709407806,0.3940780456228182,0.19070852288193998
1733752188490158600,4.02715869140625,0.19009937800765037,0.2723536088516004,0.16119133649654685
1733752188500133600,4.037133544921875,-0.17383973260223864,0.3442844890039414,0.34999088395200667
1733752188510109400,4.047109375,-0.6145540398567915,0.49544466268848625,0.8245688823636621
1733752188520086000,4.0570859375,-1.0301280606359242,0.38541952287089076,1.043606843151152
1733752188530062000,4.06706201171875,-1.1388614070773124,0.37317525058668105,1.019449357168004
1733752188540037000,4.077037109375,-0.9646598554253578,0.3320028073187917,0.660651335773617
1733752188550013200,4.08701318359375,-0.6142904204845429,0.3763742292910814,0.4889351346639916
1733752188559989000,4.096989013671875,-0.005675123026967048,0.3744528327744454,0.27994357079025356
1733752188569964300,4.10696435546875,0.5291483775109053,0.2547344203297049,-0.11252208946617319
1733752188579940000,4.116940185546875,0.8210217843413352,0.2582316878609359,-0.30209322408232836
1733752188589916000,4.126916015625,0.9446645306229591,0.2895796333374455,-0.2663712647726759
1733752188599892200,4.136892333984375,0.9241612562984227,0.2846295366493985,-0.3561511966800317
1733752188609867000,4.146866943359375,0.7901642892628907,0.21084815152585507,-0.5187275577941909
1733752188619843000,4.156843017578125,0.47849546411633487,0.1982371282884851,-0.6862881735943257
1733752188629819100,4.166819091796875,-0.2343698968887329,0.15236737578352913,-0.43671829642094667
1733752188639794200,4.176794189453125,-1.099204519471526,0.1483061085608322,0.3624490181826055
1733752188649770000,4.18677001953125,-1.6338567550957201,0.16481924467012285,0.6127507167618721
1733752188659746000,4.19674609375,-1.478132524898648,0.17627490559360012,0.5536750621326267
1733752188669721000,4.20672119140625,-0.7990981218248605,0.20820479741021988,0.636887306087464
1733752188679697200,4.216697265625,0.04679331535696983,0.28812344317976385,0.8437892772708088
1733752188689673000,4.2266728515625,0.624099866837263,0.3162154556002468,0.7257448624528944
1733752188699649000,4.23664892578125,0.8180576738387346,0.2911186977392994,0.1641747727541253
1733752188709624000,4.2466240234375,0.7329974639296531,0.3849716695055365,0.16256081648515536
1733752188719599900,4.256599853515625,0.4265203622072935,0.3795436896400526,-0.07478345657186582
1733752188729576200,4.266576171875,-0.08283435055315494,0.22638167461380362,-0.11272141143055632
1733752188739551000,4.276551025390625,-0.4883119247317314,0.20404513871381058,0.06511906297933309
1733752188749527000,4.286527099609375,-0.578923923549056,0.1725520674118772,0.1836494164169766
1733752188759503000,4.296503173828125,-0.48687984610199925,0.06226810769473668,0.23939274828573687
1733752188769478100,4.30647802734375,-0.28680969370007514,-0.014562737260456196,0.3567702418938279
1733752188779454000,4.316453857421875,-0.21678163322806357,-0.13949536352241412,0.4343777611767873
1733752188789430000,4.326429931640625,-0.27264906640052794,-0.17130962960273027,0.39528256257437167
1733752188799406000,4.336406005859375,-0.28334114080667494,-0.08914726002700626,0.3614339228559285
1733752188809381000,4.346381103515625,-0.08522972125709057,0.024288756813155486,0.268631629186403
1733752188819357200,4.356357177734375,0.26913375175595283,0.1734316632580012,-0.0037473881010897454
1733752188829333000,4.3663330078125,0.5736550432354212,0.1841997437761165,-0.0602540690251626
1733752188839308000,4.37630810546875,0.494511948415637,0.1379055005150847,0.19851684027900918
1733752188849284000,4.3862841796875,0.17121698288321494,0.11246175584737211,0.11530649602031334
1733752188859260200,4.39626025390625,-0.2683236044168472,0.051378798250015824,-0.2651997550415806
1733752188869236000,4.406236083984375,-0.5661994665324688,-0.01311049719210714,-0.4127655392296612
1733752188879211000,4.4162109375,-0.5091133052200079,-0.11604284747084602,-0.4069091413516551
1733752188889187000,4.42618701171875,-0.2406535072028637,-0.10337070516338571,-0.2731812187821604
1733752188899163000,4.436162841796875,0.11234452267587185,-0.08235791041413322,0.046046004121005533
1733752188909138000,4.446137939453125,0.3154530198603868,-0.09366448172312229,0.36285737978778776
1733752188919114200,4.4561142578125,0.2830833666533232,-0.06668125252844766,0.1832629195837304
1733752188929090000,4.466090087890625,0.05407236644923687,0.02008645541826263,-0.13549990067807957
1733752188939065000,4.476065185546875,-0.08599836754202843,0.034005930905696,-0.11835273184841498
1733752188949041200,4.486041259765625,-0.07166939793825149,0.0570780876038596,0.04206044161617756
1733752188959017000,4.496016845703125,-0.19057050265073774,0.10420215101884678,0.2321577007319778
1733752188968993000,4.505992919921875,-0.19342180042862891,0.043218160283938045,0.19805442866533993
1733752188978968000,4.515968017578125,-0.04030570690333843,-0.04732080982979387,0.042691359930858014
1733752188988944100,4.525944091796875,0.08710252939164638,-0.1051870156040415,-0.017089228097349404
1733752188998920000,4.535919921875,0.20043021788597107,-0.14103201677147298,0.02227631187904626
1733752189008895200,4.545895263671875,0.19889058722853659,-0.12477237136606126,0.23636015739049762
1733752189018871000,4.55587109375,0.24091245039999484,-0.1783583790704608,0.3986580303568393
1733752189028847000,4.56584716796875,0.24932138230502604,-0.25938692231066524,0.19399572785906494
1733752189038822100,4.575822265625,0.30262802507877345,-0.2515050464870408,-0.12835147196184843
1733752189048798200,4.585798095703125,0.4604617947757244,-0.134087421797961,-0.39990196600332856
1733752189058774000,4.59577392578125,0.5653086551725864,-0.1529278044115752,-0.423185482163541
1733752189068749000,4.6057490234375,0.4372685507148504,-0.0390964407114312,-0.18765823193322867
1733752189078725000,4.61572509765625,0.004295066845417022,0.04580591175481677,0.37696123539879917
1733752189088701000,4.625700927734375,-0.48007016608715053,0.04366184893082827,0.6087124742217361
1733752189098677200,4.63567724609375,-0.8336918808221817,0.09854949555201456,0.48237822383381423
1733752189108652000,4.645652099609375,-0.7943658326059579,0.1592027930278331,0.206537485252507
1733752189118628000,4.655628173828125,-0.47059915790855883,0.3144523549178615,0.06905435660164803
1733752189128604200,4.665604248046875,-0.01812660832107067,0.21028901980575174,-0.23242774984501302
1733752189138579200,4.6755791015625,0.34389877762198445,0.1897654698781669,-0.5178453315995634
1733752189148555000,4.685554931640625,0.573397853603959,0.19935279791280627,-0.5228518346499651
1733752189158531000,4.695531005859375,0.5184685780644417,0.06997143491394818,-0.23325700374338776
1733752189168507100,4.705507080078125,0.2441074470490217,-0.020508754217252134,-0.07931728234291076
1733752189178482200,4.715482177734375,0.004942717099189758,-0.06074232746614143,-0.03791651021186262
1733752189188458000,4.7254580078125,-0.15315993266701697,-0.06859844779400155,0.04381163266506046
1733752189198434000,4.73543408203125,-0.3907265797704458,-0.09852470817063003,0.3542698764454573
1733752189208409000,4.7454091796875,-0.5763555343657731,-0.08593414319939911,0.5530147715929895
1733752189218385000,4.755385009765625,-0.6221463946819306,0.0860684005709365,0.6360619611792266
1733752189228361200,4.765361328125,-0.5025824421465397,0.034262426417414095,0.7812358635284006
1733752189238336000,4.7753359375,-0.23068331733047961,-0.12211308902893214,0.8751345558661967
1733752189248312000,4.78531201171875,-0.06048398705720901,-0.20182265862505883,0.9881832812886685
1733752189258288000,4.7952880859375,0.08093991510868072,-0.2612600957714021,1.0081201539020985
1733752189268264000,4.805263916015625,0.36600247288048265,-0.26712277725972233,0.9015955695513636
1733752189278239000,4.815239013671875,0.6220739139676094,-0.33352453699335455,0.7938122173111886
1733752189288215000,4.825215087890625,0.6094213531434536,-0.4361662885613739,0.5561157332830131
1733752189298191000,4.835191162109375,0.4087169944912195,-0.3480632038250565,0.21770046510603278
1733752189308166100,4.845166259765625,0.27197745074927804,-0.23132216322328894,-0.02725070275813341
1733752189318142200,4.85514208984375,0.26898411415219303,-0.19432930719498545,-0.1841789749827236
1733752189328118000,4.865117919921875,0.11930734742581843,-0.12272396920258179,-0.23489362850189208
1733752189338093000,4.875093017578125,-0.2103109759092331,0.01316166112376377,-0.2495539489518851
1733752189348068900,4.88506884765625,-0.4840022448390722,0.12727779658203944,-0.3655103054493665
1733752189358045200,4.895045166015625,-0.3846358616799116,0.19670695957913995,-0.4117589194703847
1733752189368021000,4.90502099609375,-0.1553933908075094,0.20711482848273588,-0.360041555182077
1733752189377996000,4.91499609375,-0.041537294524908064,0.19851587216462938,0.11694682883955537
1733752189387972000,4.92497216796875,0.026059154886007307,0.17395771469241006,0.2429915582289919
1733752189397948000,4.934947998046875,0.031253800919651985,0.13747019610404967,0.2075385155212134
1733752189407923000,4.9449228515625,-0.023124270477890965,0.0982358995581977,0.2249300875660032
1733752189417899000,4.95489892578125,-0.03865618613064289,0.031945491244550796,0.2730834026971832
1733752189427875000,4.964875,-0.13861235187649726,0.008443583093304187,0.3291154153142124
1733752189437850000,4.97485009765625,-0.1570019950479269,-0.09241387887382879,0.2890338360229507
1733752189447826200,4.984826171875,-0.05763794997632503,-0.1434357351786457,0.13839501933138817
1733752189457802000,4.994802001953125,0.06954582991302014,-0.19471078079324214,-0.14996340164802968
1733752189467778000,5.004778076171875,0.08945113834440707,-0.14373848098488523,0.021796821266412733
1733752189477753000,5.014753173828125,-0.057821489849686616,-0.15097122698370366,0.31732765462584794
1733752189487729200,5.024729248046875,-0.2144499754101038,-0.1506957527768798,0.12055709175858646
1733752189497705000,5.034705078125,-0.19227672204673288,-0.05539300232743844,-0.05058196705020964
1733752189507680300,5.04468017578125,-0.03139291712939739,0.015971823173668236,0.05225169036071747
1733752189517656000,5.054656005859375,0.040075405278801914,0.0056501712488010525,0.007791786387376487
1733752189527632000,5.0646318359375,-0.1187508825868368,0.020729374697990716,-0.07418645879309624
1733752189537608200,5.074608154296875,-0.30689678843915463,-0.019896796331368385,-0.11050612826757132
1733752189547583000,5.0845830078125,-0.4139087179154157,-0.034567674707993865,0.02097582373972982
1733752189557559000,5.09455908203125,-0.36107086169719693,-0.0704749091903679,0.24079101597741245
1733752189567535000,5.10453515625,-0.16518763959109783,-0.1082694552566856,0.34822672382369635
1733752189577510100,5.11451025390625,0.12838088071942327,-0.18078662913069127,0.36143414205163715
1733752189587486000,5.12448583984375,0.43028643674254413,-0.2682984517092816,0.30242863004915416
1733752189597462300,5.134462158203125,0.4529892669379711,-0.3140278824280947,0.22940927880667147
1733752189607437000,5.14443701171875,0.06292378142476081,-0.3417984808744862,0.32139592697806657
1733752189617413000,5.1544130859375,-0.5838339074224234,-0.29817287230081857,0.5437170010894536
1733752189627389000,5.164388916015625,-0.8562287068009377,-0.24137208553468806,0.581413694538176
1733752189637365000,5.174364990234375,-0.8100625834316014,-0.16072887008395045,0.3802991476498544
1733752189647340000,5.184340087890625,-0.6588415098726749,-0.15716116766501217,0.17849742221496998
1733752189657316000,5.194316162109375,-0.25186346800327297,-0.14634331145472823,0.10765724164247512
1733752189667292200,5.204292236328125,0.41885260405838487,-0.1971096586285159,0.15682488491535185
1733752189677267200,5.21426708984375,0.9888380188703536,-0.31540212992336597,0.15793781459331513
1733752189687243000,5.224242919921875,1.0601052657485008,-0.3541535931220278,0.0874098417751491
1733752189697219000,5.234218994140625,0.7503034035176038,-0.3557878432603553,0.051360038750618696
1733752189707194000,5.244194091796875,0.2254249584108591,-0.31009036031607534,0.17728059377111494
1733752189717170000,5.254169921875,-0.3237339414715767,-0.14186631217114626,0.5105839622944593
1733752189727146200,5.264146240234375,-0.6548293516218662,0.005795023079589009,0.7310286480747162
1733752189737122000,5.2741220703125,-0.8549754918694495,0.09287366013899445,0.7699887855879962
1733752189747097000,5.28409716796875,-0.7968108876705169,0.1961504582075402,0.5879577824193984
1733752189757073200,5.2940732421875,-0.2867886509120464,0.1873925667343661,0.35512189016491175
1733752189767049000,5.304049072265625,0.4236918607831001,0.14205310344751923,0.17317352377846837
1733752189777024000,5.31402392578125,0.9322095381975174,0.07673490116689353,-0.14074154592491686
1733752189787000000,5.324,0.9588684125423431,0.005923033373430371,-0.39638073307462035
1733752189796976000,5.33397607421875,0.7006704808205366,-0.041066827468946576,-0.47123687129020686
1733752189806951200,5.343951171875,0.1772007334679365,-0.008016315858252345,-0.6146868724562228
1733752189816927000,5.353927001953125,-0.3789718445688486,0.06852054198589176,-0.40097624417133626
1733752189826903000,5.363903076171875,-0.7021680259019136,0.14899441048540174,-0.04685834341719746
1733752189836879000,5.373879150390625,-0.7644330511569977,0.1457376006465405,0.053044192445278165
1733752189846854000,5.38385400390625,-0.5367109217196703,0.13894713678881526,-0.06147445939928293
1733752189856830200,5.393830322265625,-0.13198445816934107,0.0525549841562286,-0.23981997898817062
1733752189866806000,5.403805908203125,0.28712241291105745,-0.08490633452162145,-0.2954837793473154
1733752189876781000,5.413781005859375,0.6440665500670671,-0.1785576645022258,-0.10477635244391859
1733752189886757000,5.423757080078125,0.6911053646177053,-0.2014951802363619,0.1056007475040853
1733752189896733000,5.43373291015625,0.48136780468225476,-0.19650533605981618,0.1946368753068149
1733752189906709000,5.443708984375,0.2665694542258978,-0.1586864044709131,0.09792553670108317
1733752189916684000,5.45368408203125,0.1004424879580736,-0.10123785785315557,-0.12229418121688067
1733752189926660000,5.46366015625,-0.1033142440021038,-0.046230347711965436,-0.17155651703588665
1733752189936636000,5.473635986328125,-0.32603461962938307,-0.051785205360129476,-0.05777282840237021
1733752189946611200,5.483611083984375,-0.512462615647912,0.009543835952784865,0.055741176444292065
1733752189956587000,5.4935869140625,-0.5368108749628067,0.04333806033656001,0.03251198428720235
1733752189966563000,5.50356298828125,-0.43897827724218363,-0.00862703163512051,0.10588066042400895
1733752189976538000,5.5135380859375,-0.38662148253917694,-0.07878713925527409,0.26311485679261387
1733752189986514200,5.52351416015625,-0.3340326326459646,-0.11675779080716893,0.4217139848388731
1733752189996490000,5.533489990234375,-0.22079145339131354,-0.21303548723598942,0.4855777505274862
1733752190006466000,5.543466064453125,-0.15077800596654414,-0.22336037229755892,0.4487806362669915
1733752190016441000,5.553441162109375,-0.06922901904881,-0.21297559200860558,0.350900034686178
1733752190026417000,5.5634169921875,-0.013369184660911559,-0.20839441996449604,0.0932169206187129
1733752190036393200,5.573393310546875,-0.06599310586750506,-0.16034984417110681,-0.13570355175770818
1733752190046368000,5.583367919921875,-0.08893032934069633,-0.11291567362733185,-0.2429226942438632
1733752190056344000,5.593343994140625,-0.04293780897259712,-0.04288516546990722,-0.23179405505135653
1733752190066320100,5.603320068359375,0.00410042105615139,-0.0037376886909827587,-0.17088212490566074
1733752190076296200,5.613296142578125,0.08881693209409713,-0.0010474266937002539,-0.04034881539270282
1733752190086271000,5.62327099609375,0.12385901938080787,0.02179199896082282,0.30571766165718434
1733752190096247000,5.6332470703125,-0.016101824495196343,0.023247860324941576,0.5960087677322328
1733752190106223000,5.64322314453125,-0.2784545378088951,0.014737404274195431,0.5658998990640044
1733752190116198100,5.6531982421875,-0.529221442747116,0.03321056101061404,0.411477252984792
1733752190126174000,5.663174072265625,-0.5836421842426062,0.0370096975652501,0.24460377919860182
1733752190136150000,5.67314990234375,-0.35259061812162396,0.039283231987804174,0.04141512944996357
1733752190146125000,5.683125,-0.008445172262191773,0.05834017996154725,-0.07507701442465185
1733752190156100900,5.693100830078125,0.18763269563317297,0.04299651688989252,-0.05659611277319491
1733752190166077200,5.7030771484375,0.16013503237664697,0.033279169267415996,0.15448497072570025
1733752190176053000,5.713052978515625,0.07540858446657657,-0.030424802749603984,0.31923838361799717
1733752190186028000,5.723028076171875,-0.041778117543458934,-0.0688819957094267,0.22267960522547364
1733752190196004000,5.733004150390625,-0.0590466477304697,-0.03186579533815384,0.059881710315123196
1733752190205980200,5.742980224609375,0.1274479837834835,-0.03562759555708617,0.03515848020799458
1733752190215955000,5.752954833984375,0.41164603368043895,-0.036839967021532354,0.1484074774429202
1733752190225931300,5.76293115234375,0.5207260016024112,-0.06737681531086563,0.23377404988743364
1733752190235907000,5.772906982421875,0.3687672614187002,-0.06864416836556046,0.15190350286513565
1733752190245883000,5.7828828125,0.12849135535657405,-0.0331441812435165,0.09023607817701995
1733752190255858000,5.79285791015625,0.0001613280415534973,0.000831190127134323,0.07356536775268614
1733752190265834000,5.802833984375,-0.08025427093207836,0.016434417450428007,0.03142974200844764
1733752190275810000,5.81281005859375,-0.15761223590075968,0.04204641309082508,-0.04931603876762092
1733752190285784800,5.822784912109375,-0.1660287665903568,-0.006808437905833124,-0.07933481799960136
1733752190295761200,5.83276123046875,-0.07853285396695137,-0.04886029435675591,-0.03823861830569804
1733752190305737000,5.842737060546875,0.06310556773245335,-0.07303937111720442,0.03473784364312887
1733752190315712000,5.8527119140625,0.2639706699043512,-0.13279263274706898,0.13019918218776583
1733752190325688000,5.86268798828125,0.4075146329641342,-0.20647444821996613,0.31080460953265426
1733752190335664000,5.8726640625,0.44509939047098157,-0.1955439619480632,0.4901105716515332
1733752190345640200,5.88264013671875,0.43879532189071174,-0.2036391699951142,0.6468504816971719
1733752190355615200,5.892615234375,0.38649931746423244,-0.1692048758758232,0.6734229198675602
1733752190365591000,5.902591064453125,0.29093992537260055,-0.1217249847604893,0.7207944735039025
1733752190375566800,5.91256689453125,0.25241291857957837,-0.07433408710286021,0.7665502625066787
1733752190385542100,5.922542236328125,0.2425561259537935,-0.08661496507041155,0.7365344058841466
1733752190395518000,5.93251806640625,0.14102292014956475,-0.11578965816106647,0.48765696795433755
1733752190405494000,5.942493896484375,0.03856675428152084,-0.09531314397929236,0.10738397765904664
1733752190415470000,5.952469970703125,-0.07896890729665756,-0.16271818073764444,0.03446647935584187
1733752190425445000,5.962445068359375,-0.11809621807038784,-0.20954143457515165,-0.00785911600254476
1733752190435421000,5.9724208984375,-0.04667407289147377,-0.19567734253676608,-0.06386705362424254
1733752190445397200,5.982397216796875,0.053877720659971234,-0.2064156855037436,0.06668700641579926
1733752190455372000,5.9923720703125,0.13080489299595355,-0.29555629659425464,0.3817969849921763
1733752190465348000,6.00234814453125,0.0851502262800932,-0.30683574243430045,0.8060229526519775
1733752190475324200,6.01232421875,-0.012642039430141448,-0.3993850659897551,1.2318445189401506
1733752190485299200,6.02229931640625,-0.17699965793788433,-0.43378721140511334,1.5708632694356142
1733752190495275000,6.03227490234375,-0.3967828110694885,-0.3652250587671995,1.2930807856693862
1733752190505251000,6.0422509765625,-0.5546697722584009,-0.3643818859413266,0.7383756498366594
1733752190515227100,6.05222705078125,-0.6612783816307782,-0.36327220766637475,0.31412323256134983
1733752190525202200,6.0622021484375,-0.6137906542688608,-0.3516546524457633,0.12508775745816528
1733752190535178200,6.07217822265625,-0.331950565674901,-0.31408352160546926,0.014636647313460706
1733752190545154000,6.082154052734375,0.007401216167211532,-0.248522523544915,-0.07860014704950154
1733752190555129300,6.09212939453125,0.19036767355501652,-0.1399809002833441,0.043288741302117704
1733752190565105200,6.102105224609375,0.1791448532730341,-0.0666660549593158,0.15178404120393096
1733752190575081200,6.112081298828125,0.05789455508589744,-0.14063494374528526,0.33744631354697047
1733752190585057300,6.122057373046875,-0.1187865384221077,-0.14324260549303144,0.6016673780158162
1733752190595032300,6.1320322265625,-0.26843115644454957,-0.10406318093957379,0.65591546635814
1733752190605008100,6.142008056640625,-0.3302279796659946,0.0017209420410916208,0.5180619334923103
1733752190614984200,6.151984130859375,-0.35537177327275277,0.10905936352536082,0.33313396677318957
1733752190624959200,6.161959228515625,-0.4230769437551498,0.2699696911234408,0.18995744878631085
1733752190634935000,6.17193505859375,-0.4748562308311462,0.38017552127018567,-0.0033170521261170504
1733752190644911400,6.181911376953125,-0.3510252685010433,0.4533182796966284,-0.07322323978412897
1733752190654886100,6.19188623046875,-0.2308797166854143,0.451113938052766,0.020862755286693572
1733752190664862200,6.2018623046875,-0.17426175740659236,0.385877422706224,0.04482665492650121
1733752190674838300,6.21183837890625,-0.15402034888863564,0.2789722415400669,0.018660313338972626
1733752190684814300,6.221814453125,-0.20206512561142442,0.26935535861738025,0.05908343607690185
1733752190694789000,6.2317890625,-0.28953999544680115,0.3569342733491212,0.08126929319351911
1733752190704765200,6.24176513671875,-0.3870762405693531,0.28011980413999404,0.3272169247491285
1733752190714741200,6.2517412109375,-0.425049705132842,0.1977173056654632,0.445827668212913
1733752190724716300,6.26171630859375,-0.30124037011265753,0.1351298435229808,0.41914702042769636
1733752190734692000,6.271692138671875,-0.11942366728186607,0.08211454837862402,0.42083373140562325
1733752190744668200,6.281668212890625,0.06921849765479564,0.03166903065703809,0.3373654303304851
1733752190754644200,6.291644287109375,0.1458598387867212,-0.04455620395466685,0.15123232560530303
1733752190764619000,6.301618896484375,0.2732908714354038,0.10913721453454345,0.20191322298534214
1733752190774595300,6.31159521484375,0.5056827462494373,0.03399977515954524,0.24512429594136773
1733752190784571100,6.321571044921875,0.6713584616184234,0.08315682397317141,0.301185077995155
1733752190794546200,6.331546142578125,0.6305839681595563,0.02943272297233343,0.12714905563583598
1733752190804522200,6.341522216796875,0.545068415698409,-0.036334136391244824,0.032127167954389
1733752190814498300,6.351498291015625,0.33502807342410085,0.15922390888109803,0.029807584166713058
1733752190824473000,6.36147314453125,-0.0023655600875616073,0.045653059280663724,-0.02103797485628165
1733752190834449400,6.371449462890625,-0.17399170829355715,0.18866897987835107,-0.11632769229421391
1733752190844425200,6.38142529296875,-0.06992752270698548,0.3108543669585138,-0.47395391169656065
1733752190854401000,6.391401123046875,0.022961773392558095,0.16463018837142734,-0.5804570879330858
1733752190864376300,6.401376220703125,0.018366846817731857,-0.08039495804440229,-0.5666655131416395
1733752190874352000,6.41135205078125,0.039971360382437704,0.05718242476116866,-0.2111644144007936
1733752190884328200,6.421328125,-0.031441432446241376,0.07252119246199727,0.12624164933417922
1733752190894303000,6.431302978515625,0.01756488278508186,0.07406703366450965,0.45722997324764725
1733752190904279300,6.441279296875,0.13456979848742484,-0.10803710780553519,0.8967353431038558
1733752190914255000,6.451255126953125,0.29003625453114507,-0.161991620028764,1.5630065645858644
1733752190924231200,6.461231201171875,0.3274930017441511,-0.13810790948569773,2.4150997790172695
1733752190934206200,6.471206298828125,0.3068751611292362,-0.1815516221538186,2.0558574479214844
1733752190944182300,6.481182373046875,0.2077221284598112,-0.04462641964666545,0.5967938171627
1733752190954158300,6.491158447265625,0.05565992790162563,0.002242079838365316,-0.020654939488600938
1733752190964133400,6.50113330078125,0.043002106380462646,0.05611556271463632,-0.19676581362690776
1733752190974109200,6.511109130859375,0.07466156549155711,0.1700743887193501,-0.6093892409721389
1733752190984085000,6.5210849609375,-0.14373334815204142,0.28504706794172524,-1.1780551341507584
1733752190994060300,6.531060302734375,-0.4386842627316713,0.030335224770009515,-1.2186701261989772
1733752191004036000,6.5410361328125,-0.5107610724270344,0.2463703504797071,-0.8913396946053952
1733752191014012200,6.55101220703125,-0.40552024427652356,0.29888299333155155,-0.5688173574132844
1733752191023988200,6.56098828125,-0.17791326565146445,0.14102657341137528,-0.15900931628234682
1733752191033963300,6.57096337890625,0.11488193219900131,0.10644742746129632,0.3962075684648007
1733752191043939000,6.58093896484375,0.3387847956091165,0.27895510774217547,0.8559450675539672
1733752191053915100,6.5909150390625,0.20578034674227236,0.41872970833107825,0.9391139107584953
1733752191063890200,6.60089013671875,-0.19505086293518542,0.31865035459697244,0.52371926513426
1733752191073866200,6.6108662109375,-0.47644729941487307,0.4041838811062276,0.17141681630425154
1733752191083842300,6.62084228515625,-0.5453507397711277,0.4212340193022042,0.33889676808360963
1733752191093817300,6.6308173828125,-0.4894201782345772,0.5390175181616097,0.07589300698265433
1733752191103793200,6.640793212890625,-0.3380471289843321,0.4992196877151727,-0.19043219015859067
1733752191113769200,6.650769287109375,-0.03890168532431126,0.3327716727994382,-0.11570775203127413
1733752191123745300,6.660745361328125,0.20199381394088267,0.19207922671325503,0.47032954718694087
1733752191133720000,6.670719970703125,0.11256254934072493,0.24216646904908118,1.5402484970718622
1733752191143696100,6.680696044921875,-0.061544894286990164,0.43193639590665694,1.3789140257775783
1733752191153672200,6.690672119140625,-0.12584405571818352,0.3784598033934831,0.900658946288377
1733752191163647200,6.700647216796875,-0.11970306874513625,0.5255915618121624,0.6467641916532069
1733752191173623000,6.710623046875,-0.08484569037556648,0.5264992512416095,0.24670140906497834
1733752191183599400,6.720599365234375,-0.07400339384377003,0.5814530036352574,-0.14731127970404923
1733752191193574100,6.73057421875,-0.13785714959502218,0.7444366303760558,-0.6939294090624898
1733752191203550200,6.74055029296875,-0.16742460486292837,0.9505873448006809,-1.480163738465309
1733752191213526300,6.7505263671875,-0.17553952225744723,0.8705367066819221,-1.601782869964838
1733752191223502000,6.760502197265625,-0.16270751321315766,0.7778265665415673,-0.7257887015946209
1733752191233477000,6.77047705078125,-0.17067220848202705,0.7833733870137483,-0.31037725096605717
1733752191243453200,6.780453125,-0.15977087523937225,0.6588098726253956,-0.13151150689534843
1733752191253429200,6.79042919921875,-0.13722352786660194,0.4199014555241912,0.24560974137075245
1733752191263404000,6.800404052734375,-0.02172200246453285,0.16896175130233168,0.7189698884252458
1733752191273380400,6.81038037109375,0.18964052832424638,0.4271927815761417,0.6774727797802538
1733752191283356200,6.820356201171875,0.23677228185534477,0.5360824145577847,0.11288958933800458
1733752191293331200,6.830331298828125,0.2843874349892139,0.8617430863082408,-0.6827450210947543
1733752191303307300,6.840307373046875,0.3370172014147043,1.213963263682276,-0.9537316341757773
1733752191313283300,6.850283447265625,0.19175182138979432,0.9416352459296583,-0.2572595548931509
1733752191323259100,6.860259033203125,0.14125439081788063,0.7033379464641213,0.5187396500907838
1733752191333234200,6.870234130859375,0.3383808909833431,0.99352588442564,0.730796008362621
1733752191343210200,6.880210205078125,0.4143383415043354,0.930424919803068,0.8088529884461313
1733752191353186000,6.89018603515625,0.14480477677583695,0.8180797395400703,0.5341336185775697
1733752191363161000,6.9001611328125,-0.24871406406164168,0.6722636668298393,0.22023528081327676
1733752191373137200,6.91013720703125,-0.1714367631137371,0.4431129658941179,0.12096636667922138
1733752191383113200,6.92011328125,0.054332478690147394,0.06148527305424213,0.13487974121943117
1733752191393088000,6.930087890625,0.36884617187380786,0.21841734467111526,0.19913418672606348
1733752191403064300,6.940064208984375,0.5089391176968813,0.5034107096642255,0.27331425231099127
1733752191413040000,6.9500400390625,0.14663783742189407,0.44472010882981117,0.23656945275962352
1733752191423016200,6.96001611328125,-0.4616366837739944,0.7051325747959315,-0.44411593239158387
1733752191432991200,6.9699912109375,-0.7827116351693868,0.5512944506064057,-0.7549788479827344
1733752191442967300,6.97996728515625,-0.5755974094748497,0.41921040452010927,-0.28490692881867286
1733752191452943000,6.989943115234375,-0.06525193211138249,0.530715480697155,0.029973259589821097
1733752191462918400,6.99991845703125,0.440230907651782,0.49883850637786087,0.265072347535938
1733752191472894200,7.009894287109375,0.5193745869934558,0.4223865503381937,0.40243148448094723
1733752191482870000,7.0198701171875,0.36510055560469623,0.3211116301439702,0.4614576739452779
1733752191492845300,7.02984521484375,0.0800303990483284,0.2209950862046331,0.49039764496460553
1733752191502821000,7.039821044921875,-0.24199673850536346,0.09636252516806125,0.575900776335597
1733752191512797200,7.049797119140625,-0.3919891470521688,0.03269238235540688,0.3448525712154805
1733752191522772700,7.059772705078125,-0.34913550923168657,0.021594284431636333,-0.149952076536417
1733752191532747800,7.069747802734375,-0.30703415108323096,0.015772738671302796,-0.55100204353109
1733752191542723600,7.0797236328125,-0.2843547017633915,-0.01702924153842032,-0.8418737259730696
1733752191552700000,7.089699951171875,-0.22699264611899853,-0.07451506969295442,-1.0502169089406728
1733752191562674700,7.0996748046875,-0.038591304200887674,-0.1494134396150708,-1.0480151611126958
1733752191572650800,7.109650634765625,0.32457039229571816,-0.06277765095233917,-0.8745492302589118
1733752191582626600,7.11962646484375,0.5921820490509271,-0.07194580372683704,-0.5938119883403181
1733752191592601900,7.129601806640625,0.8080605959594249,-0.1794352145217359,-0.2813406146392226
1733752191602577700,7.13957763671875,0.8275485557615756,-0.11390037381574511,-0.15133505532741545
1733752191612553500,7.149553466796875,0.4820072716295719,-0.13399945125356316,-0.18716785460039972
1733752191622529800,7.15952978515625,-0.04466097950339317,-0.0734314391747117,-0.36269656320288773
1733752191632504600,7.169504638671875,-0.3519850534439087,-0.1287975717615336,-0.5501679307945072
1733752191642480600,7.179480712890625,-0.3064648267626762,0.06774279907904565,-0.5282438298866152
1733752191652456700,7.189456787109375,-0.031821371674537656,0.10939188341535627,-0.25842355717122556
1733752191662431700,7.199431640625,0.3553706042289734,0.1430830675497651,-0.08207271853089332
1733752191672407600,7.209407470703125,0.5661421833872795,0.27176899563036855,0.08730813496634364
1733752191682384000,7.2193837890625,0.3993938703507185,0.3790188255157321,0.2634549754671752
1733752191692358700,7.229358642578125,0.14924363600611687,0.37513993825577197,0.2721424320526421
1733752191702334700,7.239334716796875,0.06358546020388603,0.31077633328624066,-0.05789616252109408
1733752191712310800,7.249310791015625,-0.21549393150508403,0.17318346065059304,-0.42374125288277864
1733752191722286600,7.25928662109375,-0.5750900444746017,0.05945347496569156,-0.5634687263943254
1733752191732261600,7.26926171875,-0.5662772079437971,0.008788140480965375,-0.6534924039296806
1733752191742237700,7.27923779296875,-0.33133272603750225,0.02941679475083947,-0.438663366074115
1733752191752213800,7.2892138671875,0.01258008010983467,0.10406374719515442,-0.07041063004881143
1733752191762188800,7.299188720703125,0.49490474712550636,0.1816037176672369,0.16938143801912664
1733752191772164600,7.30916455078125,0.6855430543154478,0.05221987045034766,0.480687567333132
1733752191782140700,7.319140625,0.2720230434566736,0.05328172752819955,0.8016193108655512
1733752191792115700,7.32911572265625,-0.3289116363704204,0.056362523213028905,0.5894485324338078
1733752191802091500,7.339091552734375,-0.31391981894373894,0.0631457536123693,0.06416705948412418
1733752191812067800,7.34906787109375,0.26474633045196533,0.04940824709571898,-0.19212518474683166
1733752191822043600,7.359043701171875,0.8349339898377657,-0.0468099742308259,-0.2798568058222532
1733752191832018700,7.369018798828125,0.8260065870165825,-0.2140394949130714,-0.06877250745296477
1733752191841994800,7.378994873046875,0.1937923873066902,-0.3004502426482737,0.063149114613235
1733752191851970600,7.388970458984375,-0.5164847107708453,-0.14882183039747177,-0.14341566050499677
1733752191861945600,7.398945556640625,-0.7816811230778694,-0.010244622899591922,-0.40925124749839303
1733752191871921700,7.408921630859375,-0.6742886698514222,-0.01433773743212223,-0.4700087907999754
1733752191881897700,7.418897705078125,-0.08866086474955082,0.029315380202978848,-0.4520332813873887
1733752191891872800,7.428872802734375,0.7040437566459179,0.0239899473965168,-0.5892866198703647
1733752191901848800,7.438848876953125,0.9407610934436321,-0.11573445737510919,-0.314949161991477
1733752191911824600,7.44882470703125,0.6198153213858604,-0.2287530799202621,-0.135802262891829
1733752191921800700,7.45880078125,-0.06342179407477379,-0.21940146033763885,-0.3719295248419046
1733752191931775500,7.468775390625,-0.8389023089468479,-0.15746347507983446,-0.5809861167758703
1733752191941751800,7.478751708984375,-0.9916431394189595,0.02068228415325284,-0.5935290797457099
1733752191951727600,7.4887275390625,-0.5339660069257021,0.17180428125187755,-0.43870501325875516
1733752191961702700,7.49870263671875,-0.1492290229588747,0.20183511624783276,-0.1492553264439106
1733752191971678700,7.5086787109375,0.05909282495975494,0.2225955802038312,-0.04635317037403583
1733752191981654500,7.518654541015625,0.4477694864630699,0.22039675498530267,-0.0027630349725484846
1733752191991629600,7.528629638671875,0.8866454723745584,0.20148454924449324,0.06083645375669002
1733752192001605600,7.538605712890625,0.7864303634315729,0.0844793412812054,0.03826601776927709
1733752192011581700,7.548581787109375,0.2473451137959957,-0.06894874080270529,-0.06147972009629011
1733752192021557500,7.5585576171875,-0.3711521107286215,-0.1433477098353207,-0.2239560549020767
1733752192031532800,7.56853271484375,-0.9430261157661676,-0.0604636749215424,-0.5208595648542046
1733752192041508600,7.578508544921875,-0.8918097232699393,0.14392127193957566,-0.5504334498628973
1733752192051484700,7.588484619140625,-0.10132920766472815,0.3029286154605448,-0.31325287946760655
1733752192061459700,7.598459716796875,0.6396446419715881,0.3189883543796837,0.04484335033297539
1733752192071435800,7.608435791015625,0.738626409727335,0.29915728022828697,0.279161517034471
1733752192081411600,7.61841162109375,0.38770518612265586,0.2997019084990024,0.26685908482223747
1733752192091387000,7.628386962890625,-0.10258534520566463,0.2631685597412288,0.15584668753296135
1733752192101362700,7.63836279296875,-0.3924970965743065,0.23533377348482606,0.0022498247534036633
1733752192111338500,7.64833837890625,-0.4126823909908533,0.1755630492635071,-0.12334405559599398
1733752192121314800,7.658314697265625,-0.3644768707484007,0.1757331451334059,-0.08591361186802386
1733752192131289600,7.66828955078125,-0.21569208442568777,0.1043012092128396,-0.09859218391627073
1733752192141265700,7.678265625,0.13819792585670948,0.03436053476333618,-0.145207512357831
1733752192151241700,7.68824169921875,0.48599604900479315,0.09721972651928662,-0.126406365776062
1733752192161216800,7.698216796875,0.6758709706068039,0.09099836778640746,-0.16885025375187396
1733752192171192600,7.708192626953125,0.5735048211097717,0.0336572087995708,-0.23866525599509475
1733752192181169000,7.7181689453125,0.17887538868188857,-0.001994388687610626,-0.30759178496599193
1733752192191143700,7.728143798828125,-0.20032968012094496,-0.006595306611806154,-0.4707347669869661
1733752192201119700,7.73811962890625,-0.3549129235893488,0.02522138888761401,-0.5746054758280515
1733752192211095600,7.748095458984375,-0.44843233428597445,0.060435471740365024,-0.4196399550437927
1733752192221071600,7.758071533203125,-0.34809564478993416,0.09825856804773211,-0.23903350478559732
1733752192231046700,7.768046630859375,0.04749006544947624,0.07262494509741664,-0.1718134874716401
1733752192241022500,7.7780224609375,0.4139975652426481,0.03243292770162225,0.0785419140562415
1733752192250998800,7.787998779296875,0.4975736740738153,-0.045789545141905544,0.42428076658695935
1733752192260973600,7.7979736328125,0.45041210992634295,-0.06295432269349693,0.26307868950068947
1733752192270949600,7.80794970703125,0.23715748178064822,-0.08934270953387022,-0.06960632792860269
1733752192280925700,7.81792578125,-0.07318564772009849,-0.19428806186914443,-0.37075697393119333
1733752192290900700,7.827900634765625,-0.40621699436902997,-0.2771713661305606,-0.708939127472043
1733752192300876500,7.83787646484375,-0.47524259980022904,-0.2566328743621707,-0.8410627018511295
1733752192310852900,7.847852783203125,0.004461655583977699,-0.003271715147048235,-0.6595642711892724
1733752192320828700,7.85782861328125,0.5116781872719526,0.11103840851336717,-0.2436240474462509
1733752192330803700,7.8678037109375,0.65899991530478,0.17460750210434198,0.004269932404160499
1733752192340779800,7.87777978515625,0.36993338258862496,0.19919030082747338,0.11010726514309645
1733752192350755600,7.887755615234375,-0.13814765697419643,0.2534936995536089,0.11027619196921587
1733752192360730600,7.897730712890625,-0.5782821185141801,0.2210720238983631,0.08538198920935391
1733752192370706700,7.907706787109375,-0.662571344050765,0.13449293385893105,0.14063538213670254
1733752192380682800,7.917682861328125,-0.2310059734135866,0.11112170288264751,0.1494815364152193
1733752192390657500,7.927657470703125,0.39198856253027914,-0.00031900282129645346,0.09169687144458294
1733752192400633600,7.937633544921875,0.7052385193884372,-0.2809484004512429,-0.089057755112648
1733752192410609700,7.947609619140625,0.5171534038126469,-0.607859510654211,-0.2595803259909153
1733752192420585700,7.957585693359375,0.26523674431741234,-0.49328518309965724,-0.24342297191619872
1733752192430560500,7.967560546875,0.15442249994874,0.06408171928822994,-0.2680973944455385
1733752192440536800,7.977536865234375,-0.1396434484899044,0.3264567905642092,-0.26158640511631964
1733752192450512600,7.9875126953125,-0.4662409626990556,0.4415636175602674,-0.21736966224908827
1733752192460487700,7.99748779296875,-0.6299257965117693,0.2622403389804065,0.12594985418021679
1733752192470463700,8.007463623046876,-0.5147855056375265,0.2025495481275022,0.03932137204110622
1733752192480439600,8.017439453125,-0.3506903374582529,0.46291211053729053,0.6336553384289145
1733752192490414600,8.02741455078125,-0.15537877776026726,0.4215368747062981,0.3458621866494417
1733752192500390700,8.037390625,0.04012918129265308,-0.047034869027882814,0.2527984107658267
1733752192510366700,8.04736669921875,0.19410686008334158,-0.247178525057435,0.18946487949639557
1733752192520342800,8.0573427734375,0.4004501014053821,-0.35259339460059996,0.07850888856947422
1733752192530318000,8.067318115234375,0.5637555805116892,-0.33293475440666076,-0.055282034499943254
1733752192540294000,8.0772939453125,0.4494949950814247,-0.1257232058174908,-0.03669686875641346
1733752192550270000,8.08727001953125,0.2014005242228508,-0.07898600456193089,-0.11434300301671027
1733752192560245000,8.097244873046876,-0.06340542746186256,0.01685980325564742,-0.02900134581774473
1733752192570221000,8.107220947265626,-0.535918894559145,-0.007790507745742798,-0.0007405892342329024
1733752192580196900,8.11719677734375,-0.9286153130978345,-0.015525047520548105,0.09284165756553411
1733752192590172200,8.127172119140624,-0.7906032652020454,0.34054493714943523,0.05208031584918499
1733752192600148000,8.13714794921875,-0.3611860125094652,0.5365339577175676,0.17140461440980434
1733752192610123800,8.147123779296875,0.07629998034834862,0.7712118976421654,0.40837300335913895
1733752192620100000,8.15710009765625,0.40757366967499253,0.7058060901433229,0.4976368024379015
1733752192630075000,8.167074951171875,0.5805588312745094,0.14370850597172974,0.2588391522347927
1733752192640051000,8.177051025390625,0.5474117639541626,-0.11055763925909995,-0.10147650718092918
1733752192650027000,8.187027099609375,0.36128771931827064,-0.15233984845578669,-0.1474076527506113
1733752192660002000,8.197001953125,0.13900807319581507,-0.12868044818788765,-0.09228694629222155
1733752192669977900,8.206977783203126,-0.10355798963010311,-0.004316986416280269,-0.08387363047301769
1733752192679954200,8.2169541015625,-0.26040917803049085,0.04750833175852894,-0.049155660574138164
1733752192689929000,8.226928955078124,-0.36147535084486004,0.0964371978394687,-0.1408659760221839
1733752192699905000,8.236905029296874,-0.31994740867018695,0.17973434359878301,-0.16964461899995803
1733752192709880800,8.246880859375,-0.11270867981314658,0.21883315893039107,0.27710867615789175
1733752192719857000,8.25685693359375,0.1119493858784437,-0.006214928992092609,0.43218028766512867
1733752192729832000,8.26683203125,0.21153321118056773,0.08747896148860454,0.14694149654358624
1733752192739807700,8.276807861328125,0.22378245190083978,0.11084244754984975,-0.048075756382942196
1733752192749784000,8.2867841796875,0.2099918269574642,-0.03309109934940934,-0.10704057104885578
1733752192759758800,8.2967587890625,0.18755963039696216,-0.04550488298162818,-0.1114335453107953
1733752192769735000,8.30673486328125,0.08284253385961056,0.03478022148013115,-0.07898761199712753
1733752192779711000,8.3167109375,0.10849953768551349,-0.10611600354984402,-0.03967120839208364
1733752192789686000,8.32668603515625,0.1061509287327528,-0.06515723956525325,0.04735094923973083
1733752192799661800,8.336661865234374,-0.06014847149252891,-0.028026947827637195,-0.08100713512599468
1733752192809638100,8.34663818359375,-0.32157179500162597,-0.012598638679832219,-0.054074704536795616
1733752192819614000,8.356614013671875,-0.5027227274000644,-0.026512305480986834,-0.06777122145593166
1733752192829589000,8.366589111328125,-0.3654448389977217,-0.08408931905031204,-0.18657061935961244
1733752192839565000,8.37656494140625,-0.06436521240472794,-0.11049158828556536,-0.18668547791093587
1733752192849540900,8.386540771484375,0.1817752017766237,-0.07627016973197459,-0.14363690204024315
1733752192859516000,8.396515869140625,0.2937438768774271,-0.012403554499149321,-0.21460984214693307
1733752192869492000,8.406491943359375,0.2713613646775484,0.07069792255759239,-0.21147534351348876
1733752192879468000,8.416468017578126,0.234558112937212,0.13423355227038264,-0.1793339461043477
1733752192889442800,8.42644287109375,0.2286538573294878,0.1512234116464853,-0.07437164263427257
1733752192899419000,8.4364189453125,0.14495207629203796,0.18877265944853425,-0.021706512634456155
1733752192909395000,8.44639501953125,-0.10176116934120655,0.27546836160495874,-0.11677344503402709
1733752192919371000,8.45637109375,-0.14428396777212618,0.24405586299225687,0.09064034812897444
1733752192929345800,8.466345703125,-0.02316460248827934,0.20858093724623322,0.42608343209475275
1733752192939322000,8.476322021484375,0.01359656367599964,0.2583380708448589,0.30045068103969097
1733752192949298000,8.4862978515625,-0.06278174260556697,-0.04487725260257721,0.19108692774027586
1733752192959273000,8.49627294921875,0.10051730675995349,-0.20125468601137397,0.12468991724699735
1733752192969249000,8.5062490234375,0.336344416719675,-0.24618483784496784,0.03858925837427377
1733752192979224800,8.516224853515626,0.3128606652796268,-0.2638550807006657,0.08636310920119285
1733752192989200000,8.526199951171876,0.10943301914334297,-0.176050978910923,0.20063859993964434
1733752192999176000,8.536176025390626,-0.14497370360195636,0.15619301675260067,0.11163491310179233
1733752193009152000,8.546152099609374,-0.4029430872648954,0.49808629977107044,-0.1309638829499483
1733752193019127800,8.5561279296875,-0.5409212328910827,0.4885695527546107,-0.2441352118387818
1733752193029103000,8.56610302734375,-0.40194706196486946,0.27455986845791336,-0.3716121294558048
1733752193039079000,8.576078857421875,0.16023615466356275,0.07603343836665154,-0.6638420946389436
1733752193049055000,8.586054931640625,0.7963058607578277,0.015571955402195452,-1.1846750637471675
1733752193059030000,8.596030029296875,1.004720063135028,-0.10417056857049464,-1.2734171770393847
1733752193069006000,8.606006103515625,0.6398807888150215,-0.1318266372591257,-0.5772095208466053
1733752193078982000,8.61598193359375,-0.05432604894936084,-0.10361424986198543,-0.014022972394526004
1733752193088957000,8.62595703125,-0.5446113195806741,-0.0211012402176857,0.18482699056267737
1733752193098933000,8.63593310546875,-0.6010644436866045,0.040229280666261906,0.023510931707918643
1733752193108908800,8.64590869140625,-0.3491033605277538,-0.016247516576200723,-0.255927356441319
1733752193118885000,8.655885009765624,0.06926935105919838,-0.09213102507814765,-0.44369215402156115
1733752193128860000,8.66585986328125,0.4122545209676027,-0.10107216416373849,-0.5129895621314644
1733752193138836000,8.6758359375,0.6525047080665827,-0.003950198930501938,-0.6479460218489169
1733752193148812000,8.68581201171875,0.7278343820780515,0.031800767277926204,-0.9622583472415804
1733752193158787000,8.695787109375,0.29984979253709315,0.1366590258516371,-1.12398298689723
1733752193168763000,8.705762939453125,-0.08167290555834769,0.20081351811513304,-1.083613567107916
1733752193178739000,8.715739013671875,-0.06174538529515266,0.25298984168469907,-0.4595665995016694
1733752193188714000,8.7257138671875,0.08158873440623284,0.3523505257554352,0.02922317187488079
1733752193198690000,8.73568994140625,0.031273674663901324,0.4629318381510675,0.16027385632544755
1733752193208665900,8.745665771484376,-0.17828443705141545,0.35125834660455585,0.16631985849142072
1733752193218642000,8.755641845703124,-0.2956733836352825,0.17576295574977993,-0.06476502537727355
1733752193228617000,8.765616943359374,-0.17062369316518305,0.09632321607097982,-0.17812983101159333
1733752193238592800,8.7755927734375,0.1388771402925253,0.0026871932573616503,-0.14883710103183984
1733752193248569000,8.785569091796875,0.31295068165063855,-0.03576572538614273,-0.16721593054831027
1733752193258543900,8.7955439453125,0.3479582821458578,-0.05266469160839915,-0.3287804112061858
1733752193268520000,8.80552001953125,0.23515724787414072,-0.0639633536055684,-0.4042880721330642
1733752193278496000,8.81549609375,0.22517887469530104,0.007009148109704256,-0.17749679380506275
1733752193288471000,8.825470947265625,0.18712416158914566,-0.061661652534455054,0.010034487280249594
1733752193298446800,8.83544677734375,-0.18181787187457082,0.04712371635511517,0.10906710844039916
1733752193308423200,8.845423095703126,-0.6034826107442378,0.2531599375545978,0.30717472859770056
1733752193318399000,8.85539892578125,-0.7164198386162519,0.5034273685380816,0.4173594428911805
1733752193328374000,8.8653740234375,-0.6053700319260359,0.46165495008304713,0.5452826429709792
1733752193338350000,8.87535009765625,-0.5275415268361568,0.43892289379313587,0.3791901634946465
1733752193348326000,8.885325927734375,-0.49964288156330583,0.5711622035063803,-0.16763123335093258
1733752193358301000,8.895301025390625,-0.3918547070175409,0.6034846565708518,-0.5581660899415611
1733752193368276700,8.90527685546875,-0.328761414244771,0.5963220714651047,-0.3085822573080659
1733752193378253000,8.915253173828125,-0.29153613770008086,0.5247092260196805,-0.5863774544253945
1733752193388227800,8.925227783203125,-0.019893033471703528,0.4618671315290033,-0.7773305266529321
1733752193398204000,8.935203857421875,0.45304771912693975,0.3928229675278067,-0.7475023746222257
1733752193408180000,8.945179931640626,1.1411024640023708,0.37278994106352326,-0.4978381702288985
1733752193418156000,8.955156005859376,1.3376292447090148,-0.018157149589806795,-0.33892113533988594
1733752193428130800,8.965130859375,0.8080512436091899,0.1328352297797799,0.18614874068573117
1733752193438107100,8.975107177734374,0.006152677410840988,0.2569023389533162,0.6497871196709573
1733752193448083000,8.9850830078125,-0.562920298731327,0.21926365930214523,0.4823711365059018
1733752193458058000,8.99505810546875,-0.7506400881260633,0.045264790615439414,0.10137129324078559
1733752193468034000,9.005033935546875,-0.647123599550128,-0.05221534040570259,-0.28486732746064664
1733752193478009900,9.015009765625,-0.37501813850700855,0.11285422576367854,-0.5058031577587128
1733752193487985000,9.02498486328125,0.06244856512844562,0.2601213009998202,-0.7089552018240094
1733752193497961000,9.0349609375,0.6747925277203322,0.2718222601875663,-0.8125004781030118
1733752193507937000,9.04493701171875,1.345447224983573,0.25540274804532526,-0.7951622436806559
1733752193517913000,9.0549130859375,1.2500526680648325,0.44577436712309715,-0.6210296656116843
1733752193527888100,9.06488818359375,0.4568371745377779,0.5000827342852949,-0.2905764988876879
1733752193537864000,9.074864013671874,-0.24184008663892745,0.36244814139977094,-0.1569311217688024
1733752193547840000,9.084840087890624,-0.584030306777358,0.20660452260673046,-0.26264365908429027
1733752193557815000,9.09481494140625,-0.40202889502942557,0.3448145772926509,-0.3263308260969817
1733752193567791000,9.104791015625,0.12897007878422737,0.26249577504619953,-0.16182371611595153
1733752193577767200,9.11476708984375,0.28640345098674297,0.25112390168234705,0.16968465874940156
1733752193587742200,9.1247421875,-0.06062193422317504,0.11476970399618149,0.4671718138083815
1733752193597718000,9.134718017578125,-0.5315834957033395,-0.010611848776787518,0.3777189218983054
1733752193607694000,9.144694091796875,-0.8950596649765967,0.03633468438051641,0.2890340917512774
1733752193617670100,9.154670166015626,-0.7179927870213985,0.07044073292613029,0.1702864240348339
1733752193627645000,9.16464501953125,-0.1930862848639488,0.12236446997411549,0.008855360498279332
1733752193637621200,9.174621337890626,0.23405367054641246,0.15936872417926787,-0.16915478965640068
1733752193647597000,9.18459716796875,0.4908867436558008,0.07496266732998191,-0.41445846075266596
1733752193657572000,9.194572021484374,0.6051748016148806,0.39245859119482335,-0.6588239742159843
1733752193667548200,9.204548095703124,0.5167874931097031,0.29570144068598747,-0.8557581666797399
1733752193677524000,9.21452392578125,0.45780689635276794,0.43333442613631484,-0.6860166631765663
1733752193687499000,9.2244990234375,0.1978881321877241,0.46752303839884696,-0.3015121727913618
1733752193697475000,9.23447509765625,0.017182605469226835,0.34309739811122414,-0.07050809907391667
1733752193707451100,9.244451171875,-0.10719897648096084,0.6261049230493605,0.24265081849992273
1733752193717427000,9.254427001953125,-0.24771277806460856,0.5681468742731959,0.28313305101394654
1733752193727402000,9.264402099609375,-0.1285632515490055,0.9217687351386994,0.2841400360994041
1733752193737378000,9.2743779296875,0.05340893410444259,0.8273680846281349,0.27145941822454334
1733752193747354000,9.28435400390625,0.2474018124192953,0.6427136741533875,0.17750263902395963
1733752193757329000,9.294328857421876,0.439369322386384,0.6214024444468319,0.2373923134498298
1733752193767305200,9.30430517578125,0.41303602673411366,0.5925898991994559,0.19553623529933392
1733752193777281000,9.314281005859375,0.04677227256894111,0.462951419634372,-0.0017176175728440283
1733752193787256000,9.324256103515625,-0.295071910610795,0.38105807625837623,-0.05938435525223613
1733752193797232000,9.334232177734375,-0.4706862516701221,0.2101674027200788,-0.07707987867966294
1733752193807208000,9.3442080078125,-0.4692833991348743,0.13597586589306593,-0.1307620037022978
1733752193817184000,9.35418408203125,-0.424667427816987,0.22613215683214366,0.04790807166583836
1733752193827159000,9.364158935546875,-0.3448334281235933,0.23377478053979575,0.4000968309883028
1733752193837135000,9.374135009765626,-0.20043021788597107,0.23074622649885712,0.2868107896786183
1733752193847111000,9.38411083984375,-0.2515840665400028,0.27037206137925385,0.2313049928927794
1733752193857086200,9.394086181640626,-0.24256255569458007,0.4102783985890448,0.3882578150367364
1733752193867062000,9.40406201171875,-0.03877309050858021,0.23894995468799024,0.22566282228734344
1733752193877038000,9.4140380859375,0.19126199204623698,-0.06781633923929184,0.04134147969186306
1733752193887012900,9.424012939453124,0.4605956502884626,0.27501349397692826,0.2796566436076537
1733752193896989200,9.4339892578125,0.8542647132515907,0.33781266264133153,0.29127153194714334
1733752193906965000,9.443965087890625,1.061233392995596,0.16747655424587427,0.1644589965229854
1733752193916941000,9.453941162109375,0.6104793377637863,0.09831928525902331,0.011687953575700521
1733752193926916000,9.463916015625,-0.23074293856322764,0.19598997041620314,-0.4381720023605972
1733752193936892200,9.47389208984375,-0.6946428910940885,0.4215571868419647,-0.2560650113463402
1733752193946868200,9.4838681640625,-0.41342414926886556,0.39934842377379537,0.08752831705566495
1733752193956843300,9.49384326171875,0.06872457665801047,0.33139808289129286,0.2145379094218835
1733752193966819000,9.503819091796874,-0.018471476235985756,0.44259281447753307,0.22984891233295202
1733752193976795000,9.513794921875,-0.33857845938205716,0.47778110530190165,0.21793668501470237
1733752193986770200,9.523770263671874,-0.5732908860981464,0.5079455766148865,0.25773193991156296
1733752193996746000,9.53374609375,-0.46275019797384737,0.5856006978992372,0.42432139085829257
1733752194006722000,9.54372216796875,-0.04122691340148449,0.2935932711592875,0.70626603580527
1733752194016698000,9.553697998046875,0.2971200753122568,0.2510789117631502,0.8316831713482737
1733752194026673200,9.563673095703125,0.5639607476949692,0.2451056095072068,0.4658821758566424
1733752194036649000,9.57364892578125,0.4953466456741094,0.14038065845696254,-0.17430375165110454
1733752194046625000,9.583625,0.21906594477295874,0.17501860365588218,-0.44495530582517384
1733752194056600000,9.59360009765625,0.1687608219027519,0.16359730165973305,-0.17776342711830512
1733752194066576100,9.603576171875,0.3107441115170717,0.032524761570384725,0.09168793921945616
1733752194076552200,9.61355224609375,0.39861470267176624,-0.016281035253312436,0.015092419123789294
1733752194086527200,9.62352734375,0.06181085174679756,-0.004464769989671186,-0.22436087284330278
1733752194096503000,9.6335029296875,-0.5168336703389883,0.25179358110483735,0.17615571792703122
1733752194106479000,9.64347900390625,-0.6053367141783237,0.16042846236526964,0.3019118031008169
1733752194116455200,9.653455078125,-0.1125900218695402,0.12947459424026309,0.42763749313633886
1733752194126430000,9.663429931640625,0.5232452909469604,0.12430158464969135,0.4234934521341696
1733752194136406000,9.673406005859375,1.0175561638325452,0.12824309795023872,-0.058713442853884766
1733752194146382000,9.683382080078125,0.8458785777002572,0.12563353650635106,-0.5036945681069046
1733752194156357000,9.693357177734375,0.3483534189432859,0.1342450783113949,-0.6900198344033212
1733752194166333000,9.7033330078125,-0.042294834893941875,0.1669872728915885,-0.41552988937646146
1733752194176309000,9.71330908203125,-0.22795301558375358,0.25272523593176155,-0.020045666750147937
1733752194186285000,9.72328515625,-0.3196136466711759,0.26543902542386205,0.22841544546373188
1733752194196260000,9.733260009765624,-0.27105799781680107,0.13078049834021366,0.29111648751590397
1733752194206236200,9.743236083984375,-0.26725860553383823,0.19742888064552097,0.31739593408908695
1733752194216212000,9.7532119140625,-0.2656973475664854,0.13633606837443074,0.013396072667837142
1733752194226187000,9.76318701171875,0.031684009030461306,0.06710479343645274,-0.04724361640773713
1733752194236163000,9.7731630859375,0.329691973093152,0.040730521886399945,0.1129430365582928
1733752194246139100,9.78313916015625,0.5599088419556617,0.17250464807357638,-0.01680526005681604
1733752194256114000,9.793114013671875,0.6168576406240462,0.23971439972184597,-0.2936161588445306
1733752194266090200,9.80309033203125,0.4393126237630844,0.1518671255106572,-0.09447145072445273
1733752194276066000,9.813066162109376,0.160957454675436,0.04388185749021359,0.0397526030652225
1733752194286041900,9.823041748046874,-0.14020342046022413,0.0943619898674544,0.16317407127898184
1733752194296017200,9.83301708984375,-0.3541325868666172,0.1990512942155823,0.1502436798941344
1733752194305993000,9.842992919921874,-0.48385494532287115,0.098788784200605,-0.0947561859499663
1733752194315969000,9.852968994140625,-0.4051064027786255,0.009154580906871705,-0.17961327450238168
1733752194325944000,9.862944091796875,-0.19503508084416388,-0.09186802676040678,-0.19952910432778298
1733752194335920000,9.872920166015625,0.03355506359934807,-0.13777381869312375,-0.16235175857804715
1733752194345896000,9.88289599609375,0.1971867059201002,0.13201241475534625,0.030154096049442886
1733752194355871000,9.89287109375,0.2838683795511722,-0.009606197131890802,-0.10575089656449854
1733752194365847000,9.902846923828125,-0.027900983360409734,-0.5387717997722328,0.1727557367578149
1733752194375823000,9.912822998046876,-0.4378402131229639,-0.03805507843233645,0.2600024969257414
1733752194385799200,9.922799072265626,-0.5036626385986804,-0.010516594541654921,0.030692732970789074
1733752194395774200,9.932774169921874,-0.25427462079823016,-0.06032936731765512,0.3330057738162577
1733752194405750000,9.94275,0.05838964512646198,0.020707354662427676,0.47705184117928146
1733752194415725800,9.952725830078125,-0.06136603058874607,-0.020134879403561352,0.324786592329666
1733752194425701000,9.962701171875,-0.2769429642021656,0.044657020280906,0.3564966856494546
1733752194435677000,9.972677001953125,-0.2740758843332529,0.06453645448551978,0.5876634756479412
1733752194445653000,9.982653076171875,0.0796598121702671,0.06783930912292561,0.6230052765335887
1733752194455628000,9.9926279296875,0.5223059642702341,0.2549471862975508,0.3969233155187219
1733752194465604000,10.00260400390625,0.6799965261042118,-0.12521132903890683,-0.2582822490043938
1733752194475580000,10.012579833984375,0.2699006444752216,-0.3499732021648437,-0.42315059351325035
1733752194485556200,10.02255615234375,-0.2945323969066143,0.08906879709647036,0.0545491901807487
1733752194495531000,10.032531005859376,-0.6372364117860794,0.0934192473909352,0.6295834128148854
1733752194505507000,10.042507080078124,-0.5272860907703638,-0.09239359413762577,0.6444635865606367
1733752194515483100,10.052483154296874,-0.09519815756380558,-0.06927620092509314,0.6314936303503811
1733752194525458700,10.062458740234375,0.2705950564801693,0.031828084543114525,0.7865421532429754
1733752194535434800,10.072434814453125,0.4582832816928625,0.05717930122232064,0.5352748975671827
1733752194545410600,10.08241064453125,0.4500122969537973,0.31978476545438167,0.33959903460144997
1733752194555387000,10.092386962890625,0.343034269747138,-0.009116340388869866,-0.28092151244431735
1733752194565361700,10.102361572265625,-0.000040332010388374324,-0.07810393363093025,-0.7211741935364901
1733752194575337700,10.112337646484375,-0.4118254819005728,0.3949696972329169,-0.7157555294886231
1733752194585313800,10.122313720703126,-0.5012812964200973,0.3063974423485808,-0.683159081788361
1733752194595288800,10.132288818359376,-0.4096376164674759,0.22810773122143,-0.050694122187793254
1733752194605264600,10.1422646484375,-0.4082797721177339,0.23469081767247987,0.27319647115021944
1733752194615240400,10.152240478515624,-0.36240532517135143,0.21873605523146689,0.17929186052829027
1733752194625215700,10.1622158203125,-0.12869710706174373,0.1534135603682138,0.11331745936125516
1733752194635191600,10.172191650390625,0.013090367719531058,0.027672855426650492,0.537147851832211
1733752194645167600,10.182167724609375,0.0124175830245018,-0.07315746280523017,0.6371522406339645
1733752194655143700,10.192143798828125,0.04289338530898094,0.057374403669312596,0.15156988699659704
1733752194665118700,10.20211865234375,0.1974269444167614,0.20611524125244468,-0.34592458436116574
1733752194675094500,10.212094482421875,0.18921908804178236,-0.19905452735228463,-0.6824594090864062
1733752194685070800,10.22207080078125,-0.09878010770380496,0.021615053225029258,-0.13813786623254418
1733752194695045600,10.232045654296876,-0.4278881434291601,0.3306692206274718,0.5062400878712534
1733752194705021700,10.242021728515626,-0.5764350293427706,0.16487101138997823,0.5230468457654118
1733752194714997800,10.251997802734374,-0.4476537511289119,0.137707712920662,0.5538119863852858
1733752194724972800,10.261972900390624,-0.1197749649375677,0.10629950689058751,0.34242037563249467
1733752194734948600,10.271948486328125,0.05556757344305515,0.022622586299758402,0.27328590299934147
1733752194744924700,10.281924560546875,0.12208090379238128,0.009615111090708523,0.7087756074734032
1733752194754900700,10.291900634765625,0.12295301045179366,0.14012586171198635,0.47010991308689115
1733752194764875800,10.301875732421875,0.017066285613179206,-0.45951209283545613,-0.3020562165401876
1733752194774851800,10.311851806640625,0.03426642673909664,-0.28905378283243627,-0.45662908474504943
1733752194784827600,10.32182763671875,0.04960545016825199,0.42562903939075764,-0.25063231877312064
1733752194794802700,10.331802734375,-0.07345686587691307,-0.053931341410195455,0.08689107859805226
1733752194804778500,10.341778564453126,-0.24624913525283335,-0.5040901798283681,0.47820671030282974
1733752194814754800,10.3517548828125,-0.4546428793638944,0.1390186859213747,0.5438502720803022
1733752194824729600,10.3617294921875,-0.608799421852827,0.1297698051940184,0.3717638128861785
1733752194834705700,10.37170556640625,-0.4794347907930612,-0.048403664029901844,0.2414629238896072
1733752194844681700,10.381681640625,-0.2715484116822481,-0.10908078990587965,0.20118015947043894
1733752194854657500,10.391657470703125,-0.17592238409519195,-0.1608832569280639,0.08375877192169427
1733752194864632600,10.401632568359375,-0.1293079324364662,-0.14622566729127429,-0.023791794475913047
1733752194874608600,10.411608642578125,-0.005535422295331955,-0.12269938275059684,-0.1901097532711923
1733752194884584700,10.421584716796875,0.22539222518503665,-0.06684675442161969,-0.5105737331613898
1733752194894559700,10.431559814453125,0.4615186103522777,-0.2549409026872366,-0.7889538905598222
1733752194904535800,10.441535888671876,0.5895218899309634,-0.13807608957532794,-0.5802101639673114
1733752194914511600,10.45151171875,0.5546078129380941,0.14911959863449445,0.35215105766057964
1733752194924487700,10.46148779296875,0.3721300158500671,-0.015275529738888143,0.8502430565200746
1733752194934462700,10.471462646484374,0.19288520933389663,-0.07696746781375259,1.1343578120477498
1733752194944438800,10.481438720703125,-0.04136018439233303,-0.0026112099782796576,1.1236321276329457
1733752194954414600,10.49141455078125,-0.39337271036505694,-0.011375599690899253,0.8403291268795728
1733752194964390000,10.501389892578125,-0.6708639560997486,-0.033308157899882646,0.550070461769402
1733752194974365700,10.51136572265625,-0.6266279240101575,-0.03900486713757272,0.19924948366880416
1733752194984341500,10.521341552734375,-0.26019641206264493,-0.07318173416338394,-0.20731807770356533
1733752194994316500,10.531316650390625,0.21407997305393217,-0.06990410073220264,-0.23948548633679745
1733752195004292600,10.541292724609375,0.6395861897826194,-0.05903688895485829,-0.36283509489074345
1733752195014268700,10.5512685546875,0.7922849346786737,-0.1124521203693468,-0.611835720808804
1733752195024244700,10.56124462890625,0.6212900701135396,-0.11240893881474621,-0.6235593302197754
1733752195034219800,10.5712197265625,0.1773795971661806,-0.09141706812251359,0.10447831934541463
1733752195044195600,10.581195556640624,-0.4246779492110014,-0.0847795389373321,0.5300137621685862
1733752195054172000,10.591171875,-0.8164204280257225,-0.07240410542096942,0.4946525259301066
1733752195064146700,10.601146728515625,-0.8127741804778575,-0.03908626637728885,0.32848186665102835
1733752195074122800,10.611122802734375,-0.44267596271634096,-0.012314241381036118,0.13389949801042675
1733752195084098600,10.6210986328125,-0.1429635328233242,-0.04500223068911582,0.0026632278598845
1733752195094073900,10.631073974609375,-0.07998129920959472,-0.06737424889444373,-0.1788032002285123
1733752195104049700,10.641049560546875,0.01783376285433769,-0.026114574867673216,-0.31830957833528517
1733752195114025500,10.651025390625,0.23330489800572393,0.017321712545817717,-0.3453118592903018
1733752195124001800,10.661001708984376,0.31386078223288055,-0.0008870393670629709,-0.23371669367700815
1733752195133976600,10.6709765625,0.14823708931207655,-0.05502405941719189,0.0005859831944108009
1733752195143952600,10.68095263671875,-0.09935060106813907,-0.06253521136543713,0.2991165098264813
1733752195153928700,10.6909287109375,-0.13663316075801848,0.05088537044357508,0.49675052112266416
1733752195163903700,10.70090380859375,-0.028221301355957983,-0.09680930082118139,0.6084956166006624
1733752195173879600,10.710879638671875,-0.12821370745897293,-0.23216241343971342,0.8973303863875567
1733752195183855900,10.72085595703125,-0.3029892596065998,0.008866046289075166,0.6398036319255829
1733752195193831700,10.730831787109375,-0.33079262781143187,-0.1133605495843105,0.1922759913943708
1733752195203806700,10.740806640625,-0.04408990161716938,-0.2731835568697192,0.03275660669803619
1733752195213782800,10.75078271484375,0.33849779536128044,-0.31393012114204466,-0.18185221253558992
1733752195223758600,10.760758544921876,0.43820378573834895,-0.2917602105132304,-0.3091898678123951
1733752195233733600,10.770733642578126,0.28813772743344307,-0.16322737236879764,-0.26587241187244653
1733752195243709700,10.780709716796874,0.055530748564004896,-0.03886802964988165,-0.23591712633073328
1733752195253685800,10.790685791015624,-0.1419043791592121,0.03984928663903847,-0.20929975304007528
1733752195263660500,10.80066064453125,-0.15697452251911162,0.0822521667510271,-0.12329729384481906
1733752195273636600,10.81063671875,-0.032200141859054565,0.04810457148547284,0.05538198774307966
1733752195283612700,10.82061279296875,-0.005840542721748352,0.01566311113423435,0.3205120568156242
1733752195293588700,10.830588623046875,-0.0720744716078043,-0.007918221212062053,0.5155966758899391
1733752195303563500,10.8405634765625,-0.07910510089695454,-0.04674699199721217,0.5064380946613848
1733752195313539800,10.850539794921875,-0.029497897163033485,-0.07342254804878029,0.2837986753158271
1733752195323515600,10.860515625,0.06794891611039638,-0.1465783440533094,-0.0023671675227582454
1733752195333490700,10.87049072265625,0.1606494116395712,-0.21657343383748082,-0.09110431237891316
1733752195343466800,10.880466796875,0.10389467423856258,-0.21398248576251788,-0.015126695852726697
1733752195353442600,10.890442626953124,-0.1474982536435127,-0.11116228148820809,0.18496230738013983
1733752195363417600,10.90041748046875,-0.294808875760436,-0.013601177060679764,0.16376052939742802
1733752195373393700,10.9103935546875,-0.19741174684762955,0.1157973300108686,-0.08830196830928325
1733752195383369700,10.92036962890625,-0.035472295397520066,0.1924956254944205,-0.32493937173858284
1733752195393345500,10.930345458984375,0.04843991352021694,0.15866634806357324,-0.4494803820341825
1733752195403320800,10.94032080078125,0.019669161587953565,0.1476701852774713,-0.3264695039153099
1733752195413296600,10.950296630859375,-0.060088850259780884,0.20188543992927296,-0.264067992798984
1733752195423272700,10.960272705078125,-0.11260171230733394,0.16188962095901369,-0.23984774377793072
1733752195433247700,10.970247802734375,-0.09234627526402472,0.02264744902966777,-0.07000906351059674
1733752195443223800,10.980223876953126,-0.1409019241183996,-0.08933162188427522,0.20951777970492838
1733752195453199600,10.99019970703125,-0.30469957065582276,-0.13141852224911563,0.4217421880200505
1733752195463175700,11.00017578125,-0.3884381765723228,-0.1407576111437287,0.3638682373307645
1733752195473150700,11.010150634765624,-0.33417467146515845,-0.15198106161337344,0.2506146369859576
1733752195483126500,11.02012646484375,-0.24788228941261767,-0.12312477768897079,0.26260259642153977
1733752195493102800,11.030102783203125,-0.07551672101616859,-0.005430710678687319,0.12433204372003674
1733752195503077600,11.04007763671875,0.1939759271800518,0.04430232509172056,-0.010163082095980644
1733752195513053700,11.0500537109375,0.4747942715108394,-0.044955158410687,0.10854878365471958
1733752195523029000,11.060029052734375,0.6007265900343656,-0.1444497710593976,0.18524550823569297
1733752195533004300,11.07000439453125,0.5618389332354068,-0.2041598876672797,0.09337196504995227
1733752195542980000,11.07997998046875,0.3794418001681566,-0.1866060559991747,0.12146744806915521
1733752195552956200,11.0899560546875,0.04570493559837341,-0.23163252608040347,0.2948478925965726
1733752195562932200,11.09993212890625,-0.2509486912459135,-0.1791194265708327,0.4049088343799114
1733752195572907300,11.1099072265625,-0.3402642205119133,-0.06894239326030947,0.16943258368447423
1733752195582883000,11.119883056640624,-0.2736398310035467,-0.048101603210251774,-0.08319266247153281
1733752195592859400,11.129859375,-0.0779126762419939,-0.03601698303373996,-0.03929492242559791
1733752195602834200,11.139834228515625,0.014091653716564177,-0.013380847699241713,0.009417670556157828
1733752195612810200,11.149810302734375,-0.09429448672235012,0.07618622234214563,-0.07776917611807584
1733752195622786300,11.159786376953125,-0.18957389282882212,0.1616051597281359,-0.14695976285263895
1733752195632762000,11.16976220703125,-0.19683248565495012,0.16223963997308163,0.004216156390309334
1733752195642737200,11.179737060546875,-0.09383505251705646,0.13152294160481542,0.23212606348469852
1733752195652713200,11.189713134765626,0.06177636495530605,0.10980903111519291,0.22883447459340095
1733752195662689300,11.199689208984376,0.22479893546700477,0.0423771520156879,0.05218845239877701
1733752195672664000,11.2096640625,0.35728023724257946,-0.07053186354199424,-0.08936199875622987
1733752195682640100,11.21964013671875,0.35021745924949643,-0.17891274328390136,-0.1431741068340838
1733752195692616200,11.2296162109375,0.1393780755519867,-0.15752841180851682,-0.1935743606418371
1733752195702592300,11.23959228515625,-0.19108955808877945,-0.055269188718101936,-0.11961246785223484
1733752195712567000,11.249567138671875,-0.4339256700277328,-0.05077620184752159,0.012420505633950233
1733752195722543400,11.25954345703125,-0.4976882403641939,-0.0582740011238493,0.1912906336188316
1733752195732519200,11.269519287109375,-0.4756640400826931,-0.08064104175996036,0.41292058366090056
1733752195742494200,11.279494140625,-0.47066228627264495,-0.11492491282420232,0.6648566785089671
1733752195752470300,11.28947021484375,-0.45744799991250035,-0.06459223066021222,0.7797158143542706
1733752195762446000,11.299446044921876,-0.26844401592612266,0.054226867457781915,0.5356029604777693
1733752195772422100,11.309422119140624,0.0399497330725193,0.0718467226999579,0.0056117024019360535
1733752195782397200,11.319397216796874,0.2826765394181013,-0.0033529454234056174,-0.4072169651918113
1733752195792373200,11.329373291015624,0.5088461787164211,-0.05601024830979295,-0.5189287429220975
1733752195802349000,11.33934912109375,0.612682400766015,-0.14832306882878765,-0.38698973132967945
1733752195812324400,11.349324462890625,0.5665262142688036,-0.17128182828035204,-0.1585379724435508
1733752195822300200,11.359300048828125,0.3562877190738916,-0.12164089580676518,0.014705693961679934
1733752195832276200,11.369276123046875,-0.07491349442601203,0.014528547296486794,0.0675615242280066
1733752195842251300,11.379251220703125,-0.42650107298493384,0.2040163144781254,-0.05634148042500019
1733752195852227300,11.389227294921875,-0.587646743708849,0.2704571641131304,-0.22394962516129016
1733752195862203100,11.399203125,-0.5811076973289251,0.3107392526788637,-0.26845965188667176
1733752195872179200,11.40917919921875,-0.3499439030051231,0.365509428666532,-0.2901027438960969
1733752195882154200,11.419154296875,0.0061801499396562576,0.30681853557117283,-0.24794278742820022
1733752195892130000,11.429130126953124,0.24696692813336849,0.22635776401525362,-0.15442133090496063
1733752195902106400,11.4391064453125,0.2670066765993833,0.1408228675328195,0.010013298361748456
1733752195912081200,11.4490810546875,0.06163607970178127,0.06049253568984568,0.24870222749337553
1733752195922057200,11.45905712890625,-0.19397242004871368,0.02506437169499695,0.3812411046750843
1733752195932033300,11.469033203125,-0.40783904261291026,0.008934033491369337,0.175924137660861
1733752195942009000,11.479009033203125,-0.544039072650671,0.02813839057916775,-0.12535685672312974
1733752195951984000,11.488984130859375,-0.4703197564452886,0.06806461491193622,-0.30642785575315357
1733752195961960200,11.498960205078125,-0.27911855467557906,-0.009426091324631123,-0.3364123673893511
1733752195971936300,11.508936279296876,-0.14299392796158789,-0.04259942559739575,-0.22248583621904253
1733752195981911300,11.518911376953126,-0.0962736778408289,0.043399325537122786,-0.0067826458774507044
1733752195991887000,11.52888720703125,-0.11288695898950099,-0.05373937163520604,0.2662850843265652
1733752196001863200,11.53886328125,-0.023826281267404555,-0.11428055050605908,0.5409938597358763
1733752196011839200,11.548839111328125,0.04891746790409088,-0.2810015736768953,0.7511334246009588
1733752196021814000,11.55881396484375,0.08001227886974811,-0.29666953679947183,0.8988431290380656
1733752196031790300,11.568790283203125,-0.10857026483416557,-0.2719097558079287,0.8686750775285065
1733752196041766100,11.57876611328125,-0.25973405524790283,-0.21306168112317098,0.5697288097023964
1733752196051741200,11.5887412109375,-0.21758359726071355,-0.13117597306435927,0.20509616387039423
1733752196061717200,11.59871728515625,-0.0005038578689098358,0.016374650087207555,-0.13684782642200588
1733752196071693000,11.608693115234376,0.20064882907271384,0.030272845324594524,-0.19660306081324816
1733752196081669000,11.618669189453126,0.23916414542794226,-0.02657386294249445,0.09317994960919022
1733752196091644200,11.62864404296875,0.13276187228262423,-0.038547355461306866,0.24297405910491943
1733752196101620200,11.6386201171875,-0.09034136518239974,-0.09699669488575309,0.27378713051974773
1733752196111596000,11.648595947265624,-0.17960721008777616,-0.16406236188821494,0.30364319347068663
1733752196121571300,11.6585712890625,-0.0670721332758665,-0.15067545890752226,0.4039597169615328
1733752196131547100,11.668547119140625,0.016712065348029135,-0.09612309038899838,0.4688458845004439
1733752196141523200,11.678523193359375,-0.06506605415046214,-0.12321947936825453,0.41584012436941264
1733752196151499300,11.688499267578125,-0.2085053877919912,-0.13806328489268196,0.3675296824477613
1733752196161474300,11.698474365234375,-0.2735053909689188,-0.1032480834307149,0.26371640288233755
1733752196171450000,11.7084501953125,-0.16887831080257892,-0.04919741735663265,0.16003040295839308
1733752196181426200,11.71842626953125,0.006499883413314819,0.031981293210294096,0.157180858746171
1733752196191401200,11.728401123046876,0.15832359904050827,0.11195477443961425,0.27578809507861735
1733752196201377300,11.738377197265624,0.26561609902381894,0.12002773412223905,0.46650443594083185
1733752196211353300,11.748353271484374,0.286658887052536,0.09492668367866426,0.745644179534912
1733752196221328400,11.758328369140624,0.17029636090695857,0.03440994512932375,0.803728119713068
1733752196231304200,11.76830419921875,0.0028057050704956054,0.0405711711728014,0.839009130322188
1733752196241280000,11.778280029296875,-0.08816109853386879,-0.020119188644085077,0.632829262868315
1733752196251256300,11.78825634765625,-0.0924351225912571,-0.09433410634668543,0.3355691945634782
1733752196261231000,11.798231201171875,0.02833995929956436,-0.10281705333599821,0.22675810671076177
1733752196271207200,11.808207275390625,0.12424421930611133,-0.17925149198528378,0.1691090508185327
1733752196281183200,11.818183349609376,0.07855155866742133,-0.21981329254154114,0.3350339186429977
1733752196291158300,11.828158203125,-0.10912029993236064,-0.11832936923913658,0.4856912208393216
1733752196301134000,11.838134033203126,-0.4472188668429851,0.06218405070705339,0.6174271110750734
1733752196311110100,11.848110107421874,-0.6252630653977393,0.16164905366878957,0.6859387756347656
1733752196321086200,11.858086181640624,-0.42320378500521183,0.1601538284086622,0.6610000030808151
1733752196331061200,11.868061279296874,-0.017584172007441518,0.1931717163913883,0.5073348973706364
1733752196341037300,11.878037353515625,0.2685708571761846,0.031209998310543594,0.5048367969445884
1733752196351013000,11.88801318359375,0.5003489840060472,0.1428201240309514,0.3890872881308198
1733752196360988200,11.89798828125,0.5515221218824387,-0.05201802773531526,0.4135330164708197
1733752196370964200,11.907964111328125,0.36252106050550936,0.015132869865186511,0.5064975697636604
1733752196380940300,11.917940185546875,0.07286416068077087,-0.10041291480371728,0.4896086865440011
1733752196390915000,11.9279150390625,-0.06294073255956173,0.023206267939228562,0.3536877657085657
1733752196400891400,11.937891357421876,-0.08346680323779583,-0.21118048875276,0.2637026666179299
1733752196410867200,11.9478671875,-0.029646365723013875,-0.11635074437623844,0.28163725949823853
1733752196420843000,11.957843017578124,-0.12235270647108554,-0.06213175426423549,0.11749474504590034
1733752196430818000,11.967818115234374,-0.3284843508690595,-0.10470239215856418,-0.11836349070444703
1733752196440794000,11.977794189453125,-0.3855108909487724,-0.029809045471437274,0.03205371912568807
1733752196450770200,11.987770263671875,-0.28479426222443577,-0.012368245723750441,0.3496173013992607
1733752196460745200,11.9977451171875,-0.15000059185326098,0.08394048516415059,0.5248294913984834
1733752196470721300,12.00772119140625,0.0396013580262661,0.16431105768596752,0.7477656286682933
1733752196480697000,12.017697021484375,0.23074644569456576,0.16278702645646406,0.9507668660860508
1733752196490673400,12.02767333984375,0.31121348259449005,0.14535000783475116,0.8463274174463004
1733752196500648200,12.037648193359376,0.1719640018582344,0.15049551749704404,0.5552268216192722
1733752196510624300,12.047624267578126,-0.1345323890864849,0.10519912616694345,0.2921749470602721
1733752196520600000,12.05760009765625,-0.3194067259222269,0.08662789761722087,0.26576062206104395
1733752196530575400,12.067575439453124,-0.18654899204969405,0.03622439240645617,0.3181968386758119
1733752196540551200,12.07755126953125,-0.0705669896543026,0.061496799095254386,0.29898206979185343
1733752196550527000,12.08752685546875,-0.20248831945955753,0.20329481353685258,0.16848485450558365
1733752196560503300,12.09750341796875,-0.44101241341829295,0.3699905196033418,0.08277757886461913
1733752196570478000,12.10747802734375,-0.5202613067001104,0.340965573714301,-0.00032572482302784916
1733752196580454100,12.1174541015625,-0.27135318137109277,0.21486542434319852,-0.06877038856111467
1733752196590430200,12.12743017578125,0.301342076921463,0.34991504223681985,0.03249707897901535
1733752196600405200,12.1374052734375,0.7052180611222982,-0.08771037735799327,0.22302257344424722
1733752196610381000,12.147381103515626,0.885870396348834,0.06886460618320853,0.44537024330161507
1733752196620357400,12.157357421875,0.6289777020066977,0.0754448796226643,0.17932379003651439
1733752196630332200,12.167332275390624,0.04667582645714283,0.19402013164795934,-0.22363310655802487
1733752196640308200,12.17730810546875,-0.4308160135746002,0.3083992654239759,-0.5439023675937206
1733752196650284300,12.1872841796875,-0.5276058242440224,0.27613526454847304,-0.5884086679920554
1733752196660260000,12.197260009765625,-0.30470366230905055,0.34528738243617113,-0.5321834343578666
1733752196670235100,12.207235107421875,-0.11697919673919677,0.21664227955630047,-0.38372291155345734
1733752196680211200,12.217211181640625,0.015054361268877983,0.14104034620840103,-0.31610929181203246
1733752196690187300,12.227187255859375,0.0491430933535099,0.31577918307483194,-0.29849249617662277
1733752196700162000,12.237162109375,-0.07527122182250022,0.18478479538876563,-0.14301065076752564
1733752196710138000,12.24713818359375,-0.1872089172631502,0.13463886340195313,0.15561233078781514
1733752196720114200,12.2571142578125,-0.15765432147681713,0.0995455939172767,0.4839306409075856
1733752196730089200,12.267089111328126,0.005765139397978783,0.09514193386454134,0.7292888186700641
1733752196740065000,12.27706494140625,0.16551497184932232,0.12248130128681659,0.5043353502284735
