time,seconds_elapsed,z,y,x
1733752184479922200,0.016922119140625,-0.011500295251607895,0.11357090622186661,0.04825839772820473
1733752184489898000,0.02689794921875,-0.008545191958546638,0.10725775361061096,0.02810787409543991
1733752184499873800,0.036873779296875,0.0004616190562956035,0.09867890924215317,0.014631479047238827
1733752184509848300,0.046848388671875,0.008449504151940346,0.08789124339818954,0.015110847540199757
1733752184519824400,0.056824462890625,0.0011575031094253063,0.060270264744758606,0.025492649525403976
1733752184529800400,0.066800537109375,-0.0064242505468428135,0.04863172024488449,0.018009966239333153
1733752184539775500,0.076775390625,-0.011538052000105381,0.06778118014335632,-0.01636452041566372
1733752184549751300,0.086751220703125,-0.01561642624437809,0.07526209205389023,-0.03560388460755348
1733752184559727400,0.096727294921875,-0.022005615755915642,0.07737025618553162,-0.038388751447200775
1733752184569703400,0.106703369140625,-0.01892625354230404,0.09302622079849243,-0.024209143593907356
1733752184579678200,0.11667822265625,-0.004321477375924587,0.13450680673122406,-0.006468228530138731
1733752184589654300,0.126654296875,0.026486599817872047,0.13958565890789032,-0.00474331621080637
1733752184599630300,0.13663037109375,0.05591479688882828,0.09458115696907043,0.005716248415410519
1733752184609605400,0.14660546875,0.06222410127520561,0.04426676407456398,0.01405529584735632
1733752184619581200,0.156581298828125,0.07051026076078415,0.0076475017704069614,0.018216749653220177
1733752184629557200,0.16655712890625,0.0854705199599266,-0.0063356561586260796,0.004282435402274132
1733752184639533300,0.176533203125,0.09757352620363235,0.005179852247238159,-0.0027578971348702908
1733752184649508400,0.18650830078125,0.09703096747398376,0.04058067873120308,0.010111656039953232
1733752184659484400,0.196484375,0.09756093472242355,0.08869733661413193,0.006147541105747223
1733752184669460200,0.206460205078125,0.1033492311835289,0.11020197719335556,-0.012026890181005001
1733752184679435300,0.216435302734375,0.0832223892211914,0.08865513652563095,-0.04515128582715988
1733752184689411300,0.226411376953125,0.05802455171942711,0.046086329966783524,-0.08643046021461487
1733752184699387400,0.236387451171875,0.08278875797986984,0.015414705500006676,-0.10886092483997345
1733752184709363200,0.24636328125,0.11148019134998322,0.00926981307566166,-0.10056670755147934
1733752184719338500,0.25633837890625,0.14337287843227386,0.058647748082876205,-0.052087582647800446
1733752184729314300,0.266314208984375,0.18530334532260895,0.15571175515651703,0.02407100610435009
1733752184739290000,0.2762900390625,0.21500851213932037,0.25172778964042664,0.0728185698390007
1733752184749265400,0.286265380859375,0.24791009724140167,0.2695089280605316,0.0770411267876625
1733752184759241200,0.2962412109375,0.27816042304039,0.20021986961364746,0.045500773936510086
1733752184769217300,0.30621728515625,0.29985862970352173,0.06880611181259155,-0.013314088806509972
1733752184779193300,0.316193359375,0.33412739634513855,-0.1059475913643837,-0.07835248112678528
1733752184789168400,0.32616845703125,0.3782043159008026,-0.2765490710735321,-0.1230141669511795
1733752184799144200,0.336144287109375,0.41617247462272644,-0.3451955020427704,-0.139093279838562
1733752184809120500,0.34612060546875,0.4319731891155243,-0.33010104298591614,-0.12427908182144165
1733752184819096300,0.356096435546875,0.43736982345581055,-0.2862315773963928,-0.0661955401301384
1733752184829071400,0.3660712890625,0.4462161362171173,-0.2587917447090149,-0.013891790062189102
1733752184839047400,0.37604736328125,0.44797462224960327,-0.21942782402038574,0.003129271324723959
1733752184849023200,0.386023193359375,0.45235592126846313,-0.19679966568946838,-0.020216986536979675
1733752184858998300,0.395998291015625,0.4493284225463867,-0.20164021849632263,-0.0477234423160553
1733752184868974300,0.405974365234375,0.45401260256767273,-0.2534525990486145,-0.05787212401628494
1733752184878950400,0.415950439453125,0.49477869272232056,-0.3001013398170471,-0.055790599435567856
1733752184888926200,0.42592626953125,0.5678150057792664,-0.33787837624549866,-0.0633121207356453
1733752184898901200,0.4359013671875,0.5933850407600403,-0.37771210074424744,-0.0609419047832489
1733752184908877300,0.445877197265625,0.589303195476532,-0.4322134554386139,-0.05545783042907715
1733752184918853400,0.455853271484375,0.591106116771698,-0.4546079635620117,-0.05160077288746834
1733752184928828200,0.465828125,0.6149089336395264,-0.4284617304801941,-0.038421038538217545
1733752184938804500,0.475804443359375,0.6335907578468323,-0.36342865228652954,-0.03609902784228325
1733752184948780300,0.4857802734375,0.6206473112106323,-0.28065308928489685,-0.045446787029504776
1733752184958756000,0.495756103515625,0.5286963582038879,-0.21982569992542267,-0.05017629638314247
1733752184968731400,0.5057314453125,0.4146917462348938,-0.2627817690372467,-0.05004344880580902
1733752184978707200,0.515707275390625,0.32830679416656494,-0.34818321466445923,-0.026292847469449043
1733752184988683300,0.525683349609375,0.32018259167671204,-0.43710580468177795,0.025433776900172234
1733752184998658300,0.535658203125,0.42154914140701294,-0.4692632257938385,0.08286697417497635
1733752185008634400,0.54563427734375,0.6170147061347961,-0.4435102939605713,0.11959894001483917
1733752185018610200,0.555610107421875,0.7824992537498474,-0.2976974546909332,0.1270723044872284
1733752185028586500,0.56558642578125,0.7843380570411682,-0.061299968510866165,0.09904438257217407
1733752185038561300,0.575561279296875,0.7695133090019226,0.16495074331760406,0.08127950131893158
1733752185048537300,0.585537353515625,0.7516466975212097,0.17413106560707092,0.12550953030586243
1733752185058513400,0.595513427734375,0.737730860710144,0.005742046050727367,0.15848718583583832
1733752185068489200,0.6054892578125,0.7396821975708008,-0.2183549553155899,0.14050951600074768
1733752185078464300,0.61546435546875,0.7662442922592163,-0.4045826494693756,0.10771987587213516
1733752185088440300,0.6254404296875,0.8123376369476318,-0.45129603147506714,0.09278986603021622
1733752185098416400,0.63541650390625,0.8584883809089661,-0.32806918025016785,0.10697279870510101
1733752185108391200,0.64539111328125,0.8770095109939575,-0.09646987915039062,0.1429271101951599
1733752185118367200,0.6553671875,0.8754914999008179,0.1250465363264084,0.1912541687488556
1733752185128343300,0.66534326171875,0.8597748279571533,0.2498011589050293,0.23432695865631104
1733752185138319400,0.6753193359375,0.8658753633499146,0.2943665087223053,0.23466011881828308
1733752185148294100,0.685294189453125,0.9165139198303223,0.15490072965621948,0.2530718445777893
1733752185158270500,0.6952705078125,0.9393225312232971,-0.15073029696941376,0.2607814371585846
1733752185168246300,0.705246337890625,0.9535207748413086,-0.4034559428691864,0.20393741130828857
1733752185178221300,0.71522119140625,0.9583064913749695,-0.5692984461784363,0.1286700963973999
1733752185188197400,0.725197265625,0.9699838757514954,-0.6528639793395996,0.09266942739486694
1733752185198173200,0.735173095703125,0.9510416388511658,-0.6899288296699524,0.10936026275157928
1733752185208149200,0.745149169921875,0.9172322750091553,-0.6558281183242798,0.14474967122077942
1733752185218124300,0.755124267578125,0.8944537043571472,-0.512282133102417,0.1735677421092987
1733752185228100400,0.765100341796875,0.8715046644210815,-0.32468855381011963,0.18775102496147156
1733752185238076200,0.775076171875,0.8431470394134521,-0.20813316106796265,0.22560173273086548
1733752185248051500,0.785051513671875,0.8294423818588257,-0.2471780776977539,0.2961779832839966
1733752185258027300,0.79502734375,0.8425600528717041,-0.33074861764907837,0.3347882330417633
1733752185268003300,0.80500341796875,0.8565326929092407,-0.41083744168281555,0.3106851577758789
1733752185277979400,0.8149794921875,0.8473831415176392,-0.4517457187175751,0.2635536193847656
1733752185287954400,0.824954345703125,0.8229263424873352,-0.4536512792110443,0.22753024101257324
1733752185297930200,0.83493017578125,0.8205134868621826,-0.4377301037311554,0.2139265537261963
1733752185307906300,0.84490625,0.8017467260360718,-0.3861856460571289,0.2107890546321869
1733752185317882400,0.85488232421875,0.7834321856498718,-0.3408418595790863,0.20771284401416779
1733752185327857200,0.864857177734375,0.7337353825569153,-0.3199118971824646,0.20370975136756897
1733752185337833500,0.87483349609375,0.7296423316001892,-0.3528355062007904,0.20511776208877563
1733752185347809300,0.884809326171875,0.7219775915145874,-0.3854147791862488,0.19651450216770172
1733752185357784300,0.894784423828125,0.7057000994682312,-0.3642844557762146,0.1760915070772171
1733752185367760400,0.904760498046875,0.712073802947998,-0.3217276632785797,0.13258078694343567
1733752185377736400,0.914736328125,0.715812623500824,-0.3327643573284149,0.10894815623760223
1733752185387712300,0.924712158203125,0.7279347777366638,-0.33822667598724365,0.09600850194692612
1733752185397687300,0.934687255859375,0.7729869484901428,-0.3418480455875397,0.08992397785186768
1733752185407663400,0.944663330078125,0.7988204956054688,-0.35264667868614197,0.09614438563585281
1733752185417639200,0.95463916015625,0.8061202168464661,-0.33054351806640625,0.141494020819664
1733752185427614200,0.9646142578125,0.8105801343917847,-0.30778974294662476,0.1524178683757782
1733752185437590300,0.97459033203125,0.7910557389259338,-0.2684932053089142,0.12593673169612885
1733752185447566300,0.98456640625,0.7620278000831604,-0.27037474513053894,0.06751230359077454
1733752185457542400,0.99454248046875,0.7212755680084229,-0.2856282591819763,0.009133413434028625
1733752185467517400,1.004517333984375,0.7040113806724548,-0.31516033411026,-0.032558374106884
1733752185477493200,1.0144931640625,0.6806248426437378,-0.31334617733955383,-0.046046484261751175
1733752185487469300,1.02446923828125,0.6624742746353149,-0.27451053261756897,-0.0038919979706406593
1733752185497445400,1.0344453125,0.6408355832099915,-0.2096085101366043,0.0598457045853138
1733752185507420400,1.04442041015625,0.6196672320365906,-0.13293693959712982,0.1055307537317276
1733752185517397200,1.054397216796875,0.6123456358909607,-0.14444606006145477,0.09798229485750198
1733752185527373000,1.064373046875,0.6045733690261841,-0.2019347995519638,0.028491852805018425
1733752185537348000,1.07434814453125,0.6220109462738037,-0.25503262877464294,-0.04141798987984657
1733752185547324200,1.08432421875,0.6136314272880554,-0.3299035131931305,-0.09759937226772308
1733752185557300000,1.094300048828125,0.5748313069343567,-0.38668185472488403,-0.1088738664984703
1733752185567276000,1.104276123046875,0.5294805765151978,-0.3686010241508484,-0.08547469228506088
1733752185577251000,1.1142509765625,0.4926466643810272,-0.30114102363586426,-0.06512734293937683
1733752185587227100,1.12422705078125,0.4421243965625763,-0.21628916263580322,-0.05646110326051712
1733752185597203000,1.134202880859375,0.39834922552108765,-0.14238297939300537,-0.05886034294962883
1733752185607178000,1.144177978515625,0.40193185210227966,-0.09869305044412613,-0.07124069333076477
1733752185617154000,1.154154052734375,0.43714097142219543,-0.11405389755964279,-0.07464288175106049
1733752185627130000,1.164130126953125,0.43047940731048584,-0.2028714269399643,-0.09115755558013916
1733752185637106200,1.174106201171875,0.4057442247867584,-0.26514092087745667,-0.10844892263412476
1733752185647081200,1.184081298828125,0.366647869348526,-0.27373436093330383,-0.10460836440324783
1733752185657057000,1.19405712890625,0.337137907743454,-0.2540314793586731,-0.08846002072095871
1733752185667032800,1.20403271484375,0.3167758285999298,-0.23952803015708923,-0.052854038774967194
1733752185677009200,1.214009033203125,0.298494815826416,-0.2203202247619629,-0.04808378592133522
1733752185686984000,1.22398388671875,0.2734147608280182,-0.19141358137130737,-0.037738047540187836
1733752185696960000,1.2339599609375,0.24561722576618195,-0.12434560060501099,-0.013213797472417355
1733752185706936000,1.24393603515625,0.22434426844120026,-0.047366999089717865,0.004776104353368282
1733752185716911000,1.2539111328125,0.21769648790359497,0.02360837534070015,-0.033336393535137177
1733752185726887000,1.263886962890625,0.226073756814003,0.07112741470336914,-0.06767977774143219
1733752185736863200,1.27386328125,0.2513261139392853,0.060361575335264206,-0.050089601427316666
1733752185746839000,1.283839111328125,0.26856309175491333,-0.08998606353998184,0.010235194116830826
1733752185756814000,1.29381396484375,0.29591694474220276,-0.2513432800769806,-0.03945007175207138
1733752185766790100,1.3037900390625,0.321335107088089,-0.21462653577327728,-0.1709924042224884
1733752185776766000,1.313765869140625,0.3329574167728424,-0.10534052550792694,-0.17091651260852814
1733752185786741000,1.323740966796875,0.315652996301651,0.07486199587583542,-0.09723430871963501
1733752185796717000,1.333717041015625,0.3044213652610779,0.22358275949954987,-0.02898121438920498
1733752185806693000,1.343693115234375,0.29469481110572815,0.24321506917476654,0.02663387358188629
1733752185816669000,1.3536689453125,0.2858797609806061,0.20885922014713287,0.034297920763492584
1733752185826644200,1.363644287109375,0.27927103638648987,0.15013863146305084,-0.0322769358754158
1733752185836620000,1.3736201171875,0.2844330370426178,0.07014472782611847,-0.1342906504869461
1733752185846596000,1.38359619140625,0.26348528265953064,-0.061210911720991135,-0.19465070962905884
1733752185856572200,1.393572265625,0.24249877035617828,-0.21061690151691437,-0.20518910884857178
1733752185866547200,1.403547119140625,0.24279658496379852,-0.35562023520469666,-0.1582404524087906
1733752185876523000,1.41352294921875,0.23426860570907593,-0.44000592827796936,-0.07483317703008652
1733752185886499000,1.4234990234375,0.24841181933879852,-0.39954352378845215,-0.015450241044163704
1733752185896474000,1.43347412109375,0.24959160387516022,-0.23367999494075775,0.0029828278347849846
1733752185906450000,1.443449951171875,0.24897514283657074,-0.06651847064495087,0.004210669547319412
1733752185916426200,1.45342626953125,0.27427515387535095,0.012580079957842827,-0.02552645280957222
1733752185926402000,1.463402099609375,0.32007038593292236,-0.010004360228776932,-0.05409805104136467
1733752185936377000,1.473377197265625,0.3210959732532501,-0.09680796414613724,-0.06187155470252037
1733752185946353000,1.483352783203125,0.3198543190956116,-0.17469923198223114,-0.04559429734945297
1733752185956329200,1.4933291015625,0.3168060779571533,-0.2117278128862381,-0.02997911535203457
1733752185966304000,1.503303955078125,0.31845131516456604,-0.19216421246528625,-0.051571350544691086
1733752185976280000,1.513280029296875,0.3019666075706482,-0.1416293978691101,-0.08378761261701584
1733752185986256100,1.523256103515625,0.28898611664772034,-0.13696961104869843,-0.08594799786806107
1733752185996232000,1.53323193359375,0.32050782442092896,-0.14142294228076935,-0.038597796112298965
1733752186006207000,1.54320703125,0.3347945809364319,-0.15584097802639008,0.06385474652051926
1733752186016183000,1.55318310546875,0.29606500267982483,-0.16646991670131683,0.1608169823884964
1733752186026159000,1.5631591796875,0.2723220884799957,-0.18286599218845367,0.1784447431564331
1733752186036134000,1.5731337890625,0.2745037376880646,-0.20194993913173676,0.12132713198661804
1733752186046110200,1.583110107421875,0.30575284361839294,-0.2534818947315216,0.053293995559215546
1733752186056086000,1.5930859375,0.35065722465515137,-0.3461545705795288,0.02528846263885498
1733752186066062000,1.60306201171875,0.3716605603694916,-0.47977280616760254,0.041695836931467056
1733752186076037000,1.613037109375,0.3713742792606354,-0.5880404114723206,0.05906816944479942
1733752186086013200,1.62301318359375,0.34262052178382874,-0.6224145293235779,0.05503489077091217
1733752186095989000,1.632989013671875,0.2971595823764801,-0.4983767569065094,0.057763565331697464
1733752186105964000,1.642964111328125,0.2530827224254608,-0.3001307547092438,0.061925191432237625
1733752186115940000,1.652940185546875,0.20945028960704803,-0.14888662099838257,0.048106849193573
1733752186125916000,1.662916015625,0.17799563705921173,-0.0969226211309433,0.041057709604501724
1733752186135892200,1.672892333984375,0.1627141535282135,-0.1291479468345642,0.03099043108522892
1733752186145867000,1.682866943359375,0.15184377133846283,-0.193372905254364,0.034067586064338684
1733752186155843000,1.692843017578125,0.15047171711921692,-0.2189594954252243,0.05328761786222458
1733752186165819100,1.702819091796875,0.16379038989543915,-0.1779053956270218,0.07947393506765366
1733752186175794200,1.712794189453125,0.19012479484081268,-0.09570053964853287,0.09096281230449677
1733752186185770000,1.72277001953125,0.207253560423851,-0.016401540488004684,0.09542778879404068
1733752186195746000,1.73274609375,0.19739453494548798,0.01612630859017372,0.11336817592382431
1733752186205722000,1.74272216796875,0.19172707200050354,0.025279328227043152,0.10726740211248398
1733752186215697200,1.752697265625,0.2079387903213501,0.02412804402410984,0.06517161428928375
1733752186225673000,1.7626728515625,0.190928116440773,0.013967018574476242,0.006942398380488157
1733752186235649000,1.77264892578125,0.1364840567111969,-0.03371048718690872,-0.037414148449897766
1733752186245625000,1.782625,0.05290934070944786,-0.09273079037666321,-0.05217255279421806
1733752186255599900,1.792599853515625,-0.003974448423832655,-0.13943225145339966,-0.05650471895933151
1733752186265576200,1.802576171875,-0.05057482421398163,-0.17338712513446808,-0.07616432756185532
1733752186275552000,1.812552001953125,-0.10086968541145325,-0.17936858534812927,-0.06188685819506645
1733752186285527000,1.822527099609375,-0.1395365595817566,-0.1555563360452652,-0.024034596979618073
1733752186295503000,1.832503173828125,-0.16872987151145935,-0.11219368875026703,0.019590379670262337
1733752186305479200,1.842479248046875,-0.1652292162179947,-0.04553694278001785,0.04841706156730652
1733752186315454000,1.852453857421875,-0.14749522507190704,0.025801686570048332,0.0523284450173378
1733752186325430300,1.86243017578125,-0.11445315182209015,0.0952335074543953,0.04886852949857712
1733752186335406000,1.872406005859375,-0.09562566131353378,0.14311900734901428,0.0344829335808754
1733752186345382000,1.8823818359375,-0.08688575029373169,0.1515681892633438,0.011214768514037132
1733752186355357200,1.892357177734375,-0.08803889900445938,0.1238582655787468,-0.02310565486550331
1733752186365333000,1.9023330078125,-0.10243037343025208,0.07270444929599762,-0.04456012696027756
1733752186375309000,1.91230908203125,-0.11947886645793915,0.016184983775019646,-0.040813326835632324
1733752186385285000,1.92228515625,-0.14225448668003082,-0.04141146317124367,-0.05343617871403694
1733752186395260200,1.93226025390625,-0.15827633440494537,-0.11508941650390625,-0.05764050781726837
1733752186405236000,1.942236083984375,-0.16486847400665283,-0.15316985547542572,-0.013922481797635555
1733752186415212000,1.9522119140625,-0.18509811162948608,-0.1299806386232376,0.05430690199136734
1733752186425187000,1.96218701171875,-0.17937703430652618,-0.06903932243585587,0.08275192230939865
1733752186435163100,1.9721630859375,-0.16615310311317444,-0.004630505107343197,0.05580339953303337
1733752186445139200,1.98213916015625,-0.1514132022857666,0.03559327498078346,0.014330772683024406
1733752186455115000,1.992114990234375,-0.14233821630477905,0.04118325188755989,-0.019369933754205704
1733752186465090000,2.002090087890625,-0.14092296361923218,0.03489168733358383,-0.033039577305316925
1733752186475065900,2.01206591796875,-0.15639565885066986,0.03559769317507744,-0.021379191428422928
1733752186485042200,2.022042236328125,-0.16480186581611633,0.05612644925713539,-0.004831733647733927
1733752186495017000,2.032016845703125,-0.16762295365333557,0.06813916563987732,0.007974875159561634
1733752186504993000,2.041992919921875,-0.13896159827709198,0.08681724220514297,0.027322711423039436
1733752186514968800,2.05196875,-0.11044127494096756,0.09838574379682541,0.059254810214042664
1733752186524945000,2.06194482421875,-0.10074897110462189,0.0690411701798439,0.0938119888305664
1733752186534919700,2.071919677734375,-0.09481970965862274,-0.006547326687723398,0.09084123373031616
1733752186544896000,2.08189599609375,-0.09090941399335861,-0.07771416008472443,0.07262153923511505
1733752186554871800,2.091871826171875,-0.08786595612764359,-0.1088787391781807,0.05311575159430504
1733752186564846800,2.101846923828125,-0.09829659759998322,-0.11312898248434067,0.05107243359088898
1733752186574823000,2.111822998046875,-0.11038095504045486,-0.09275659918785095,0.053050898015499115
1733752186584798700,2.121798828125,-0.12036842852830887,-0.07440177351236343,0.04727869853377342
1733752186594773800,2.131773681640625,-0.12818586826324463,-0.04610728845000267,0.03421482816338539
1733752186604749800,2.141749755859375,-0.12631261348724365,-0.01956852898001671,0.012392996810376644
1733752186614726000,2.151725830078125,-0.11305779218673706,-0.012347366660833359,-0.013715835288167
1733752186624701700,2.16170166015625,-0.09972760081291199,-0.017496949061751366,-0.00839388370513916
1733752186634676700,2.1716767578125,-0.07909289002418518,-0.021401677280664444,0.02422957308590412
1733752186644652800,2.18165283203125,-0.053684983402490616,-0.045771919190883636,0.07187170535326004
1733752186654628900,2.19162890625,-0.000829757540486753,-0.09311999380588531,0.0876043289899826
1733752186664605000,2.20160498046875,0.008703569881618023,-0.10837280750274658,0.06282723695039749
1733752186674580000,2.211580078125,-0.03922427445650101,-0.0987718477845192,0.023380763828754425
1733752186684555800,2.2215556640625,-0.08618216216564178,-0.03957414999604225,0.013609168119728565
1733752186694531800,2.23153173828125,-0.03843009099364281,0.022909466177225113,0.027960412204265594
1733752186704507000,2.2415068359375,-0.007622308097779751,0.042278945446014404,0.03141816705465317
1733752186714482700,2.251482666015625,0.01708543486893177,0.03414591774344444,0.018895715475082397
1733752186724459000,2.261458984375,0.02770271897315979,0.033253900706768036,-0.0013216566294431686
1733752186734433800,2.271433837890625,0.030268941074609756,0.0380859375,-0.010952179320156574
1733752186744409900,2.281409912109375,0.02549995854496956,0.028010528534650803,-0.0073199099861085415
1733752186754385700,2.2913857421875,0.03973349183797836,0.013410545885562897,-0.0017296683508902788
1733752186764362000,2.301362060546875,0.061321455985307693,0.0027033155784010887,0.002548996591940522
1733752186774336800,2.311336669921875,0.06356436759233475,-0.017862679436802864,0.014293803833425045
1733752186784312800,2.321312744140625,0.08088427037000656,-0.05426277965307236,0.03002157248556614
1733752186794289000,2.331288818359375,0.04086015745997429,-0.05167365446686745,0.023090695962309837
1733752186804264000,2.341263916015625,-0.0003733416087925434,-0.046043090522289276,-0.012992569245398045
1733752186814239700,2.35123974609375,-0.05972135439515114,-0.03252195566892624,-0.04878758639097214
1733752186824215800,2.3612158203125,-0.04629870504140854,0.030245352536439896,-0.07119836658239365
1733752186834192000,2.37119189453125,-0.010489840991795063,0.0672137588262558,-0.07435900717973709
1733752186844166700,2.381166748046875,-0.005900525022298098,0.0778731256723404,-0.07268387824296951
1733752186854143000,2.39114306640625,0.001603996381163597,0.07100509852170944,-0.06383659690618515
1733752186864118800,2.401118896484375,-0.0013913789298385382,0.054224248975515366,-0.04168018698692322
1733752186874093800,2.41109375,-0.005338183604180813,0.06074419990181923,-0.02634437382221222
1733752186884070000,2.42106982421875,-0.0197015181183815,0.09158723056316376,-0.01857420615851879
1733752186894046000,2.4310458984375,-0.03656226024031639,0.116795115172863,-0.023358575999736786
1733752186904021800,2.441021728515625,-0.05521385371685028,0.12991997599601746,-0.03288280963897705
1733752186913996800,2.450996826171875,-0.07544828206300735,0.12164419889450073,-0.04168295860290527
1733752186923972900,2.460972900390625,-0.08874212205410004,0.10786918550729752,-0.0598580464720726
1733752186933948700,2.47094873046875,-0.09562160074710846,0.10150662809610367,-0.091032475233078
1733752186943923700,2.480923828125,-0.0973735824227333,0.0910734310746193,-0.11291804164648056
1733752186953899800,2.490899658203125,-0.09523772448301315,0.09513262659311295,-0.10796775668859482
1733752186963875800,2.500875732421875,-0.08417980372905731,0.10439203679561615,-0.08163443952798843
1733752186973852000,2.510851806640625,-0.07664652168750763,0.10209852457046509,-0.04211525246500969
1733752186983827000,2.520826904296875,-0.08424048125743866,0.0757097527384758,-0.009205115959048271
1733752186993802800,2.530802734375,-0.09012579917907715,0.04796414077281952,-0.010822453536093235
1733752187003778800,2.54077880859375,-0.09192351251840591,0.02661319449543953,-0.028394989669322968
1733752187013753900,2.55075390625,-0.09507083147764206,0.02114759013056755,-0.05838724225759506
1733752187023730000,2.56072998046875,-0.10382532328367233,0.024377478286623955,-0.09300511330366135
1733752187033705700,2.570705810546875,-0.12131217122077942,0.02940046787261963,-0.10508280992507935
1733752187043681800,2.580681884765625,-0.14390383660793304,0.03160658851265907,-0.09541544318199158
1733752187053656800,2.59065673828125,-0.17118152976036072,0.04517752304673195,-0.08514336496591568
1733752187063632600,2.600632568359375,-0.19206589460372925,0.06880481541156769,-0.07233066111803055
1733752187073609000,2.61060888671875,-0.20137496292591095,0.10208927094936371,-0.05532611161470413
1733752187083583700,2.620583740234375,-0.1881779134273529,0.1466241329908371,-0.038900990039110184
1733752187093559800,2.630559814453125,-0.15832974016666412,0.18690790235996246,-0.036864470690488815
1733752187103535900,2.640535888671875,-0.15150387585163116,0.20210900902748108,-0.04561488330364227
1733752187113511000,2.650510986328125,-0.14789529144763947,0.17970623075962067,-0.04985836520791054
1733752187123486700,2.66048681640625,-0.15644536912441254,0.13327428698539734,-0.052965208888053894
1733752187133462800,2.670462890625,-0.17473383247852325,0.051898207515478134,-0.05360063910484314
1733752187143438800,2.68043896484375,-0.20100906491279602,-0.015100816264748573,-0.059379756450653076
1733752187153414000,2.690413818359375,-0.22642149031162262,-0.019152816385030746,-0.0481734424829483
1733752187163390000,2.700389892578125,-0.25369152426719666,0.044664639979600906,-0.016338029876351357
1733752187173365800,2.71036572265625,-0.2739771008491516,0.13883242011070251,0.007930558174848557
1733752187183340800,2.7203408203125,-0.29845452308654785,0.23433050513267517,0.02307642437517643
1733752187193316600,2.730316650390625,-0.32093533873558044,0.2883383333683014,0.02078796923160553
1733752187203293000,2.74029296875,-0.35563674569129944,0.27371928095817566,0.004707615356892347
1733752187213267700,2.750267822265625,-0.3704841434955597,0.1762409210205078,-0.0336482934653759
1733752187223243800,2.760243896484375,-0.2954978942871094,0.0012659132480621338,-0.09935431182384491
1733752187233219800,2.7702197265625,-0.23484361171722412,-0.13541550934314728,-0.13572563230991364
1733752187243195600,2.780195556640625,-0.2331288605928421,-0.15914280712604523,-0.1283569484949112
1733752187253170700,2.790170654296875,-0.23883281648159027,-0.10505933314561844,-0.0812850371003151
1733752187263146800,2.800146728515625,-0.2520587742328644,-0.020666489377617836,-0.014365147799253464
1733752187273122800,2.810122802734375,-0.26014333963394165,0.06778587400913239,0.02049616351723671
1733752187283097900,2.820097900390625,-0.2587440311908722,0.14232298731803894,0.01559552550315857
1733752187293074000,2.830073974609375,-0.2651313543319702,0.21508240699768066,-0.017762696370482445
1733752187303049700,2.8400498046875,-0.27179181575775146,0.23800766468048096,-0.0451497808098793
1733752187313025800,2.85002587890625,-0.28029823303222656,0.19916784763336182,-0.07411272823810577
1733752187323000800,2.860000732421875,-0.28307533264160156,0.13637642562389374,-0.10747230798006058
1733752187332977000,2.869976806640625,-0.2825128734111786,0.07414926588535309,-0.11977504938840866
1733752187342952700,2.87995263671875,-0.2870750427246094,0.050312500447034836,-0.09047526121139526
1733752187352928000,2.889927978515625,-0.2899557948112488,0.07414752244949341,-0.04328085482120514
1733752187362903800,2.89990380859375,-0.2864459455013275,0.11846515536308289,0.014708802103996277
1733752187372879600,2.909879638671875,-0.2661755681037903,0.16454608738422394,0.038707610219717026
1733752187382856000,2.91985595703125,-0.2433866411447525,0.17904087901115417,0.018730975687503815
1733752187392831000,2.9298310546875,-0.22497673332691193,0.1714005321264267,-0.011242903769016266
1733752187402806800,2.939806884765625,-0.2111077904701233,0.14007030427455902,-0.03547074645757675
1733752187412782800,2.949782958984375,-0.20783662796020508,0.11632450670003891,-0.04382321611046791
1733752187422758000,2.9597578125,-0.20537826418876648,0.12057890743017197,-0.05340101197361946
1733752187432733700,2.969733642578125,-0.20659346878528595,0.13177402317523956,-0.04141252487897873
1733752187442710000,2.9797099609375,-0.21087025105953217,0.12470796704292297,-0.00837723258882761
1733752187452685800,2.989685791015625,-0.22573362290859222,0.09987664967775345,0.015584824606776237
1733752187462660900,2.999660888671875,-0.241069957613945,0.06310353428125381,0.01542641595005989
1733752187472636700,3.00963671875,-0.2620026767253876,0.0257622878998518,0.008728032000362873
1733752187482612700,3.01961279296875,-0.2770923972129822,0.0032302532345056534,0.020657287910580635
1733752187492587800,3.029587890625,-0.28299078345298767,0.0034028259105980396,0.03478003293275833
1733752187502563800,3.039563720703125,-0.27943018078804016,-0.012630777433514595,0.005833693780004978
1733752187512539400,3.049539306640625,-0.26602277159690857,-0.054999805986881256,-0.06459866464138031
1733752187522514400,3.059514404296875,-0.2885492444038391,-0.11703433096408844,-0.11921335756778717
1733752187532490500,3.069490478515625,-0.3256174921989441,-0.14141583442687988,-0.10734152048826218
1733752187542466300,3.07946630859375,-0.3630257546901703,-0.11566518992185593,-0.05486230179667473
1733752187552442600,3.089442626953125,-0.4043723940849304,-0.04852689802646637,0.013294914737343788
1733752187562417400,3.09941748046875,-0.42639002203941345,0.05024286359548569,0.05916803702712059
1733752187572393500,3.1093935546875,-0.4184151887893677,0.14517895877361298,0.08231862634420395
1733752187582369300,3.119369384765625,-0.43117091059684753,0.1593431681394577,0.08445975929498672
1733752187592344600,3.129344482421875,-0.47188320755958557,0.14926551282405853,0.07622020691633224
1733752187602320400,3.1393203125,-0.49611279368400574,0.14033707976341248,0.04695747420191765
1733752187612296400,3.14929638671875,-0.5153689980506897,-0.3892522156238556,-0.12733203172683716
1733752187622271500,3.159271484375,-0.517922043800354,-1.200839877128601,-0.2947668433189392
1733752187632247600,3.16924755859375,-0.5376754999160767,-1.741410732269287,-0.35463792085647583
1733752187642223400,3.179223388671875,-0.5985087752342224,-1.9804561138153076,-0.3530413508415222
1733752187652199400,3.189199462890625,-0.6891169548034668,-1.8652969598770142,-0.2890937924385071
1733752187662174500,3.199174560546875,-0.7635287046432495,-1.1762783527374268,-0.18800118565559387
1733752187672150300,3.209150390625,-0.874894380569458,-0.4142494797706604,0.06179320812225342
1733752187682126600,3.219126708984375,-0.9692600965499878,0.3104172348976135,0.242059126496315
1733752187692101400,3.229101318359375,-1.0173273086547852,0.877646803855896,0.27904486656188965
1733752187702077400,3.239077392578125,-1.0218675136566162,1.214882493019104,0.19931526482105255
1733752187712053500,3.249053466796875,-1.0004713535308838,1.2288882732391357,0.07250113785266876
1733752187722029600,3.259029541015625,-0.9676828980445862,0.8667274713516235,-0.03486766293644905
1733752187732004400,3.26900439453125,-0.9446539878845215,0.32390648126602173,-0.11506077647209167
1733752187741980700,3.278980712890625,-0.9496193528175354,-0.1203342005610466,-0.16905981302261353
1733752187751956500,3.28895654296875,-0.9236029386520386,-0.33506646752357483,-0.1479302942752838
1733752187761931500,3.298931640625,-0.8128729462623596,-0.2923004925251007,-0.0685289204120636
1733752187771907300,3.3089072265625,-0.5556358098983765,-0.2328512966632843,0.0797063484787941
1733752187781883400,3.31888330078125,-0.2374705970287323,-0.3015911281108856,0.21947549283504486
1733752187791858400,3.3288583984375,-0.012283826246857643,-0.3179493248462677,0.2074262797832489
1733752187801834200,3.338834228515625,0.12189439684152603,-0.23437918722629547,0.0340324304997921
1733752187811810600,3.348810546875,0.26876533031463623,-0.113334521651268,-0.13393926620483398
1733752187821786400,3.358786376953125,0.4644067883491516,0.01671176590025425,-0.1742485910654068
1733752187831761400,3.368761474609375,0.6740965843200684,0.14513897895812988,-0.1156044527888298
1733752187841737500,3.378737548828125,0.7507009506225586,0.5163353085517883,-0.021934399381279945
1733752187851713500,3.388713623046875,0.41232022643089294,0.8424177765846252,0.08009476214647293
1733752187861688300,3.398688232421875,0.11113403737545013,0.4185173809528351,0.10373131930828094
1733752187871664600,3.40866455078125,0.0065085627138614655,0.37480372190475464,0.08083666115999222
1733752187881640400,3.418640380859375,-0.08994694799184799,0.4392370879650116,-0.0191509872674942
1733752187891616300,3.4286162109375,-0.178397998213768,0.34556281566619873,-0.09538956731557846
1733752187901591600,3.438591552734375,-0.28232139348983765,0.26312556862831116,-0.019252972677350044
1733752187911567400,3.4485673828125,-0.5290965437889099,0.44717875123023987,0.14555169641971588
1733752187921543400,3.45854345703125,-0.6864490509033203,0.751713216304779,0.21286769211292267
1733752187931518500,3.4685185546875,-0.6792914867401123,0.8382070660591125,0.12206082791090012
1733752187941494500,3.47849462890625,-0.647520124912262,0.7000181078910828,-0.030276702716946602
1733752187951470300,3.48847021484375,-0.5681086778640747,0.48694926500320435,-0.13542789220809937
1733752187961445400,3.4984453125,-0.5142108798027039,0.2330230176448822,-0.17180678248405457
1733752187971421400,3.50842138671875,-0.504189133644104,-0.0006387438625097275,-0.16224630177021027
1733752187981397500,3.5183974609375,-0.5163012146949768,0.018752925097942352,-0.06792089343070984
1733752187991373600,3.52837353515625,-0.5672640204429626,0.33002400398254395,0.07472068071365356
1733752188001348600,3.5383486328125,-0.6649105548858643,0.6283711194992065,0.16117921471595764
1733752188011324400,3.548324462890625,-0.7611236572265625,0.8081424832344055,0.18947742879390717
1733752188021300500,3.558300537109375,-0.7543013691902161,0.8356714248657227,0.13629499077796936
1733752188031275500,3.568275634765625,-0.7371453046798706,0.8156418204307556,-0.013088379986584187
1733752188041251300,3.578251220703125,-0.6922883987426758,0.842066764831543,-0.15458650887012482
1733752188051227400,3.588227294921875,-0.6538592576980591,0.7943365573883057,-0.24891513586044312
1733752188061202400,3.598202392578125,-0.7153924703598022,0.6979039311408997,-0.26070183515548706
1733752188071178500,3.608178466796875,-0.7997267842292786,0.7167719006538391,-0.1654653400182724
1733752188081154300,3.618154296875,-0.8255438804626465,0.7886258959770203,-0.032187774777412415
1733752188091130400,3.62813037109375,-0.8747215270996094,0.7294626832008362,0.061502501368522644
1733752188101105400,3.63810546875,-0.9317764043807983,0.711819052696228,0.11895707994699478
1733752188111081500,3.64808154296875,-0.9928717613220215,0.7346684336662292,0.13376452028751373
1733752188121057500,3.6580576171875,-1.0315903425216675,0.7658127546310425,0.12414605170488358
1733752188131032600,3.668032470703125,-1.050534725189209,0.8116939663887024,0.06430082768201828
1733752188141008400,3.67800830078125,-1.025622844696045,0.8357669115066528,-0.035510849207639694
1733752188150984400,3.687984375,-0.9623014330863953,0.8322843313217163,-0.08450236171483994
1733752188160960500,3.69796044921875,-0.8895421624183655,0.7738121151924133,-0.054727889597415924
1733752188170935300,3.707935302734375,-0.8468170762062073,0.7533103227615356,0.025776805356144905
1733752188180911600,3.71791162109375,-0.8411135673522949,0.7840927243232727,0.09191514551639557
1733752188190887400,3.727887451171875,-0.8889726996421814,0.8434329628944397,0.11939310282468796
1733752188200862500,3.737862548828125,-0.9260424375534058,0.8462541699409485,0.10990159958600998
1733752188210838500,3.747838623046875,-0.9487703442573547,0.7384376525878906,0.08661092072725296
1733752188220814600,3.757814697265625,-0.9464715719223022,0.60138338804245,0.046163395047187805
1733752188230789400,3.767789306640625,-0.9355840086936951,0.5382768511772156,-0.0382809117436409
1733752188240765400,3.777765380859375,-0.9456461071968079,0.5065911412239075,-0.1483791023492813
1733752188250741500,3.787741455078125,-0.9104676246643066,0.5124937891960144,-0.2365686148405075
1733752188260717300,3.79771728515625,-0.8616154193878174,0.5494534969329834,-0.26383861899375916
1733752188270692400,3.8076923828125,-0.8728765845298767,0.6165428161621094,-0.22710642218589783
1733752188280668400,3.81766845703125,-0.9190245866775513,0.7427997589111328,-0.10668155550956726
1733752188290644500,3.82764453125,-0.9509393572807312,0.7115206122398376,0.055349159985780716
1733752188300619300,3.837619384765625,-0.9695400595664978,0.6139687299728394,0.14853358268737793
1733752188310595600,3.847595703125,-0.9559083580970764,0.5047972202301025,0.1355496048927307
1733752188320571400,3.8575712890625,-0.9533426761627197,0.44182300567626953,0.06961975246667862
1733752188330547500,3.86754736328125,-0.9789079427719116,0.4604147970676422,0.02065247669816017
1733752188340522500,3.8775224609375,-1.029310703277588,0.4714460074901581,0.003665660275146365
1733752188350498600,3.88749853515625,-1.079596996307373,0.5137689709663391,-0.01572881080210209
1733752188360474400,3.897474365234375,-1.0843114852905273,0.55833899974823,-0.033783022314310074
1733752188370449700,3.90744970703125,-1.0527958869934082,0.5872119665145874,-0.06149054691195488
1733752188380425500,3.917425537109375,-0.939362645149231,0.5426018834114075,-0.06633830070495605
1733752188390401300,3.9274013671875,-0.8304944634437561,0.4491419494152069,-0.05325578898191452
1733752188400376300,3.937376220703125,-0.8215609788894653,0.35668322443962097,-0.034259114414453506
1733752188410352400,3.947352294921875,-0.8110279440879822,0.23498235642910004,-0.018898801878094673
1733752188420328400,3.957328369140625,-0.7922605276107788,0.12337406724691391,-0.0034857261925935745
1733752188430304500,3.967304443359375,-0.775653064250946,0.01572670415043831,0.0017346020322293043
1733752188440279600,3.977279541015625,-0.7994892001152039,-0.00403678510338068,-0.012678316794335842
1733752188450255400,3.98725537109375,-0.8306241631507874,0.04667672514915466,-0.022500054910779
1733752188460231400,3.9972314453125,-0.8453356027603149,0.09433149546384811,-0.02086128480732441
1733752188470206500,4.00720654296875,-0.8497931957244873,0.13564617931842804,-0.04025255888700485
1733752188480182500,4.0171826171875,-0.8578119874000549,0.18468080461025238,-0.08209788799285889
1733752188490158600,4.02715869140625,-0.8652834296226501,0.24019812047481537,-0.1032140925526619
1733752188500133600,4.037133544921875,-0.8381606340408325,0.2970491945743561,-0.0688178613781929
1733752188510109400,4.047109375,-0.7906581163406372,0.3552573621273041,0.00538552924990654
1733752188520086000,4.0570859375,-0.7306385636329651,0.401973694562912,0.11182098090648651
1733752188530062000,4.06706201171875,-0.6994657516479492,0.4099472165107727,0.20305289328098297
1733752188540037000,4.077037109375,-0.6894029378890991,0.3583168387413025,0.2857488691806793
1733752188550013200,4.08701318359375,-0.6853679418563843,0.2844404876232147,0.3155302107334137
1733752188559989000,4.096989013671875,-0.6996268630027771,0.22505751252174377,0.2665671706199646
1733752188569964300,4.10696435546875,-0.7437290549278259,0.1287725269794464,0.18115584552288055
1733752188579940000,4.116940185546875,-0.7603940367698669,0.023557189851999283,0.08666197955608368
1733752188589916000,4.126916015625,-0.7712059617042542,-0.061220280826091766,-0.009114081040024757
1733752188599892200,4.136892333984375,-0.8036230802536011,-0.07308649271726608,-0.08350055664777756
1733752188609867000,4.146866943359375,-0.8360856771469116,-0.04552197828888893,-0.12652498483657837
1733752188619843000,4.156843017578125,-0.8790116906166077,0.0316956490278244,-0.12397900968790054
1733752188629819100,4.166819091796875,-0.8436869978904724,0.11913494765758514,-0.06584859639406204
1733752188639794200,4.176794189453125,-0.806006908416748,0.2131694257259369,0.07318807393312454
1733752188649770000,4.18677001953125,-0.7737483382225037,0.29210445284843445,0.2466522604227066
1733752188659746000,4.19674609375,-0.7590324878692627,0.376667857170105,0.36868804693222046
1733752188669721000,4.20672119140625,-0.736660361289978,0.41763126850128174,0.3907853662967682
1733752188679697200,4.216697265625,-0.6991578936576843,0.3583943843841553,0.338945209980011
1733752188689673000,4.2266728515625,-0.7415186762809753,0.1905531883239746,0.2426769882440567
1733752188699649000,4.23664892578125,-0.7889927625656128,0.13035407662391663,0.14816446602344513
1733752188709624000,4.2466240234375,-0.8183202743530273,-0.002621819730848074,0.06743048131465912
1733752188719599900,4.256599853515625,-0.8502382040023804,-0.11091886460781097,0.016355326399207115
1733752188729576200,4.266576171875,-0.8547850251197815,-0.15732283890247345,0.0017851715674623847
1733752188739551000,4.276551025390625,-0.8443604111671448,-0.1562073826789856,0.020541533827781677
1733752188749527000,4.286527099609375,-0.826113760471344,-0.07443688809871674,0.056216441094875336
1733752188759503000,4.296503173828125,-0.7959384322166443,0.0028143106028437614,0.10581203550100327
1733752188769478100,4.30647802734375,-0.7645448446273804,0.0590490885078907,0.14653736352920532
1733752188779454000,4.316453857421875,-0.7371228933334351,0.11569401621818542,0.1838611215353012
1733752188789430000,4.326429931640625,-0.7141259908676147,0.17537811398506165,0.21687740087509155
1733752188799406000,4.336406005859375,-0.6890162825584412,0.17851869761943817,0.235133558511734
1733752188809381000,4.346381103515625,-0.6911859512329102,0.17891311645507812,0.2255949079990387
1733752188819357200,4.356357177734375,-0.7236366271972656,0.1311621218919754,0.16292788088321686
1733752188829333000,4.3663330078125,-0.7328535318374634,0.031639255583286285,0.0795203372836113
1733752188839308000,4.37630810546875,-0.7414441108703613,-0.10643257945775986,0.028022585436701775
1733752188849284000,4.3862841796875,-0.7670661211013794,-0.18484190106391907,0.029724346473813057
1733752188859260200,4.39626025390625,-0.8121817111968994,-0.19055594503879547,0.0818721130490303
1733752188869236000,4.406236083984375,-0.8565033674240112,-0.12637722492218018,0.12335777282714844
1733752188879211000,4.4162109375,-0.8827708959579468,-0.04104744642972946,0.1521328240633011
1733752188889187000,4.42618701171875,-0.8761268258094788,0.0028419801965355873,0.1684923619031906
1733752188899163000,4.436162841796875,-0.8353163003921509,0.0551198348402977,0.168971985578537
1733752188909138000,4.446137939453125,-0.8019125461578369,0.08119644224643707,0.16287600994110107
1733752188919114200,4.4561142578125,-0.8016265630722046,0.1284012645483017,0.15482008457183838
1733752188929090000,4.466090087890625,-0.8181607723236084,0.17610114812850952,0.15496815741062164
1733752188939065000,4.476065185546875,-0.8261758089065552,0.17216722667217255,0.14709916710853577
1733752188949041200,4.486041259765625,-0.8123151063919067,0.17172807455062866,0.14755190908908844
1733752188959017000,4.496016845703125,-0.79958176612854,0.15786251425743103,0.1547781527042389
1733752188968993000,4.505992919921875,-0.7839253544807434,0.09823674708604813,0.15036103129386902
1733752188978968000,4.515968017578125,-0.775250256061554,0.046173516660928726,0.13405278325080872
1733752188988944100,4.525944091796875,-0.7673907279968262,0.03343695029616356,0.11324124783277512
1733752188998920000,4.535919921875,-0.7476139068603516,0.07809685915708542,0.09415262192487717
1733752189008895200,4.545895263671875,-0.7133353352546692,0.11178930848836899,0.06856230646371841
1733752189018871000,4.55587109375,-0.671242356300354,0.11324374377727509,0.031461358070373535
1733752189028847000,4.56584716796875,-0.6587507724761963,0.05858929082751274,0.005644406657665968
1733752189038822100,4.575822265625,-0.6470358967781067,0.0035075240302830935,-0.008257043547928333
1733752189048798200,4.585798095703125,-0.7136204838752747,0.05716649070382118,-0.03529904782772064
1733752189058774000,4.59577392578125,-0.7454279661178589,0.12667039036750793,-0.08386556804180145
1733752189068749000,4.6057490234375,-0.7241964340209961,0.1303064078092575,-0.10036438703536987
1733752189078725000,4.61572509765625,-0.6773319244384766,0.0985247790813446,-0.07384539395570755
1733752189088701000,4.625700927734375,-0.6342307925224304,0.0910239890217781,-0.005180044565349817
1733752189098677200,4.63567724609375,-0.5829925537109375,0.0619116835296154,0.0689271092414856
1733752189108652000,4.645652099609375,-0.6159275770187378,0.09534686803817749,0.10530561953783035
1733752189118628000,4.655628173828125,-0.6150029897689819,0.08377398550510406,0.09901048988103867
1733752189128604200,4.665604248046875,-0.6388164758682251,-0.007945548743009567,0.08267093449831009
1733752189138579200,4.6755791015625,-0.6747153401374817,-0.09333565831184387,0.05235520377755165
1733752189148555000,4.685554931640625,-0.6980686187744141,-0.10163886100053787,0.009132364764809608
1733752189158531000,4.695531005859375,-0.7102372646331787,-0.056052424013614655,-0.0320601761341095
1733752189168507100,4.705507080078125,-0.7176719903945923,0.022515887394547462,-0.045346684753894806
1733752189178482200,4.715482177734375,-0.7171657681465149,0.11239917576313019,-0.04103156551718712
1733752189188458000,4.7254580078125,-0.708200216293335,0.19527567923069,-0.02364351972937584
1733752189198434000,4.73543408203125,-0.679097056388855,0.2568356692790985,-0.006507315672934055
1733752189208409000,4.7454091796875,-0.6370172500610352,0.23667606711387634,0.03999520465731621
1733752189218385000,4.755385009765625,-0.5983538031578064,0.1642013043165207,0.09542686492204666
1733752189228361200,4.765361328125,-0.5560625195503235,0.1330319344997406,0.11426180601119995
1733752189238336000,4.7753359375,-0.5146961808204651,0.09579039365053177,0.11332081258296967
1733752189248312000,4.78531201171875,-0.4699569642543793,0.06296373903751373,0.11525240540504456
1733752189258288000,4.7952880859375,-0.4318491816520691,0.0027274135500192642,0.09833888709545135
1733752189268264000,4.805263916015625,-0.3890779912471771,-0.0888107568025589,0.05856191739439964
1733752189278239000,4.815239013671875,-0.3477031886577606,-0.1411849707365036,-0.011603386141359806
1733752189288215000,4.825215087890625,-0.3374284505844116,-0.18022264540195465,-0.07395464181900024
1733752189298191000,4.835191162109375,-0.3306635916233063,-0.22317785024642944,-0.09304368495941162
1733752189308166100,4.845166259765625,-0.3368935286998749,-0.26773491501808167,-0.09239813685417175
1733752189318142200,4.85514208984375,-0.3440473973751068,-0.2670830190181732,-0.12284169346094131
1733752189328118000,4.865117919921875,-0.3354874849319458,-0.20377729833126068,-0.14253364503383636
1733752189338093000,4.875093017578125,-0.335665225982666,-0.14302533864974976,-0.1128045916557312
1733752189348068900,4.88506884765625,-0.34012681245803833,-0.06614255160093307,-0.07227926701307297
1733752189358045200,4.895045166015625,-0.36151599884033203,-0.0015302685787901282,-0.05344299226999283
1733752189368021000,4.90502099609375,-0.34806010127067566,0.04634564369916916,-0.04868712276220322
1733752189377996000,4.91499609375,-0.33132198452949524,0.058595720678567886,-0.03788425400853157
1733752189387972000,4.92497216796875,-0.3112044632434845,0.06302988529205322,-0.040559135377407074
1733752189397948000,4.934947998046875,-0.29196956753730774,0.10806378722190857,-0.04041888192296028
1733752189407923000,4.9449228515625,-0.26844239234924316,0.11081989109516144,-0.0341402143239975
1733752189417899000,4.95489892578125,-0.23317216336727142,0.06480064243078232,-0.0056412736885249615
1733752189427875000,4.964875,-0.19253072142601013,0.04218188673257828,0.019534120336174965
1733752189437850000,4.97485009765625,-0.18147778511047363,0.04532476142048836,0.03339112922549248
1733752189447826200,4.984826171875,-0.1848331093788147,0.0352468267083168,0.026804599910974503
1733752189457802000,4.994802001953125,-0.18553319573402405,0.00988025963306427,0.017011795192956924
1733752189467778000,5.004778076171875,-0.15299229323863983,-0.02170083485543728,0.013064723461866379
1733752189477753000,5.014753173828125,-0.12375446408987045,-0.028043095022439957,0.012458022683858871
1733752189487729200,5.024729248046875,-0.11739989370107651,0.0027089593932032585,0.016705498099327087
1733752189497705000,5.034705078125,-0.1094842255115509,0.010977482423186302,0.016490880399942398
1733752189507680300,5.04468017578125,-0.1022564023733139,0.0005245755892246962,0.007403376512229443
1733752189517656000,5.054656005859375,-0.09389398992061615,-0.007185153663158417,-0.0008242391049861908
1733752189527632000,5.0646318359375,-0.10365127772092819,0.017238697037100792,0.0004386318614706397
1733752189537608200,5.074608154296875,-0.11644427478313446,0.055610205978155136,0.03151113912463188
1733752189547583000,5.0845830078125,-0.1146136224269867,0.1151702031493187,0.08787987381219864
1733752189557559000,5.09455908203125,-0.10426268726587296,0.18958821892738342,0.125855952501297
1733752189567535000,5.10453515625,-0.09592166543006897,0.24200908839702606,0.14692847430706024
1733752189577510100,5.11451025390625,-0.0847361609339714,0.2428363859653473,0.13006632030010223
1733752189587486000,5.12448583984375,-0.07909052073955536,0.20999588072299957,0.09240762144327164
1733752189597462300,5.134462158203125,-0.08173488080501556,0.17315174639225006,0.044710271060466766
1733752189607437000,5.14443701171875,-0.06775595247745514,0.14889167249202728,0.048196081072092056
1733752189617413000,5.1544130859375,-0.045616306364536285,0.11616551876068115,0.09630087018013
1733752189627389000,5.164388916015625,-0.03078436106443405,0.10610383003950119,0.14314879477024078
1733752189637365000,5.174364990234375,-0.032196979969739914,0.1122102364897728,0.17788808047771454
1733752189647340000,5.184340087890625,-0.039059415459632874,0.10666660219430923,0.19969910383224487
1733752189657316000,5.194316162109375,-0.03350858762860298,0.07494010031223297,0.1855987310409546
1733752189667292200,5.204292236328125,-0.03096793405711651,0.04340720549225807,0.11712459474802017
1733752189677267200,5.21426708984375,-0.026295140385627747,0.03661604970693588,0.027939746156334877
1733752189687243000,5.224242919921875,-0.03267314285039902,0.040114112198352814,-0.04746100306510925
1733752189697219000,5.234218994140625,-0.032018449157476425,0.039693985134363174,-0.08869050443172455
1733752189707194000,5.244194091796875,-0.01399897038936615,0.06539402157068253,-0.07983443140983582
1733752189717170000,5.254169921875,0.023066777735948563,0.057367611676454544,-0.03525596857070923
1733752189727146200,5.264146240234375,0.059606414288282394,0.05759584531188011,0.013572292402386665
1733752189737122000,5.2741220703125,0.09134893119335175,0.04172132909297943,0.06140982359647751
1733752189747097000,5.28409716796875,0.10109850019216537,0.004489807412028313,0.10022991895675659
1733752189757073200,5.2940732421875,0.11111798137426376,-0.03581918030977249,0.08176257461309433
1733752189767049000,5.304049072265625,0.10697384178638458,-0.0587250292301178,0.019450999796390533
1733752189777024000,5.31402392578125,0.0994349867105484,-0.09136021882295609,-0.058064889162778854
1733752189787000000,5.324,0.07944423705339432,-0.10882256925106049,-0.11248072981834412
1733752189796976000,5.33397607421875,0.04466452822089195,-0.11687026917934418,-0.1283453106880188
1733752189806951200,5.343951171875,0.024041542783379555,-0.07864885032176971,-0.1148044615983963
1733752189816927000,5.353927001953125,0.031196972355246544,-0.013154296204447746,-0.07074180990457535
1733752189826903000,5.363903076171875,0.05223621055483818,0.0439784973859787,-0.010905638337135315
1733752189836879000,5.373879150390625,0.06172957271337509,0.10807608813047409,0.033109601587057114
1733752189846854000,5.38385400390625,0.05342397093772888,0.13316358625888824,0.05229181796312332
1733752189856830200,5.393830322265625,0.03539717197418213,0.11043679714202881,0.04277694970369339
1733752189866806000,5.403805908203125,0.020874954760074615,0.0816488191485405,-0.007601000368595123
1733752189876781000,5.413781005859375,0.02454563044011593,0.06299247592687607,-0.06997878849506378
1733752189886757000,5.423757080078125,0.03251007944345474,0.04849555715918541,-0.10795760154724121
1733752189896733000,5.43373291015625,0.03880995512008667,0.043831534683704376,-0.12268473207950592
1733752189906709000,5.443708984375,0.030049752444028854,0.03508757799863815,-0.12396171689033508
1733752189916684000,5.45368408203125,0.02074400708079338,-0.009353037923574448,-0.11457984894514084
1733752189926660000,5.46366015625,0.0134541355073452,-0.022768978029489517,-0.10778399556875229
1733752189936636000,5.473635986328125,0.02025926113128662,0.002507651224732399,-0.09145548194646835
1733752189946611200,5.483611083984375,0.02698374353349209,0.0058989208191633224,-0.05380583927035332
1733752189956587000,5.4935869140625,0.0432746447622776,0.011659020557999611,-0.018735142424702644
1733752189966563000,5.50356298828125,0.06144645810127258,0.0339193195104599,0.003335273591801524
1733752189976538000,5.5135380859375,0.08582703024148941,0.07059415429830551,0.02695317193865776
1733752189986514200,5.52351416015625,0.10939094424247742,0.1101761907339096,0.03487927466630936
1733752189996490000,5.533489990234375,0.1305333524942398,0.1282799243927002,0.042486995458602905
1733752190006466000,5.543466064453125,0.14702977240085602,0.13989025354385376,0.04865727573633194
1733752190016441000,5.553441162109375,0.14280849695205688,0.14990152418613434,0.04241161048412323
1733752190026417000,5.5634169921875,0.1182597428560257,0.12749502062797546,0.03675186261534691
1733752190036393200,5.573393310546875,0.09509886801242828,0.07977244257926941,0.03485090285539627
1733752190046368000,5.583367919921875,0.07339677214622498,0.05111096799373627,0.02852323092520237
1733752190056344000,5.593343994140625,0.05551152676343918,0.05239371582865715,0.025553962215781212
1733752190066320100,5.603320068359375,0.04113604873418808,0.0818709209561348,0.008497482165694237
1733752190076296200,5.613296142578125,0.04089435189962387,0.09404503554105759,-0.01337263360619545
1733752190086271000,5.62327099609375,0.0799059346318245,0.057017240673303604,-0.01602780446410179
1733752190096247000,5.6332470703125,0.11309310793876648,0.015071344561874866,0.0003081191098317504
1733752190106223000,5.64322314453125,0.13384632766246796,0.013537629507482052,0.026793789118528366
1733752190116198100,5.6531982421875,0.14359909296035767,0.01545590441673994,0.07155326753854752
1733752190126174000,5.663174072265625,0.14169944822788239,0.018027188256382942,0.11224823445081711
1733752190136150000,5.67314990234375,0.1283169388771057,0.03588732331991196,0.11358638852834702
1733752190146125000,5.683125,0.1065964624285698,0.06714963912963867,0.08148811012506485
1733752190156100900,5.693100830078125,0.09980415552854538,0.10440445691347122,0.04111507907509804
1733752190166077200,5.7030771484375,0.10082494467496872,0.11246558278799057,0.012334298342466354
1733752190176053000,5.713052978515625,0.10201124101877213,0.09152089059352875,-0.003989784047007561
1733752190186028000,5.723028076171875,0.10068818181753159,0.053701337426900864,0.0057648420333862305
1733752190196004000,5.733004150390625,0.09173405170440674,0.03462515026330948,0.008547188714146614
1733752190205980200,5.742980224609375,0.09581534564495087,0.010954976081848145,-0.014832702465355396
1733752190215955000,5.752954833984375,0.1218513622879982,-0.02435900643467903,-0.04764178395271301
1733752190225931300,5.76293115234375,0.14273986220359802,-0.04302803426980972,-0.07861194759607315
1733752190235907000,5.772906982421875,0.16355198621749878,-0.06417204439640045,-0.08972468972206116
1733752190245883000,5.7828828125,0.18298134207725525,-0.06905920803546906,-0.09291435778141022
1733752190255858000,5.79285791015625,0.19462020695209503,-0.04664430767297745,-0.0920429602265358
1733752190265834000,5.802833984375,0.1991819441318512,-0.015061617828905582,-0.0835256353020668
1733752190275810000,5.81281005859375,0.1932406723499298,0.0005465587601065636,-0.07381553202867508
1733752190285784800,5.822784912109375,0.18797427415847778,0.018221158534288406,-0.06846524029970169
1733752190295761200,5.83276123046875,0.17746791243553162,0.04474006965756416,-0.072756327688694
1733752190305737000,5.842737060546875,0.17851880192756653,0.054497625678777695,-0.08975128829479218
1733752190315712000,5.8527119140625,0.19573630392551422,0.049546077847480774,-0.12336409837007523
1733752190325688000,5.86268798828125,0.21712201833724976,0.01673194020986557,-0.16293014585971832
1733752190335664000,5.8726640625,0.2604813575744629,-0.03781628608703613,-0.2078641802072525
1733752190345640200,5.88264013671875,0.3070928156375885,-0.08618248254060745,-0.2444610744714737
1733752190355615200,5.892615234375,0.3544979989528656,-0.14411456882953644,-0.26830944418907166
1733752190365591000,5.902591064453125,0.41204357147216797,-0.1819855123758316,-0.2921687066555023
1733752190375566800,5.91256689453125,0.47446751594543457,-0.19816365838050842,-0.3049989342689514
1733752190385542100,5.922542236328125,0.5301395654678345,-0.18851689994335175,-0.3111995756626129
1733752190395518000,5.93251806640625,0.5416567325592041,-0.1330423802137375,-0.30488044023513794
1733752190405494000,5.942493896484375,0.5450602173805237,-0.07595166563987732,-0.28397196531295776
1733752190415470000,5.952469970703125,0.5434315204620361,-0.054543640464544296,-0.2759970724582672
1733752190425445000,5.962445068359375,0.5292110443115234,-0.051355037838220596,-0.28171592950820923
1733752190435421000,5.9724208984375,0.5122381448745728,-0.0674748569726944,-0.2934688627719879
1733752190445397200,5.982397216796875,0.5113059878349304,-0.09090641140937805,-0.30972880125045776
1733752190455372000,5.9923720703125,0.5310147404670715,-0.08752322196960449,-0.3210340142250061
1733752190465348000,6.00234814453125,0.564816951751709,-0.07064090669155121,-0.3356070816516876
1733752190475324200,6.01232421875,0.6467113494873047,-0.06977222114801407,-0.33972421288490295
1733752190485299200,6.02229931640625,0.7297691702842712,-0.08656585216522217,-0.31534668803215027
1733752190495275000,6.03227490234375,0.7734120488166809,-0.07328905165195465,-0.2759156823158264
1733752190505251000,6.0422509765625,0.7775309085845947,-0.04175403714179993,-0.24003303050994873
1733752190515227100,6.05222705078125,0.7665966153144836,-0.07111690193414688,-0.20460093021392822
1733752190525202200,6.0622021484375,0.7610665559768677,-0.1383369415998459,-0.18629862368106842
1733752190535178200,6.07217822265625,0.7396398186683655,-0.2078104317188263,-0.1990027129650116
1733752190545154000,6.082154052734375,0.7070003747940063,-0.26126885414123535,-0.23202644288539886
1733752190555129300,6.09212939453125,0.673213005065918,-0.28445470333099365,-0.2624746859073639
1733752190565105200,6.102105224609375,0.6509273648262024,-0.2879825830459595,-0.2895374596118927
1733752190575081200,6.112081298828125,0.656166672706604,-0.29195404052734375,-0.3053751587867737
1733752190585057300,6.122057373046875,0.6751307845115662,-0.31476882100105286,-0.28657591342926025
1733752190595032300,6.1320322265625,0.6887108087539673,-0.34627294540405273,-0.24919258058071136
1733752190605008100,6.142008056640625,0.6874244809150696,-0.3864344656467438,-0.22129970788955688
1733752190614984200,6.151984130859375,0.6893036961555481,-0.37881043553352356,-0.2017083615064621
1733752190624959200,6.161959228515625,0.6921167969703674,-0.33227968215942383,-0.15985357761383057
1733752190634935000,6.17193505859375,0.7064960598945618,-0.31825682520866394,-0.10908794403076172
1733752190644911400,6.181911376953125,0.7041263580322266,-0.2844248414039612,-0.09121759980916977
1733752190654886100,6.19188623046875,0.7044614553451538,-0.23427321016788483,-0.09223449230194092
1733752190664862200,6.2018623046875,0.6965172290802002,-0.20005078613758087,-0.0930643230676651
1733752190674838300,6.21183837890625,0.6847990155220032,-0.1517203450202942,-0.07806219905614853
1733752190684814300,6.221814453125,0.6656674146652222,-0.0759107917547226,-0.06619808077812195
1733752190694789000,6.2317890625,0.6711685061454773,-0.018458299338817596,-0.05850798264145851
1733752190704765200,6.24176513671875,0.6856750249862671,-0.019895607605576515,-0.03489319980144501
1733752190714741200,6.2517412109375,0.6944943070411682,-0.04772092401981354,-0.00815697479993105
1733752190724716300,6.26171630859375,0.7019519805908203,-0.06995140016078949,0.0037343057338148355
1733752190734692000,6.271692138671875,0.7212430834770203,-0.10906264185905457,-0.009657898917794228
1733752190744668200,6.281668212890625,0.7085379362106323,-0.16346649825572968,-0.02838737890124321
1733752190754644200,6.291644287109375,0.7375026345252991,-0.2219567447900772,-0.04777109995484352
1733752190764619000,6.301618896484375,0.7448801398277283,-0.2714662253856659,-0.07532709836959839
1733752190774595300,6.31159521484375,0.7813094258308411,-0.320535272359848,-0.12177593261003494
1733752190784571100,6.321571044921875,0.7863960266113281,-0.3518633544445038,-0.15011729300022125
1733752190794546200,6.331546142578125,0.768486738204956,-0.33076950907707214,-0.1854756772518158
1733752190804522200,6.341522216796875,0.7863083481788635,-0.2956394851207733,-0.20289620757102966
1733752190814498300,6.351498291015625,0.78900146484375,-0.2863560914993286,-0.19419676065444946
1733752190824473000,6.36147314453125,0.8080950379371643,-0.29666706919670105,-0.16139593720436096
1733752190834449400,6.371449462890625,0.810997486114502,-0.3097638189792633,-0.1224096268415451
1733752190844425200,6.38142529296875,0.7982638478279114,-0.3133236765861511,-0.10305803269147873
1733752190854401000,6.391401123046875,0.7213709354400635,-0.25406184792518616,-0.11828560382127762
1733752190864376300,6.401376220703125,0.6837388873100281,-0.19729310274124146,-0.14354170858860016
1733752190874352000,6.41135205078125,0.6769598722457886,-0.20997032523155212,-0.1463312953710556
1733752190884328200,6.421328125,0.7084720134735107,-0.2391231507062912,-0.1623331606388092
1733752190894303000,6.431302978515625,0.737427294254303,-0.2564324736595154,-0.18737280368804932
1733752190904279300,6.441279296875,0.8064383268356323,-0.25591981410980225,-0.21573147177696228
1733752190914255000,6.451255126953125,0.971240222454071,-0.31249552965164185,-0.24166569113731384
1733752190924231200,6.461231201171875,1.1505860090255737,-0.4300304353237152,-0.23643897473812103
1733752190934206200,6.471206298828125,1.1989251375198364,-0.46429893374443054,-0.2186027616262436
1733752190944182300,6.481182373046875,1.190003514289856,-0.3956027030944824,-0.2221175879240036
1733752190954158300,6.491158447265625,1.17057466506958,-0.39538687467575073,-0.2506997883319855
1733752190964133400,6.50113330078125,1.1617755889892578,-0.5135944485664368,-0.26994672417640686
1733752190974109200,6.511109130859375,1.1214348077774048,-0.5892958641052246,-0.2692866921424866
1733752190984085000,6.5210849609375,1.0184352397918701,-0.5562753081321716,-0.24782004952430725
1733752190994060300,6.531060302734375,0.9675176739692688,-0.47435975074768066,-0.2267351597547531
1733752191004036000,6.5410361328125,0.935977578163147,-0.44800350069999695,-0.1849333792924881
1733752191014012200,6.55101220703125,0.9314144253730774,-0.46170684695243835,-0.1522916704416275
1733752191023988200,6.56098828125,0.9685596823692322,-0.5058108568191528,-0.14838214218616486
1733752191033963300,6.57096337890625,1.0628875494003296,-0.5538612008094788,-0.16036076843738556
1733752191043939000,6.58093896484375,1.1943587064743042,-0.5615207552909851,-0.16241620481014252
1733752191053915100,6.5909150390625,1.2485450506210327,-0.4267309308052063,-0.14731928706169128
1733752191063890200,6.60089013671875,1.232154130935669,-0.22306117415428162,-0.12835784256458282
1733752191073866200,6.6108662109375,1.215625286102295,-0.0733579471707344,-0.11110932379961014
1733752191083842300,6.62084228515625,1.1912448406219482,-0.03355460613965988,-0.08721837401390076
1733752191093817300,6.6308173828125,1.136276364326477,-0.0788145363330841,-0.06505119800567627
1733752191103793200,6.640793212890625,1.0787733793258667,-0.19206120073795319,-0.06219788268208504
1733752191113769200,6.650769287109375,1.0482456684112549,-0.3836421072483063,-0.09777617454528809
1733752191123745300,6.660745361328125,1.1137282848358154,-0.5792294144630432,-0.12113528698682785
1733752191133720000,6.670719970703125,1.1976821422576904,-0.7416201829910278,-0.12324298918247223
1733752191143696100,6.680696044921875,1.2514766454696655,-0.8118591904640198,-0.1017179861664772
1733752191153672200,6.690672119140625,1.317812204360962,-0.7660013437271118,-0.07512899488210678
1733752191163647200,6.700647216796875,1.3555818796157837,-0.6558924317359924,-0.03791690617799759
1733752191173623000,6.710623046875,1.3780910968780518,-0.484718918800354,-0.003949491772800684
1733752191183599400,6.720599365234375,1.3613718748092651,-0.3190292716026306,0.03472626581788063
1733752191193574100,6.73057421875,1.2796452045440674,-0.19909077882766724,0.0748695358633995
1733752191203550200,6.74055029296875,1.1296945810317993,-0.13365772366523743,0.09729254990816116
1733752191213526300,6.7505263671875,1.0602197647094727,-0.13533151149749756,0.1004478931427002
1733752191223502000,6.760502197265625,1.0364981889724731,-0.2429911345243454,0.11912970244884491
1733752191233477000,6.77047705078125,1.0140130519866943,-0.3861955404281616,0.13422413170337677
1733752191243453200,6.780453125,1.0130733251571655,-0.4479571580886841,0.14445066452026367
1733752191253429200,6.79042919921875,1.0450890064239502,-0.4513588845729828,0.15937425196170807
1733752191263404000,6.800404052734375,1.0850980281829834,-0.4856255054473877,0.18145504593849182
1733752191273380400,6.81038037109375,1.1157788038253784,-0.3898175060749054,0.20356924831867218
1733752191283356200,6.820356201171875,1.0666784048080444,-0.1945532113313675,0.19620613753795624
1733752191293331200,6.830331298828125,0.9615814089775085,-0.09847550839185715,0.18625913560390472
1733752191303307300,6.840307373046875,0.8922215104103088,-0.12952476739883423,0.18420317769050598
1733752191313283300,6.850283447265625,0.9020981192588806,-0.251201331615448,0.18283134698867798
1733752191323259100,6.860259033203125,0.9255666732788086,-0.42627543210983276,0.1682090014219284
1733752191333234200,6.870234130859375,0.9766242504119873,-0.5252345204353333,0.1335085779428482
1733752191343210200,6.880210205078125,1.0122631788253784,-0.5170841813087463,0.11103362590074539
1733752191353186000,6.89018603515625,0.9887604117393494,-0.4309861958026886,0.13968023657798767
1733752191363161000,6.9001611328125,0.9699036478996277,-0.3737412989139557,0.1483893096446991
1733752191373137200,6.91013720703125,0.9468890428543091,-0.3717299997806549,0.1326768547296524
1733752191383113200,6.92011328125,0.944425642490387,-0.40060320496559143,0.09325674921274185
1733752191393088000,6.930087890625,0.9604821801185608,-0.47920602560043335,0.05388538911938667
1733752191403064300,6.940064208984375,0.9818665385246277,-0.5833358764648438,0.049505289644002914
1733752191413040000,6.9500400390625,0.9931814670562744,-0.5665988326072693,0.10337322950363159
1733752191423016200,6.96001611328125,0.9098213315010071,-0.3882877230644226,0.1914232075214386
1733752191432991200,6.9699912109375,0.8474834561347961,-0.24303805828094482,0.23584116995334625
1733752191442967300,6.97996728515625,0.821633517742157,-0.2065330445766449,0.24490337073802948
1733752191452943000,6.989943115234375,0.8248065710067749,-0.26310473680496216,0.21241721510887146
1733752191462918400,6.99991845703125,0.8511210083961487,-0.3723108470439911,0.15479600429534912
1733752191472894200,7.009894287109375,0.8749663829803467,-0.49028053879737854,0.09548600763082504
1733752191482870000,7.0198701171875,0.9020976424217224,-0.5780359506607056,0.058248087763786316
1733752191492845300,7.02984521484375,0.9452939033508301,-0.6166073679924011,0.05333421006798744
1733752191502821000,7.039821044921875,0.9904467463493347,-0.6006954908370972,0.10191133618354797
1733752191512797200,7.049797119140625,1.0069823265075684,-0.4902377128601074,0.18115028738975525
1733752191522772700,7.059772705078125,0.9838178753852844,-0.3255196213722229,0.26108264923095703
1733752191532747800,7.069747802734375,0.9389466047286987,-0.18408840894699097,0.3053025007247925
1733752191542723600,7.0797236328125,0.8839989304542542,-0.11802229285240173,0.311768114566803
1733752191552700000,7.089699951171875,0.8076024055480957,-0.14111372828483582,0.30024290084838867
1733752191562674700,7.0996748046875,0.7551282644271851,-0.21049626171588898,0.2765628695487976
1733752191572650800,7.109650634765625,0.714840292930603,-0.3292929232120514,0.24536198377609253
1733752191582626600,7.11962646484375,0.7122101187705994,-0.43761032819747925,0.17413601279258728
1733752191592601900,7.129601806640625,0.7256730794906616,-0.5130243301391602,0.10007304698228836
1733752191602577700,7.13957763671875,0.7445176243782043,-0.5564631223678589,0.06253445893526077
1733752191612553500,7.149553466796875,0.7538208961486816,-0.4918751120567322,0.06506592035293579
1733752191622529800,7.15952978515625,0.7309187650680542,-0.33907759189605713,0.10644345730543137
1733752191632504600,7.169504638671875,0.7017039060592651,-0.20609204471111298,0.1556652933359146
1733752191642480600,7.179480712890625,0.6745745539665222,-0.1478457897901535,0.19432160258293152
1733752191652456700,7.189456787109375,0.6647598743438721,-0.15867844223976135,0.1942090094089508
1733752191662431700,7.199431640625,0.6618338823318481,-0.19867673516273499,0.16290968656539917
1733752191672407600,7.209407470703125,0.6766242384910583,-0.2556300461292267,0.12079151719808578
1733752191682384000,7.2193837890625,0.7037307024002075,-0.31122004985809326,0.08172667026519775
1733752191692358700,7.229358642578125,0.7204843163490295,-0.35626399517059326,0.043799418956041336
1733752191702334700,7.239334716796875,0.7026246190071106,-0.3554959297180176,0.03329511359333992
1733752191712310800,7.249310791015625,0.6583945155143738,-0.32569289207458496,0.06164444237947464
1733752191722286600,7.25928662109375,0.600703775882721,-0.31638407707214355,0.11323333531618118
1733752191732261600,7.26926171875,0.5582286715507507,-0.3236195147037506,0.1464482694864273
1733752191742237700,7.27923779296875,0.5445054173469543,-0.3362780511379242,0.1605854034423828
1733752191752213800,7.2892138671875,0.555412232875824,-0.37335842847824097,0.14168788492679596
1733752191762188800,7.299188720703125,0.5775249600410461,-0.41525179147720337,0.09195894002914429
1733752191772164600,7.30916455078125,0.6199224591255188,-0.4074120819568634,0.05779367312788963
1733752191782140700,7.319140625,0.6633085608482361,-0.3666614592075348,0.0735127180814743
1733752191792115700,7.32911572265625,0.6635370850563049,-0.3023371696472168,0.11782467365264893
1733752191802091500,7.339091552734375,0.6473608016967773,-0.2662830352783203,0.11806462705135345
1733752191812067800,7.34906787109375,0.6202306747436523,-0.3147384822368622,0.0644736960530281
1733752191822043600,7.359043701171875,0.6041252017021179,-0.4212665259838104,-0.012632541358470917
1733752191832018700,7.369018798828125,0.6077443957328796,-0.5259602665901184,-0.06400280445814133
1733752191841994800,7.378994873046875,0.6076186895370483,-0.5856925845146179,-0.042495112866163254
1733752191851970600,7.388970458984375,0.5936322212219238,-0.553316056728363,0.019283127039670944
1733752191861945600,7.398945556640625,0.5688360333442688,-0.4391855001449585,0.07813125848770142
1733752191871921700,7.408921630859375,0.5581890344619751,-0.27963322401046753,0.09027010947465897
1733752191881897700,7.418897705078125,0.5377242565155029,-0.1292453110218048,0.03638051077723503
1733752191891872800,7.428872802734375,0.5136973261833191,-0.043530937284231186,-0.06037716194987297
1733752191901848800,7.438848876953125,0.5180870294570923,-0.048831161111593246,-0.14254820346832275
1733752191911824600,7.44882470703125,0.5044655799865723,-0.09502652287483215,-0.16418011486530304
1733752191921800700,7.45880078125,0.4662204682826996,-0.1187925711274147,-0.10543929785490036
1733752191931775500,7.468775390625,0.4288831055164337,-0.1317841112613678,-0.005976235494017601
1733752191941751800,7.478751708984375,0.40582332015037537,-0.16337665915489197,0.07097048312425613
1733752191951727600,7.4887275390625,0.4043031930923462,-0.17830607295036316,0.08805039525032043
1733752191961702700,7.49870263671875,0.41502639651298523,-0.151718407869339,0.08274218440055847
1733752191971678700,7.5086787109375,0.42324894666671753,-0.10422928631305695,0.05207917466759682
1733752191981654500,7.518654541015625,0.4298591911792755,-0.0741073340177536,-0.0026197577826678753
1733752191991629600,7.528629638671875,0.4190835952758789,-0.05363256484270096,-0.0697794184088707
1733752192001605600,7.538605712890625,0.3956797122955322,-0.05036034435033798,-0.10286600142717361
1733752192011581700,7.548581787109375,0.35830309987068176,-0.07436759769916534,-0.08881218731403351
1733752192021557500,7.5585576171875,0.30380603671073914,-0.10445305705070496,-0.008704299107193947
1733752192031532800,7.56853271484375,0.25386324524879456,-0.1389327496290207,0.09355569630861282
1733752192041508600,7.578508544921875,0.2154673933982849,-0.20173488557338715,0.14686472713947296
1733752192051484700,7.588484619140625,0.1971074342727661,-0.26023682951927185,0.11677148938179016
1733752192061459700,7.598459716796875,0.20218048989772797,-0.30203381180763245,0.04780014231801033
1733752192071435800,7.608435791015625,0.21472713351249695,-0.29920798540115356,-0.0015940043376758695
1733752192081411600,7.61841162109375,0.22060419619083405,-0.24745877087116241,-0.0067751845344901085
1733752192091387000,7.628386962890625,0.22750775516033173,-0.189176544547081,0.014178331010043621
1733752192101362700,7.63836279296875,0.20936976373195648,-0.15467876195907593,0.042638733983039856
1733752192111338500,7.64833837890625,0.20246970653533936,-0.15921379625797272,0.07368979603052139
1733752192121314800,7.658314697265625,0.18518978357315063,-0.17983651161193848,0.11062411218881607
1733752192131289600,7.66828955078125,0.15282665193080902,-0.17037104070186615,0.12038814276456833
1733752192141265700,7.678265625,0.12250496447086334,-0.13403700292110443,0.09567533433437347
1733752192151241700,7.68824169921875,0.09542630612850189,-0.10475727915763855,0.039004821330308914
1733752192161216800,7.698216796875,0.07385975867509842,-0.10290398448705673,-0.02137622982263565
1733752192171192600,7.708192626953125,0.05219457671046257,-0.12345588952302933,-0.044308289885520935
1733752192181169000,7.7181689453125,0.027984844520688057,-0.15885862708091736,-0.02411726862192154
1733752192191143700,7.728143798828125,0.0026779496110975742,-0.18891066312789917,0.009087038226425648
1733752192201119700,7.73811962890625,-0.017898164689540863,-0.20504382252693176,0.03896211087703705
1733752192211095600,7.748095458984375,-0.02108561433851719,-0.19812853634357452,0.06652951240539551
1733752192221071600,7.758071533203125,-0.02836909331381321,-0.17665627598762512,0.06845790892839432
1733752192231046700,7.768046630859375,-0.035845689475536346,-0.1306787133216858,0.04412836953997612
1733752192241022500,7.7780224609375,0.010730333626270294,-0.10757499933242798,0.007766897790133953
1733752192250998800,7.787998779296875,0.04631328210234642,-0.12276987731456757,-0.02246723510324955
1733752192260973600,7.7979736328125,0.058499108999967575,-0.17555372416973114,-0.056689389050006866
1733752192270949600,7.80794970703125,0.07041186839342117,-0.20377695560455322,-0.07742097973823547
1733752192280925700,7.81792578125,0.05599990859627724,-0.18866991996765137,-0.07972568273544312
1733752192290900700,7.827900634765625,0.025625916197896004,-0.13398388028144836,-0.03069116920232773
1733752192300876500,7.83787646484375,-0.02089897356927395,-0.05070789158344269,0.01343234907835722
1733752192310852900,7.847852783203125,-0.031282197684049606,-0.02044198475778103,0.007844017818570137
1733752192320828700,7.85782861328125,-0.01571868360042572,0.019537389278411865,-0.048543889075517654
1733752192330803700,7.8678037109375,-0.004531028680503368,0.08039170503616333,-0.11626160144805908
1733752192340779800,7.87777978515625,0.008366660214960575,0.14030936360359192,-0.14288097620010376
1733752192350755600,7.887755615234375,0.00814366526901722,0.12891703844070435,-0.106117844581604
1733752192360730600,7.897730712890625,0.00420245248824358,0.026672426611185074,-0.01540578342974186
1733752192370706700,7.907706787109375,0.005405668634921312,-0.05619342625141144,0.05284198001027107
1733752192380682800,7.917682861328125,-0.003293546847999096,-0.0931762084364891,0.039795152842998505
1733752192390657500,7.927657470703125,-0.025042330846190453,-0.05197892338037491,-0.05719750374555588
1733752192400633600,7.937633544921875,-0.1411242038011551,0.04476013779640198,-0.15144410729408264
1733752192410609700,7.947609619140625,-0.2474498152732849,0.1913299411535263,-0.20780853927135468
1733752192420585700,7.957585693359375,-0.2554691433906555,0.18157371878623962,-0.2133774757385254
1733752192430560500,7.967560546875,-0.23634658753871918,0.05041305348277092,-0.16088970005512238
1733752192440536800,7.977536865234375,-0.1740374118089676,-0.08671922981739044,-0.09945670515298843
1733752192450512600,7.9875126953125,-0.1292867511510849,-0.13022363185882568,-0.0442192442715168
1733752192460487700,7.99748779296875,-0.1570986807346344,-0.03247389569878578,-0.040100932121276855
1733752192470463700,8.007463623046876,-0.14447708427906036,0.4460054636001587,-0.13541178405284882
1733752192480439600,8.017439453125,-0.02895154431462288,0.7802598476409912,-0.17538370192050934
1733752192490414600,8.02741455078125,-0.0015177121385931969,0.8214683532714844,-0.154917910695076
1733752192500390700,8.037390625,0.005923692602664232,0.5580244660377502,-0.06610307842493057
1733752192510366700,8.04736669921875,-0.006979390978813171,0.0814199447631836,0.026386059820652008
1733752192520342800,8.0573427734375,-0.03796180710196495,-0.2858925759792328,0.046575482934713364
1733752192530318000,8.067318115234375,-0.06343264132738113,-0.22564761340618134,-0.0590067096054554
1733752192540294000,8.0772939453125,-0.09702415764331818,0.03053036890923977,-0.18853381276130676
1733752192550270000,8.08727001953125,-0.12449168413877487,0.26223891973495483,-0.28487512469291687
1733752192560245000,8.097244873046876,-0.20165571570396423,0.4350261390209198,-0.2752339541912079
1733752192570221000,8.107220947265626,-0.2556619942188263,0.5792378187179565,-0.1913398653268814
1733752192580196900,8.11719677734375,-0.24583496153354645,0.541027307510376,-0.069587342441082
1733752192590172200,8.127172119140624,-0.2191760092973709,0.4438803791999817,-0.0005847935099154711
1733752192600148000,8.13714794921875,-0.14606185257434845,0.3044111728668213,0.028519028797745705
1733752192610123800,8.147123779296875,-0.02095247432589531,0.07633952051401138,0.043005894869565964
1733752192620100000,8.15710009765625,0.015952546149492264,-0.19284401834011078,0.05796593427658081
1733752192630075000,8.167074951171875,0.0008910581236705184,-0.4241153299808502,0.060561105608940125
1733752192640051000,8.177051025390625,-0.028834613040089607,-0.5907067060470581,0.06221199780702591
1733752192650027000,8.187027099609375,-0.05196882039308548,-0.6595160365104675,0.03881966695189476
1733752192660002000,8.197001953125,-0.05703015998005867,-0.5602145195007324,0.0076468344777822495
1733752192669977900,8.206977783203126,-0.05392809957265854,-0.3615579605102539,-0.03162690997123718
1733752192679954200,8.2169541015625,-0.025617631152272224,-0.10275382548570633,-0.032839447259902954
1733752192689929000,8.226928955078124,-0.03249114379286766,-0.041399549692869186,0.029902368783950806
1733752192699905000,8.236905029296874,-0.029992565512657166,-0.10985478013753891,0.06351225823163986
1733752192709880800,8.246880859375,0.0004649523471016437,-0.16320118308067322,0.019937243312597275
1733752192719857000,8.25685693359375,0.016366420313715935,-0.1516561210155487,-0.04310110956430435
1733752192729832000,8.26683203125,0.008881498128175735,-0.12308449298143387,-0.0982220247387886
1733752192739807700,8.276807861328125,-0.002471024403348565,-0.2555503845214844,-0.09150473028421402
1733752192749784000,8.2867841796875,-0.014713644981384277,-0.5594933032989502,-0.03214411064982414
1733752192759758800,8.2967587890625,-0.03309158980846405,-0.8154632449150085,0.05979566648602486
1733752192769735000,8.30673486328125,-0.06442859768867493,-0.8685407638549805,0.09415930509567261
1733752192779711000,8.3167109375,-0.06238595396280289,-0.6882346272468567,0.022853704169392586
1733752192789686000,8.32668603515625,-0.053215932101011276,-0.3960365056991577,-0.08163737505674362
1733752192799661800,8.336661865234374,-0.05410036817193031,-0.10672267526388168,-0.15215228497982025
1733752192809638100,8.34663818359375,-0.04405270516872406,0.1289549469947815,-0.14083337783813477
1733752192819614000,8.356614013671875,-0.03424987196922302,0.2678305506706238,-0.07772444933652878
1733752192829589000,8.366589111328125,-0.0417422354221344,0.29816463589668274,-0.030204549431800842
1733752192839565000,8.37656494140625,-0.03206164389848709,0.21203534305095673,-0.04795531928539276
1733752192849540900,8.386540771484375,-0.022556062787771225,0.022858960554003716,-0.06810688972473145
1733752192859516000,8.396515869140625,-0.007496419362723827,-0.1174403578042984,-0.07195942103862762
1733752192869492000,8.406491943359375,0.012226389721035957,-0.15387389063835144,-0.09152866899967194
1733752192879468000,8.416468017578126,0.031468261033296585,-0.21113371849060059,-0.13510091602802277
1733752192889442800,8.42644287109375,0.04948432743549347,-0.32318732142448425,-0.15688705444335938
1733752192899419000,8.4364189453125,0.019140271469950676,-0.4008064866065979,-0.11790210008621216
1733752192909395000,8.44639501953125,-0.029500117525458336,-0.4918104112148285,-0.06667935848236084
1733752192919371000,8.45637109375,-0.045439135283231735,-0.6156327724456787,-0.08521363139152527
1733752192929345800,8.466345703125,-0.06165805459022522,-0.7630824446678162,-0.13659240305423737
1733752192939322000,8.476322021484375,-0.07915555685758591,-0.7738852500915527,-0.1565660983324051
1733752192949298000,8.4862978515625,-0.04103861004114151,-0.7133957147598267,-0.1806856095790863
1733752192959273000,8.49627294921875,0.029087748378515244,-0.6570629477500916,-0.22876019775867462
1733752192969249000,8.5062490234375,0.09462188929319382,-0.5925957560539246,-0.27580541372299194
1733752192979224800,8.516224853515626,0.14938287436962128,-0.5350874662399292,-0.2765044867992401
1733752192989200000,8.526199951171876,0.14194275438785553,-0.5284124612808228,-0.2378229796886444
1733752192999176000,8.536176025390626,0.05708778277039528,-0.5513178110122681,-0.17437823116779327
1733752193009152000,8.546152099609374,-0.03979504853487015,-0.5319192409515381,-0.05733500048518181
1733752193019127800,8.5561279296875,-0.09690866619348526,-0.33459925651550293,0.05938255786895752
1733752193029103000,8.56610302734375,-0.10326703637838364,0.11118882894515991,0.11103866249322891
1733752193039079000,8.576078857421875,-0.14653994143009186,0.5438313484191895,0.016165941953659058
1733752193049055000,8.586054931640625,-0.26818227767944336,0.8313488364219666,-0.12105526775121689
1733752193059030000,8.596030029296875,-0.33580124378204346,0.8472687005996704,-0.1973516345024109
1733752193069006000,8.606006103515625,-0.33472028374671936,0.6790106296539307,-0.20549587905406952
1733752193078982000,8.61598193359375,-0.28846225142478943,0.49287664890289307,-0.14038772881031036
1733752193088957000,8.62595703125,-0.24694563448429108,0.4399644136428833,-0.05702885985374451
1733752193098933000,8.63593310546875,-0.22971443831920624,0.5456993579864502,-0.007080476265400648
1733752193108908800,8.64590869140625,-0.24566487967967987,0.6507552266120911,-0.007309807930141687
1733752193118885000,8.655885009765624,-0.24897624552249908,0.6441713571548462,-0.038923393934965134
1733752193128860000,8.66585986328125,-0.25650331377983093,0.6437954902648926,-0.07472511380910873
1733752193138836000,8.6758359375,-0.30170726776123047,0.6993338465690613,-0.11631916463375092
1733752193148812000,8.68581201171875,-0.3879975378513336,0.9063212275505066,-0.1270774006843567
1733752193158787000,8.695787109375,-0.4823876619338989,1.0604420900344849,-0.1262827068567276
1733752193168763000,8.705762939453125,-0.5197364091873169,1.0061763525009155,-0.16771143674850464
1733752193178739000,8.715739013671875,-0.5120103359222412,0.8112420439720154,-0.20442603528499603
1733752193188714000,8.7257138671875,-0.4875637888908386,0.6039240956306458,-0.19265002012252808
1733752193198690000,8.73568994140625,-0.45885199308395386,0.46319523453712463,-0.16587460041046143
1733752193208665900,8.745665771484376,-0.4457990825176239,0.3954157531261444,-0.1210038959980011
1733752193218642000,8.755641845703124,-0.457861065864563,0.40563535690307617,-0.08106712996959686
1733752193228617000,8.765616943359374,-0.46852272748947144,0.4108193814754486,-0.07648400217294693
1733752193238592800,8.7755927734375,-0.48424842953681946,0.411948561668396,-0.08820617198944092
1733752193248569000,8.785569091796875,-0.5166729688644409,0.37024497985839844,-0.12319989502429962
1733752193258543900,8.7955439453125,-0.5588198900222778,0.311923086643219,-0.15465182065963745
1733752193268520000,8.80552001953125,-0.5856583118438721,0.24686722457408905,-0.17703227698802948
1733752193278496000,8.81549609375,-0.5750874280929565,0.16314862668514252,-0.20327267050743103
1733752193288471000,8.825470947265625,-0.5539417266845703,0.10377906262874603,-0.1987215280532837
1733752193298446800,8.83544677734375,-0.5395092368125916,0.07942898571491241,-0.13882091641426086
1733752193308423200,8.845423095703126,-0.5009604692459106,0.12881051003932953,-0.025555387139320374
1733752193318399000,8.85539892578125,-0.4584505259990692,0.2614407241344452,0.06563177704811096
1733752193328374000,8.8653740234375,-0.4169973134994507,0.4678471088409424,0.13652418553829193
1733752193338350000,8.87535009765625,-0.42673996090888977,0.6157487034797668,0.1797904223203659
1733752193348326000,8.885325927734375,-0.4959717392921448,0.5405325293540955,0.17885112762451172
1733752193358301000,8.895301025390625,-0.5294545888900757,0.5346333384513855,0.19651907682418823
1733752193368276700,8.90527685546875,-0.5420511364936829,0.6263641715049744,0.2568075656890869
1733752193378253000,8.915253173828125,-0.5720111727714539,0.6578736305236816,0.2870544195175171
1733752193388227800,8.925227783203125,-0.5949035286903381,0.6425238251686096,0.23718899488449097
1733752193398204000,8.935203857421875,-0.6102086901664734,0.6769864559173584,0.10297472029924393
1733752193408180000,8.945179931640626,-0.6047304272651672,0.7074347138404846,-0.02431485801935196
1733752193418156000,8.955156005859376,-0.6051203012466431,0.6992875337600708,-0.09847590327262878
1733752193428130800,8.965130859375,-0.5791125893592834,0.6489444375038147,-0.08708976209163666
1733752193438107100,8.975107177734374,-0.5628515481948853,0.617468535900116,-0.027504995465278625
1733752193448083000,8.9850830078125,-0.5561082363128662,0.6739897131919861,0.0388839915394783
1733752193458058000,8.99505810546875,-0.5773850083351135,0.761261522769928,0.11979322135448456
1733752193468034000,9.005033935546875,-0.620925784111023,0.7835683226585388,0.21397395431995392
1733752193478009900,9.015009765625,-0.6891807317733765,0.7426557540893555,0.2699362635612488
1733752193487985000,9.02498486328125,-0.7421762347221375,0.6360462307929993,0.22877459228038788
1733752193497961000,9.0349609375,-0.7870712876319885,0.5165871977806091,0.05701560527086258
1733752193507937000,9.04493701171875,-0.838374137878418,0.3723722994327545,-0.10562791675329208
1733752193517913000,9.0549130859375,-0.8648456931114197,0.24476265907287598,-0.16627420485019684
1733752193527888100,9.06488818359375,-0.861866295337677,0.13223019242286682,-0.14532020688056946
1733752193537864000,9.074864013671874,-0.8697055578231812,0.11005031317472458,-0.08977439999580383
1733752193547840000,9.084840087890624,-0.881394624710083,0.19176506996154785,-0.05092369019985199
1733752193557815000,9.09481494140625,-0.8785436749458313,0.2831607758998871,-0.06383922696113586
1733752193567791000,9.104791015625,-0.8548436760902405,0.3476370573043823,-0.0678914412856102
1733752193577767200,9.11476708984375,-0.8002440929412842,0.40754565596580505,-0.031463660299777985
1733752193587742200,9.1247421875,-0.7601724863052368,0.46592405438423157,0.014736171811819077
1733752193597718000,9.134718017578125,-0.7326551079750061,0.5611466765403748,0.09283097088336945
1733752193607694000,9.144694091796875,-0.7214016318321228,0.6841982007026672,0.1866595298051834
1733752193617670100,9.154670166015626,-0.7171102166175842,0.717551052570343,0.23328323662281036
1733752193627645000,9.16464501953125,-0.7290048599243164,0.6233088970184326,0.22708575427532196
1733752193637621200,9.174621337890626,-0.7556809186935425,0.4864586293697357,0.19569507241249084
1733752193647597000,9.18459716796875,-0.7722676992416382,0.44476190209388733,0.14280414581298828
1733752193657572000,9.194572021484374,-0.8097466826438904,0.41902217268943787,0.10628767311573029
1733752193667548200,9.204548095703124,-0.8382800817489624,0.35962918400764465,0.07171138375997543
1733752193677524000,9.21452392578125,-0.8269650936126709,0.2913406789302826,0.07015103101730347
1733752193687499000,9.2244990234375,-0.8085300326347351,0.23685970902442932,0.08776247501373291
1733752193697475000,9.23447509765625,-0.7738170623779297,0.2501225173473358,0.10027560591697693
1733752193707451100,9.244451171875,-0.7408880591392517,0.34030407667160034,0.15208636224269867
1733752193717427000,9.254427001953125,-0.7483126521110535,0.45880433917045593,0.19717314839363098
1733752193727402000,9.264402099609375,-0.7554201483726501,0.577648937702179,0.22036032378673553
1733752193737378000,9.2743779296875,-0.7792053818702698,0.6382606029510498,0.19251112639904022
1733752193747354000,9.28435400390625,-0.7979097366333008,0.6672316789627075,0.13822226226329803
1733752193757329000,9.294328857421876,-0.7912343144416809,0.7051257491111755,0.07752909511327744
1733752193767305200,9.30430517578125,-0.7858182191848755,0.7959590554237366,0.04799487069249153
1733752193777281000,9.314281005859375,-0.791311502456665,0.8394391536712646,0.07013638317584991
1733752193787256000,9.324256103515625,-0.7928638458251953,0.8033742308616638,0.12716898322105408
1733752193797232000,9.334232177734375,-0.7892462015151978,0.7163000106811523,0.1709955483675003
1733752193807208000,9.3442080078125,-0.8418150544166565,0.6697371602058411,0.1936618536710739
1733752193817184000,9.35418408203125,-0.761161208152771,0.6298882961273193,0.22802115976810455
1733752193827159000,9.364158935546875,-0.7254424095153809,0.43876492977142334,0.2709615230560303
1733752193837135000,9.374135009765626,-0.8134630918502808,0.4086078107357025,0.2872459590435028
1733752193847111000,9.38411083984375,-0.7694331407546997,0.4579405188560486,0.29008111357688904
1733752193857086200,9.394086181640626,-0.7014152407646179,0.3101816773414612,0.31554198265075684
1733752193867062000,9.40406201171875,-0.8357408046722412,0.24250517785549164,0.29766392707824707
1733752193877038000,9.4140380859375,-0.851144552230835,0.3496856689453125,0.262701153755188
1733752193887012900,9.424012939453124,-0.8382968306541443,0.33310019969940186,0.2314755916595459
1733752193896989200,9.4339892578125,-0.786234974861145,0.1995876580476761,0.1550671011209488
1733752193906965000,9.443965087890625,-0.7778934836387634,0.0862826406955719,0.05233282968401909
1733752193916941000,9.453941162109375,-0.9009285569190979,0.20010054111480713,0.010895906016230583
1733752193926916000,9.463916015625,-0.9342855215072632,0.3389195203781128,0.06584323942661285
1733752193936892200,9.47389208984375,-0.8593188524246216,0.24922852218151093,0.16538500785827637
1733752193946868200,9.4838681640625,-0.8136110901832581,0.1055482029914856,0.1951509416103363
1733752193956843300,9.49384326171875,-0.7939841151237488,0.2014443725347519,0.1671653687953949
1733752193966819000,9.503819091796874,-0.7977520823478699,0.30787941813468933,0.17234238982200623
1733752193976795000,9.513794921875,-0.8918160200119019,0.4418790340423584,0.22200314700603485
1733752193986770200,9.523770263671874,-0.9154943227767944,0.5754427909851074,0.27377042174339294
1733752193996746000,9.53374609375,-0.8802473545074463,0.5276955366134644,0.291027694940567
1733752194006722000,9.54372216796875,-0.8043649792671204,0.408456414937973,0.2539535164833069
1733752194016698000,9.553697998046875,-0.6893094778060913,0.2697419226169586,0.1953549087047577
1733752194026673200,9.563673095703125,-0.756428599357605,0.16401171684265137,0.14999867975711823
1733752194036649000,9.57364892578125,-0.8744665384292603,0.280897855758667,0.1356721967458725
1733752194046625000,9.583625,-0.8783889412879944,0.3102262616157532,0.15128745138645172
1733752194056600000,9.59360009765625,-0.8417169451713562,0.20362739264965057,0.15576769411563873
1733752194066576100,9.603576171875,-0.7991650104522705,0.08837000280618668,0.1351863294839859
1733752194076552200,9.61355224609375,-0.9040661454200745,0.12442866712808609,0.09915031492710114
1733752194086527200,9.62352734375,-0.924140989780426,0.30177196860313416,0.10935800522565842
1733752194096503000,9.6335029296875,-0.8840111494064331,0.3342351019382477,0.17020803689956665
1733752194106479000,9.64347900390625,-0.8130804896354675,0.27737125754356384,0.2057156264781952
1733752194116455200,9.653455078125,-0.7282295227050781,0.24086973071098328,0.16495327651500702
1733752194126430000,9.663429931640625,-0.7071486711502075,0.24756574630737305,0.06645376980304718
1733752194136406000,9.673406005859375,-0.724069356918335,0.2574079930782318,-0.01760890707373619
1733752194146382000,9.683382080078125,-0.7647390365600586,0.2686607837677002,-0.043676212430000305
1733752194156357000,9.693357177734375,-0.796613335609436,0.2833385169506073,-0.021723506972193718
1733752194166333000,9.7033330078125,-0.783439040184021,0.32563796639442444,0.008850508369505405
1733752194176309000,9.71330908203125,-0.7161886096000671,0.3508210778236389,0.023976197466254234
1733752194186285000,9.72328515625,-0.703486442565918,0.34574198722839355,0.017516009509563446
1733752194196260000,9.733260009765624,-0.6913467049598694,0.3673785626888275,0.015457653440535069
1733752194206236200,9.743236083984375,-0.7396476864814758,0.37715816497802734,0.0561111643910408
1733752194216212000,9.7532119140625,-0.7348971366882324,0.3718808591365814,0.08530767261981964
1733752194226187000,9.76318701171875,-0.7243012189865112,0.33092808723449707,0.07375594228506088
1733752194236163000,9.7731630859375,-0.7279915809631348,0.2868058979511261,0.048187196254730225
1733752194246139100,9.78313916015625,-0.7554547786712646,0.23325593769550323,0.019045287743210793
1733752194256114000,9.793114013671875,-0.7715982794761658,0.24820053577423096,-0.015309755690395832
1733752194266090200,9.80309033203125,-0.7705151438713074,0.2618837356567383,-0.04866122081875801
1733752194276066000,9.813066162109376,-0.7463381290435791,0.25689297914505005,-0.058065641671419144
1733752194286041900,9.823041748046874,-0.6976305842399597,0.2668682932853699,-0.034078601747751236
1733752194296017200,9.83301708984375,-0.6815256476402283,0.2929779291152954,0.0031507923267781734
1733752194305993000,9.842992919921874,-0.6751227974891663,0.3104532063007355,0.03605230152606964
1733752194315969000,9.852968994140625,-0.6758930087089539,0.31011655926704407,0.0593072883784771
1733752194325944000,9.862944091796875,-0.6814336776733398,0.30807483196258545,0.0727136880159378
1733752194335920000,9.872920166015625,-0.6238585710525513,0.2896324396133423,0.07912258803844452
1733752194345896000,9.88289599609375,-0.5743016600608826,0.21093839406967163,0.07852337509393692
1733752194355871000,9.89287109375,-0.6695112586021423,0.2755086123943329,0.04934524744749069
1733752194365847000,9.902846923828125,-0.6892834901809692,0.4960417151451111,0.047781363129615784
1733752194375823000,9.912822998046876,-0.6980394124984741,0.5923546552658081,0.07750862836837769
1733752194385799200,9.922799072265626,-0.6860598921775818,0.5872134566307068,0.0850483849644661
1733752194395774200,9.932774169921874,-0.6632911562919617,0.5120337605476379,0.072251096367836
1733752194405750000,9.94275,-0.6577715873718262,0.4791051745414734,0.051348887383937836
1733752194415725800,9.952725830078125,-0.6491389274597168,0.4862419366836548,0.05346237123012543
1733752194425701000,9.962701171875,-0.6170544624328613,0.4652442932128906,0.08954150974750519
1733752194435677000,9.972677001953125,-0.5527817606925964,0.3807046413421631,0.11569269001483917
1733752194445653000,9.982653076171875,-0.4251413345336914,0.25452476739883423,0.09169407188892365
1733752194455628000,9.9926279296875,-0.4043753445148468,0.09241203218698502,0.0160823967307806
1733752194465604000,10.00260400390625,-0.5498611330986023,0.09101084619760513,-0.06315767019987106
1733752194475580000,10.012579833984375,-0.6359190344810486,0.1960323452949524,-0.061373621225357056
1733752194485556200,10.02255615234375,-0.6108434200286865,0.21164973080158234,-0.00515367928892374
1733752194495531000,10.032531005859376,-0.5866574048995972,0.16178417205810547,0.06597855687141418
1733752194505507000,10.042507080078124,-0.5735263228416443,0.12746112048625946,0.09186192601919174
1733752194515483100,10.052483154296874,-0.5364412665367126,0.13218609988689423,0.0665360614657402
1733752194525458700,10.062458740234375,-0.5019000768661499,0.09258855879306793,0.0161831583827734
1733752194535434800,10.072434814453125,-0.38338276743888855,-0.01303320936858654,-0.03452635928988457
1733752194545410600,10.08241064453125,-0.3772091567516327,-0.1462562531232834,-0.05127580836415291
1733752194555387000,10.092386962890625,-0.5272420644760132,-0.07584439963102341,-0.07723842561244965
1733752194565361700,10.102361572265625,-0.5747619271278381,0.08157177269458771,-0.08488388359546661
1733752194575337700,10.112337646484375,-0.635515034198761,0.07648300379514694,-0.04133640602231026
1733752194585313800,10.122313720703126,-0.6431450247764587,0.009081268683075905,-0.006544303148984909
1733752194595288800,10.132288818359376,-0.6217992901802063,-0.0330619215965271,0.012663213536143303
1733752194605264600,10.1422646484375,-0.6037042140960693,0.02301979251205921,0.02477874979376793
1733752194615240400,10.152240478515624,-0.5959616303443909,0.09043478220701218,0.04500652477145195
1733752194625215700,10.1622158203125,-0.5654273629188538,0.1178201287984848,0.06764735281467438
1733752194635191600,10.172191650390625,-0.4976605772972107,0.1244111955165863,0.08437786251306534
1733752194645167600,10.182167724609375,-0.44100990891456604,0.1477098912000656,0.09252254664897919
1733752194655143700,10.192143798828125,-0.4036705195903778,0.12680062651634216,0.09316197037696838
1733752194665118700,10.20211865234375,-0.5178977847099304,0.12281559407711029,0.0726899653673172
1733752194675094500,10.212094482421875,-0.6186395883560181,0.23516717553138733,0.04579231142997742
1733752194685070800,10.22207080078125,-0.5885142683982849,0.28139176964759827,0.050498634576797485
1733752194695045600,10.232045654296876,-0.5532960891723633,0.19213807582855225,0.09605413675308228
1733752194705021700,10.242021728515626,-0.5238925814628601,0.09582498669624329,0.12442181259393692
1733752194714997800,10.251997802734374,-0.5064542293548584,0.058005694299936295,0.12218315899372101
1733752194724972800,10.261972900390624,-0.4946245551109314,0.0516989566385746,0.10352782905101776
1733752194734948600,10.271948486328125,-0.42356395721435547,0.03280835598707199,0.08168324828147888
1733752194744924700,10.281924560546875,-0.2673691511154175,-0.05935300141572952,0.07949303090572357
1733752194754900700,10.291900634765625,-0.3154951333999634,-0.1137041226029396,0.08689102530479431
1733752194764875800,10.301875732421875,-0.4344795048236847,0.0533890500664711,0.06627759337425232
1733752194774851800,10.311851806640625,-0.41805019974708557,0.19116529822349548,0.07467267662286758
1733752194784827600,10.32182763671875,-0.3774796426296234,0.12206090986728668,0.12213466316461563
1733752194794802700,10.331802734375,-0.45007553696632385,0.12381699681282043,0.12430301308631897
1733752194804778500,10.341778564453126,-0.4388335347175598,0.25090426206588745,0.11448195576667786
1733752194814754800,10.3517548828125,-0.4179205298423767,0.30793052911758423,0.13907332718372345
1733752194824729600,10.3617294921875,-0.3996242880821228,0.2707628011703491,0.1852557510137558
1733752194834705700,10.37170556640625,-0.3812226355075836,0.1833416223526001,0.1940300613641739
1733752194844681700,10.381681640625,-0.364243745803833,0.10909176617860794,0.1768133044242859
1733752194854657500,10.391657470703125,-0.3328935503959656,0.04583609476685524,0.15551866590976715
1733752194864632600,10.401632568359375,-0.30019232630729675,0.0013110660947859287,0.15706606209278107
1733752194874608600,10.411608642578125,-0.27284619212150574,-0.05379825830459595,0.1568724513053894
1733752194884584700,10.421584716796875,-0.3252372443675995,-0.08115220814943314,0.13099360466003418
1733752194894559700,10.431559814453125,-0.4360567033290863,0.010271710343658924,0.06794220954179764
1733752194904535800,10.441535888671876,-0.41005897521972656,0.10503146797418594,0.02787957340478897
1733752194914511600,10.45151171875,-0.3598935604095459,0.10863232612609863,0.02215084806084633
1733752194924487700,10.46148779296875,-0.28805774450302124,0.09882401674985886,0.00821817945688963
1733752194934462700,10.471462646484374,-0.23505763709545135,0.13392607867717743,-0.006468354724347591
1733752194944438800,10.481438720703125,-0.21394118666648865,0.19217811524868011,-0.004300323780626059
1733752194954414600,10.49141455078125,-0.21412813663482666,0.20789875090122223,0.029711972922086716
1733752194964390000,10.501389892578125,-0.21919167041778564,0.1678839921951294,0.07210911065340042
1733752194974365700,10.51136572265625,-0.24269938468933105,0.0789211094379425,0.08957172185182571
1733752194984341500,10.521341552734375,-0.23575016856193542,-0.03125642240047455,0.06996835768222809
1733752194994316500,10.531316650390625,-0.24717353284358978,-0.17593877017498016,0.013476855121552944
1733752195004292600,10.541292724609375,-0.27608996629714966,-0.2911452651023865,-0.061452072113752365
1733752195014268700,10.5512685546875,-0.323366641998291,-0.31937292218208313,-0.1408182680606842
1733752195024244700,10.56124462890625,-0.31905803084373474,-0.2780604660511017,-0.16814012825489044
1733752195034219800,10.5712197265625,-0.2769867479801178,-0.22021210193634033,-0.1206975057721138
1733752195044195600,10.581195556640624,-0.2303524762392044,-0.13401396572589874,-0.03262060135602951
1733752195054172000,10.591171875,-0.19770106673240662,0.00034731091000139713,0.05738039314746857
1733752195064146700,10.601146728515625,-0.17687712609767914,0.11751760542392731,0.10673966258764267
1733752195074122800,10.611122802734375,-0.1721329689025879,0.14587466418743134,0.12185123562812805
1733752195084098600,10.6210986328125,-0.17934571206569672,0.14853106439113617,0.11580891907215118
1733752195094073900,10.631073974609375,-0.1925233006477356,0.14074824750423431,0.11718390882015228
1733752195104049700,10.641049560546875,-0.2212928980588913,0.1129472479224205,0.1084095910191536
1733752195114025500,10.651025390625,-0.24750159680843353,0.09484174847602844,0.07945650070905685
1733752195124001800,10.661001708984376,-0.2513628602027893,0.0776234045624733,0.04743488132953644
1733752195133976600,10.6709765625,-0.2258916050195694,0.062202900648117065,0.050751589238643646
1733752195143952600,10.68095263671875,-0.11996409296989441,0.002058246871456504,0.068202905356884
1733752195153928700,10.6909287109375,-0.06602150201797485,-0.055297452956438065,0.07108950614929199
1733752195163903700,10.70090380859375,-0.0857204869389534,0.04889009892940521,0.04764103144407272
1733752195173879600,10.710879638671875,-0.03346899896860123,0.16058893501758575,0.05632506683468819
1733752195183855900,10.72085595703125,-0.026767289265990257,0.15016576647758484,0.11526207625865936
1733752195193831700,10.730831787109375,-0.02293899469077587,0.11014991253614426,0.14436030387878418
1733752195203806700,10.740806640625,-0.03441772237420082,0.07428020983934402,0.12779206037521362
1733752195213782800,10.75078271484375,-0.06626859307289124,0.06346644461154938,0.08433698862791061
1733752195223758600,10.760758544921876,-0.0924639031291008,0.05764152854681015,0.03376469016075134
1733752195233733600,10.770733642578126,-0.09786665439605713,0.05953077971935272,0.008947758935391903
1733752195243709700,10.780709716796874,-0.1072719469666481,0.0640338733792305,0.01138331275433302
1733752195253685800,10.790685791015624,-0.11037745326757431,0.08333193510770798,0.018189821392297745
1733752195263660500,10.80066064453125,-0.11472869664430618,0.09151319414377213,0.01106384489685297
1733752195273636600,10.81063671875,-0.09452249854803085,0.0715903490781784,0.007454463746398687
1733752195283612700,10.82061279296875,-0.056802429258823395,0.07462875545024872,0.007876338437199593
1733752195293588700,10.830588623046875,-0.014118615537881851,0.10474564880132675,0.014605347998440266
1733752195303563500,10.8405634765625,0.027869906276464462,0.13209138810634613,0.025634044781327248
1733752195313539800,10.850539794921875,0.0495443120598793,0.14709670841693878,0.03728644177317619
1733752195323515600,10.860515625,0.05307646095752716,0.15790221095085144,0.04111819714307785
1733752195333490700,10.87049072265625,0.05223330482840538,0.18025945127010345,0.026105424389243126
1733752195343466800,10.880466796875,0.054487936198711395,0.20142439007759094,0.017607543617486954
1733752195353442600,10.890442626953124,0.0644068792462349,0.20735764503479004,0.01896415837109089
1733752195363417600,10.90041748046875,0.06008896976709366,0.18649666011333466,0.021317938342690468
1733752195373393700,10.9103935546875,0.04233154281973839,0.13958507776260376,0.025337446480989456
1733752195383369700,10.92036962890625,0.007297509349882603,0.09209426492452621,0.005245526321232319
1733752195393345500,10.930345458984375,-0.011356335133314133,0.02906869724392891,-0.008847923018038273
1733752195403320800,10.94032080078125,-0.011856289580464363,-0.044183097779750824,-0.017771175131201744
1733752195413296600,10.950296630859375,-0.01586727797985077,-0.06933611631393433,-0.020419156178832054
1733752195423272700,10.960272705078125,-0.01921442523598671,-0.0730869397521019,-0.02427736669778824
1733752195433247700,10.970247802734375,-0.0035822035279124975,-0.05091266334056854,-0.018494844436645508
1733752195443223800,10.980223876953126,0.017995545640587807,0.025029487907886505,-0.001265340019017458
1733752195453199600,10.99019970703125,0.038086965680122375,0.12502825260162354,0.029389241710305214
1733752195463175700,11.00017578125,0.04281924292445183,0.18815016746520996,0.05799345672130585
1733752195473150700,11.010150634765624,0.05167026072740555,0.22215740382671356,0.05784804746508598
1733752195483126500,11.02012646484375,0.057913489639759064,0.23440146446228027,0.04476549103856087
1733752195493102800,11.030102783203125,0.04490421339869499,0.1732153445482254,0.03257433697581291
1733752195503077600,11.04007763671875,0.04397127032279968,0.0369005911052227,0.0030915788374841213
1733752195513053700,11.0500537109375,0.05546334385871887,-0.07815781980752945,-0.06680228561162949
1733752195523029000,11.060029052734375,0.06461638957262039,-0.1562332957983017,-0.12801043689250946
1733752195533004300,11.07000439453125,0.06637593358755112,-0.22430235147476196,-0.15548573434352875
1733752195542980000,11.07997998046875,0.08192222565412521,-0.24701251089572906,-0.15552295744419098
1733752195552956200,11.0899560546875,0.11649564653635025,-0.19397513568401337,-0.13093426823616028
1733752195562932200,11.09993212890625,0.14237426221370697,-0.10766652226448059,-0.09015479683876038
1733752195572907300,11.1099072265625,0.14014385640621185,-0.0219138003885746,-0.046579353511333466
1733752195582883000,11.119883056640624,0.1320383995771408,0.04575099050998688,-0.035995714366436005
1733752195592859400,11.129859375,0.12485772371292114,0.08950592577457428,-0.050987713038921356
1733752195602834200,11.139834228515625,0.11838947981595993,0.1267303079366684,-0.058169227093458176
1733752195612810200,11.149810302734375,0.10250558704137802,0.14318785071372986,-0.04802817478775978
1733752195622786300,11.159786376953125,0.09217550605535507,0.14839580655097961,-0.03522074967622757
1733752195632762000,11.16976220703125,0.10292216390371323,0.1500253975391388,-0.02987205982208252
1733752195642737200,11.179737060546875,0.12323533743619919,0.14667955040931702,-0.0254873875528574
1733752195652713200,11.189713134765626,0.1349572390317917,0.13805915415287018,-0.025057286024093628
1733752195662689300,11.199689208984376,0.1261238157749176,0.13327805697917938,-0.04462827369570732
1733752195672664000,11.2096640625,0.1155092641711235,0.1336253434419632,-0.0780208557844162
1733752195682640100,11.21964013671875,0.11308000981807709,0.1319093257188797,-0.09121552854776382
1733752195692616200,11.2296162109375,0.10891828685998917,0.12786531448364258,-0.08442100882530212
1733752195702592300,11.23959228515625,0.1095629632472992,0.1311640590429306,-0.0649830624461174
1733752195712567000,11.249567138671875,0.12329395115375519,0.11721600592136383,-0.03661293908953667
1733752195722543400,11.25954345703125,0.13708069920539856,0.08812365680932999,-0.00734364241361618
1733752195732519200,11.269519287109375,0.1679035872220993,0.06372138112783432,0.0009691487066447735
1733752195742494200,11.279494140625,0.2050490826368332,0.05148398131132126,0.004554671701043844
1733752195752470300,11.28947021484375,0.23294569551944733,0.0344884879887104,0.00604737363755703
1733752195762446000,11.299446044921876,0.22778433561325073,-0.018004978075623512,-0.007845399901270866
1733752195772422100,11.309422119140624,0.18927927315235138,-0.062007587403059006,-0.04703035205602646
1733752195782397200,11.319397216796874,0.14302276074886322,-0.10642754286527634,-0.09742144495248795
1733752195792373200,11.329373291015624,0.10634729266166687,-0.17953744530677795,-0.15796388685703278
1733752195802349000,11.33934912109375,0.09699542075395584,-0.2257571816444397,-0.21668864786624908
1733752195812324400,11.349324462890625,0.10551486909389496,-0.2230982929468155,-0.2570078670978546
1733752195822300200,11.359300048828125,0.1193980947136879,-0.15998885035514832,-0.25367262959480286
1733752195832276200,11.369276123046875,0.12552577257156372,-0.04963437840342522,-0.20011749863624573
1733752195842251300,11.379251220703125,0.11513955891132355,0.0640873983502388,-0.12932559847831726
1733752195852227300,11.389227294921875,0.10007325559854507,0.14341656863689423,-0.06243152171373367
1733752195862203100,11.399203125,0.09597138315439224,0.14733219146728516,-0.01596699096262455
1733752195872179200,11.40917919921875,0.09665314853191376,0.10964205861091614,-0.015111316926777363
1733752195882154200,11.419154296875,0.10176590830087662,0.08031673729419708,-0.048859644681215286
1733752195892130000,11.429130126953124,0.1140446811914444,0.063568115234375,-0.0891181230545044
1733752195902106400,11.4391064453125,0.12999488413333893,0.07723608613014221,-0.10997242480516434
1733752195912081200,11.4490810546875,0.16729964315891266,0.11039377003908157,-0.10720353573560715
1733752195922057200,11.45905712890625,0.18853743374347687,0.16976520419120789,-0.07969551533460617
1733752195932033300,11.469033203125,0.18139110505580902,0.2527506351470947,-0.03646761178970337
1733752195942009000,11.479009033203125,0.16336512565612793,0.3187698423862457,0.0073838867247104645
1733752195951984000,11.488984130859375,0.13754604756832123,0.32179972529411316,0.02270611748099327
1733752195961960200,11.498960205078125,0.12105821073055267,0.2557838261127472,0.02910917066037655
1733752195971936300,11.508936279296876,0.12668466567993164,0.18016628921031952,0.01395285502076149
1733752195981911300,11.518911376953126,0.1382075846195221,0.11526217311620712,0.006767256185412407
1733752195991887000,11.52888720703125,0.1612071841955185,0.04102762043476105,-0.006132563576102257
1733752196001863200,11.53886328125,0.1933136135339737,-0.00047864485532045364,-0.03236936777830124
1733752196011839200,11.548839111328125,0.23410364985466003,-0.03335350379347801,-0.05408691242337227
1733752196021814000,11.55881396484375,0.2761777639389038,-0.0470886155962944,-0.06025182083249092
1733752196031790300,11.568790283203125,0.3054317831993103,-0.06176503002643585,-0.050712909549474716
1733752196041766100,11.57876611328125,0.3105540871620178,-0.08350306004285812,-0.03549179807305336
1733752196051741200,11.5887412109375,0.2970058023929596,-0.07826647907495499,-0.04145248606801033
1733752196061717200,11.59871728515625,0.2622041702270508,-0.06669923663139343,-0.0763409361243248
1733752196071693000,11.608693115234376,0.25604960322380066,-0.09865929931402206,-0.110984668135643
1733752196081669000,11.618669189453126,0.26781323552131653,-0.13843895494937897,-0.1243911013007164
1733752196091644200,11.62864404296875,0.27439841628074646,-0.16726528108119965,-0.11786156892776489
1733752196101620200,11.6386201171875,0.27764803171157837,-0.17332205176353455,-0.09863437712192535
1733752196111596000,11.648595947265624,0.2860338091850281,-0.16674590110778809,-0.07980024069547653
1733752196121571300,11.6585712890625,0.3028707802295685,-0.14490750432014465,-0.07754044979810715
1733752196131547100,11.668547119140625,0.3248341381549835,-0.13815824687480927,-0.07609328627586365
1733752196141523200,11.678523193359375,0.3471194803714752,-0.1392519325017929,-0.07283592969179153
1733752196151499300,11.688499267578125,0.36058309674263,-0.15236374735832214,-0.06040429323911667
1733752196161474300,11.698474365234375,0.3754121661186218,-0.16893413662910461,-0.040793873369693756
1733752196171450000,11.7084501953125,0.3747868537902832,-0.1630679965019226,-0.03413117676973343
1733752196181426200,11.71842626953125,0.3777790665626526,-0.18841446936130524,-0.04004007205367088
1733752196191401200,11.728401123046876,0.39331886172294617,-0.26432546973228455,-0.06563358008861542
1733752196201377300,11.738377197265624,0.4396522641181946,-0.32566481828689575,-0.10919974744319916
1733752196211353300,11.748353271484374,0.484153151512146,-0.35706454515457153,-0.1531940996646881
1733752196221328400,11.758328369140624,0.5532320141792297,-0.34826746582984924,-0.18359622359275818
1733752196231304200,11.76830419921875,0.6045522093772888,-0.33781588077545166,-0.18367666006088257
1733752196241280000,11.778280029296875,0.6159679293632507,-0.30169710516929626,-0.1614215075969696
1733752196251256300,11.78825634765625,0.6335895657539368,-0.23298223316669464,-0.14722898602485657
1733752196261231000,11.798231201171875,0.633730947971344,-0.16612611711025238,-0.1477838009595871
1733752196271207200,11.808207275390625,0.6324920654296875,-0.12320368736982346,-0.1718806028366089
1733752196281183200,11.818183349609376,0.6494382619857788,-0.11178656667470932,-0.1727047860622406
1733752196291158300,11.828158203125,0.6823895573616028,-0.12156222760677338,-0.1349550187587738
1733752196301134000,11.838134033203126,0.7233456969261169,-0.12412437051534653,-0.07707351446151733
1733752196311110100,11.848110107421874,0.7543640732765198,-0.10629183799028397,-0.0381317138671875
1733752196321086200,11.858086181640624,0.7740564942359924,-0.1064499095082283,-0.024717649444937706
1733752196331061200,11.868061279296874,0.7883187532424927,-0.09439750760793686,-0.03727312386035919
1733752196341037300,11.878037353515625,0.7991032600402832,-0.13346324861049652,-0.07797645032405853
1733752196351013000,11.88801318359375,0.801959216594696,-0.21982502937316895,-0.1382613629102707
1733752196360988200,11.89798828125,0.8299803137779236,-0.3170431852340698,-0.19740773737430573
1733752196370964200,11.907964111328125,0.8578511476516724,-0.40705081820487976,-0.2288399636745453
1733752196380940300,11.917940185546875,0.8794641494750977,-0.46091869473457336,-0.21790911257266998
1733752196390915000,11.9279150390625,0.8746616840362549,-0.4915740489959717,-0.1913110464811325
1733752196400891400,11.937891357421876,0.8800668716430664,-0.48984038829803467,-0.18599212169647217
1733752196410867200,11.9478671875,0.8810868263244629,-0.4356301724910736,-0.1708400547504425
1733752196420843000,11.957843017578124,0.8429183959960938,-0.3429752588272095,-0.14031951129436493
1733752196430818000,11.967818115234374,0.8041350245475769,-0.29528072476387024,-0.10303392261266708
1733752196440794000,11.977794189453125,0.8055809140205383,-0.3337195813655853,-0.0820850059390068
1733752196450770200,11.987770263671875,0.8255842328071594,-0.4137073755264282,-0.07581991702318192
1733752196460745200,11.9977451171875,0.863421618938446,-0.5017303824424744,-0.09784368425607681
1733752196470721300,12.00772119140625,0.9206553101539612,-0.6120174527168274,-0.13448931276798248
1733752196480697000,12.017697021484375,0.9787297248840332,-0.6687275171279907,-0.17762532830238342
1733752196490673400,12.02767333984375,1.01431405544281,-0.6314414143562317,-0.20887912809848785
1733752196500648200,12.037648193359376,1.0185694694519043,-0.552311897277832,-0.21496590971946716
1733752196510624300,12.047624267578126,1.0197710990905762,-0.4964316487312317,-0.180759996175766
1733752196520600000,12.05760009765625,1.0323303937911987,-0.5144410729408264,-0.1378040313720703
1733752196530575400,12.067575439453124,1.0543744564056396,-0.5333420634269714,-0.11196257919073105
1733752196540551200,12.07755126953125,1.0431863069534302,-0.4921242892742157,-0.09237600862979889
1733752196550527000,12.08752685546875,1.0156444311141968,-0.40195924043655396,-0.06707358360290527
1733752196560503300,12.09750341796875,0.984894335269928,-0.31531694531440735,-0.03745950013399124
1733752196570478000,12.10747802734375,0.9435200095176697,-0.3000892698764801,0.002619210397824645
1733752196580454100,12.1174541015625,0.9345728754997253,-0.3712291121482849,0.0038717100396752357
1733752196590430200,12.12743017578125,0.9400877356529236,-0.5150522589683533,-0.032818395644426346
1733752196600405200,12.1374052734375,0.9837684631347656,-0.6594769358634949,-0.09827594459056854
1733752196610381000,12.147381103515626,1.020829200744629,-0.7589840888977051,-0.15706762671470642
1733752196620357400,12.157357421875,1.0265449285507202,-0.7210791110992432,-0.18084894120693207
1733752196630332200,12.167332275390624,0.9921115636825562,-0.6027055978775024,-0.13984958827495575
1733752196640308200,12.17730810546875,0.9520847797393799,-0.4706783890724182,-0.06592682749032974
1733752196650284300,12.1872841796875,0.9251301288604736,-0.38033172488212585,-0.015687622129917145
1733752196660260000,12.197260009765625,0.9157715439796448,-0.35108405351638794,-0.009334324859082699
1733752196670235100,12.207235107421875,0.9106167554855347,-0.3537890315055847,-0.023949220776557922
1733752196680211200,12.217211181640625,0.8960528373718262,-0.3328094184398651,-0.0450325571000576
1733752196690187300,12.227187255859375,0.8702946901321411,-0.27245232462882996,-0.058821603655815125
1733752196700162000,12.237162109375,0.8602420687675476,-0.2309422791004181,-0.06237277388572693
