time,seconds_elapsed,z,y,x
1733751186181109200,0.018109130859375,-0.032329321196675295,-0.3250491157233715,0.14019962106794118
1733751186191084000,0.028083984375,0.0726490566253662,-0.5565626733329146,0.09237754718512296
1733751186201059000,0.03805908203125,0.07440028420686721,-0.29135168451126664,-0.06743278328180313
1733751186211035100,0.04803515625,-0.0003384381741285324,0.006886745572742074,-0.04600362628400326
1733751186221010200,0.05801025390625,-0.06075228260457515,0.12499324757512659,0.1133770805940032
1733751186230986200,0.067986328125,-0.15073007517158984,0.1549695576385595,0.10199205548763275
1733751186240961000,0.0779609375,-0.17560732679665086,0.21126937261261045,0.2178796575978398
1733751186250937300,0.087937255859375,-0.16696692422330378,0.21144082018937915,0.05451338821500539
1733751186260912000,0.097912109375,-0.09211305103003978,0.17272227287963032,0.3876853123784065
1733751186270888200,0.10788818359375,-0.01874620152413845,0.07238298956770449,0.5955293136522174
1733751186280863200,0.11786328125,-0.08408113574385642,-0.05119496611570939,0.5013707282692194
1733751186290838300,0.12783837890625,-0.1416822608411312,-0.09923528585908933,0.2905509260550141
1733751186300814000,0.13781396484375,-0.30501638152003285,-0.222249981636554,-0.01477729789316654
1733751186310789000,0.1477890625,-0.5007949742078781,-0.14891696133501828,-0.07339081490337848
1733751186320765200,0.15776513671875,-0.5818097081184387,-0.07293967360239476,0.029938918928802013
1733751186330740200,0.167740234375,-0.4984031106352806,-0.2636563797907904,0.24177198983877896
1733751186340716000,0.177716064453125,-0.47105625402629375,-0.23894980855751782,0.23592472511529922
1733751186350691000,0.187691162109375,-0.7164578325390816,0.04645272175837308,0.37385055603235956
1733751186360666400,0.197666259765625,-0.971046926113963,0.6099457423437387,0.5529372493773699
1733751186370642200,0.20764208984375,-1.140169567066431,1.0356836489364505,0.5951715862557292
1733751186380617200,0.2176171875,-1.1201362483412027,0.8508907798390835,0.8599801682889461
1733751186390593300,0.22759326171875,-0.8903963493406772,0.4541037309858948,0.9898121245995163
1733751186400568300,0.237568359375,-0.7410878314048052,0.24162695534490047,0.6505167491197585
1733751186410544000,0.247544189453125,-0.6937737070441246,0.23496610921621322,0.0731330407500267
1733751186420519200,0.257519287109375,-0.6329670639038085,0.3803146374799311,-0.3289811944752931
1733751186430495200,0.2674951171875,-0.5552770905017852,0.45057351103313265,-0.24539164164066313
1733751186440470300,0.27747021484375,-0.39892333022952076,0.3809328424435109,0.011448737992346286
1733751186450445000,0.287445068359375,-0.31858430362343787,0.3388059845276177,0.13552899890840053
1733751186460421000,0.297421142578125,-0.3428910618841648,0.44983036451563235,0.09444120171666144
1733751186470396200,0.307396240234375,-0.41467327254712577,0.630386984282732,-0.03826484872549772
1733751186480372200,0.317372314453125,-0.33076281719505785,0.7165889115728438,-0.058036886166036125
1733751186490347300,0.32734716796875,-0.083354575034976,0.621763971235603,-0.041410453274846076
1733751186500323000,0.337322998046875,0.06688859340250491,0.5035816823169589,-0.15012714084237813
1733751186510298000,0.347298095703125,0.12416180171966552,0.3327013840422034,-0.3249515005677938
1733751186520273000,0.35727294921875,0.15802666192054748,0.18097630648389457,-0.45808571329414843
1733751186530249200,0.367249267578125,0.07332008775472641,0.040147447601705785,-0.41275048779100176
1733751186540224000,0.37722412109375,-0.15353051954507826,-0.05795549149289727,-0.25807225951552387
1733751186550200000,0.387199951171875,-0.3360416343808174,0.09053571871072054,-0.22090309707224368
1733751186560174800,0.3971748046875,-0.5057762697517871,0.3610752456113696,-0.22565905942767858
1733751186570151200,0.407151123046875,-0.5723533129870891,0.5926635489575565,-0.06145283208936452
1733751186580126000,0.4171259765625,-0.4698924709439277,0.7414082955308258,-0.06689940705746412
1733751186590102000,0.42710205078125,-0.28313422005772587,0.767668087555468,0.062552317763865
1733751186600077000,0.4370771484375,-0.12195230897665023,0.6969289562046528,0.10505173531919718
1733751186610052000,0.447052001953125,-0.1190039805650711,0.633686318089068,0.03342383843511343
1733751186620028000,0.45702783203125,-0.11685001740157604,0.5847052834294736,-0.05274900889098644
1733751186630003000,0.4670029296875,-0.08706921164393425,0.3301747881740331,-0.10251841744929552
1733751186639979000,0.47697900390625,-0.006150339323282242,-0.042119916718453165,-0.12809534177631138
1733751186649954000,0.4869541015625,0.09245908798873424,-0.3163108057335019,-0.057610477447509766
1733751186659930000,0.49693017578125,0.2261392441600561,-0.32809125989824534,-0.08153466613143683
1733751186669905000,0.50690478515625,0.35462475429773327,-0.27787586113810536,-0.14161942473798989
1733751186679880200,0.516880126953125,0.43902328542768954,-0.2470171970158815,-0.15136866533607243
1733751186689856000,0.52685595703125,0.4019359560489654,-0.20111966145485638,-0.19305004450678825
1733751186699831000,0.5368310546875,0.13971417563855648,0.06937251917272806,0.056306409111618994
1733751186709807000,0.54680712890625,0.009821136790513992,0.09592033435851335,-0.006049801558256149
1733751186719782100,0.5567822265625,-0.10514262847304344,0.029015082082152366,-0.023136253176629543
1733751186729758000,0.566758056640625,-0.15296762496531008,-0.043751171182096,0.029714754784107206
1733751186739733000,0.57673291015625,0.3889356047004461,-0.09482377129346131,-0.08381371697932481
1733751186749708000,0.5867080078125,0.322942498832941,-0.0710483434304595,0.07149228780567646
1733751186759684000,0.59668408203125,0.2775666490584612,-0.4117176376119256,-0.06223199976831674
1733751186769659100,0.6066591796875,-0.1378828685581684,-0.363189461286366,0.24397213023155925
1733751186779635000,0.616635009765625,-0.25234394499659535,-0.34757454352527856,0.16970540927648542
1733751186789610200,0.6266103515625,-0.2319073061674833,-0.2245508059248328,0.18694851276129484
1733751186799586000,0.6365859375,0.03234510328769684,0.05916676697880029,0.19091420152187347
1733751186809561000,0.64656103515625,0.38509646492898464,0.23452421066761014,-0.1367830906227231
1733751186819537200,0.656537109375,0.5329290650933981,0.26775135748684403,-0.15556728606969117
1733751186829512200,0.66651220703125,0.6017044951558113,0.1612961851105094,-0.32519524619579315
1733751186839487000,0.676487060546875,0.3696849607855081,0.25731179653704167,-0.21459435231685636
1733751186849463000,0.686463134765625,0.20289748478233813,0.16337299138456582,-0.2991340454831719
1733751186859437800,0.696437744140625,0.010316811352968216,0.06592325550168752,-0.22757833705246447
1733751186869414100,0.7064140625,-0.027926117801666258,-0.07118219894319772,-0.07280775431841612
1733751186879389000,0.716388916015625,0.24414777905941007,-0.2906394811213016,-0.1369856274574995
1733751186889365000,0.726364990234375,0.20011516058742998,-0.30657091748565435,0.17491437609642743
1733751186899340000,0.736340087890625,0.4462409617215395,-0.5195289007723332,0.01903378629386425
1733751186909315000,0.746315185546875,0.46056467062830925,-0.42105128314644097,-0.00407382531017065
1733751186919291100,0.756291015625,0.4957236622929573,-0.2979761076197028,-0.10935556999295949
1733751186929266000,0.766265869140625,0.5972784954071044,-0.09542875144928693,-0.06698474725335836
1733751186939242200,0.7762421875,0.8109931422799825,-0.07906798375695943,-0.19673487049937247
1733751186949217000,0.786217041015625,0.7327566409111023,-0.013044190490245819,-0.006143325060606003
1733751186959193000,0.796193115234375,0.6416974828481674,-0.13042962994277477,-0.09169307205229997
1733751186969168000,0.80616796875,0.6023422085374593,-0.1389312085673213,-0.02923047839850187
1733751186979144200,0.816144287109375,0.7416887199074029,-0.16985826175063848,0.0667284344047308
1733751186989119000,0.826118896484375,0.8411492110908031,-0.18213409821689128,0.07905103262215853
1733751186999094000,0.836093994140625,0.8068453749507665,-0.16350743141919374,0.1562593599870801
1733751187009070000,0.846070068359375,0.802504715397954,-0.18948826037198305,0.1527504750832915
1733751187019045000,0.856045166015625,0.9426566979318857,-0.19212591539919374,-0.14496405899077652
1733751187029021000,0.86602099609375,0.9925339507788419,-0.020385493163764475,-0.15837211435735224
1733751187038996000,0.875995849609375,1.0254553926497698,0.0585869212642312,-0.14795476523935794
1733751187048972000,0.885971923828125,1.019994204634428,0.09817103589475154,-0.08993424568623304
1733751187058947000,0.895947021484375,0.9274690656721591,-0.033139760796725745,0.01497603533565998
1733751187068922000,0.905922119140625,0.7644236988067626,-0.3616515841946006,0.10811930619627237
1733751187078898000,0.91589794921875,0.5778431425750256,-0.6383405736356973,0.14752806425988674
1733751187088873200,0.925873291015625,0.4459019390255213,-0.710526104402542,0.05369505756944418
1733751187098849000,0.93584912109375,0.4205243366628885,-0.5856438794538379,-0.07702391070872545
1733751187108824000,0.945823974609375,0.46689387364983553,-0.44538814428448675,-0.12886807971447706
1733751187118800100,0.955800048828125,0.45550563367307184,-0.300305135089159,-0.02813654568195343
1733751187128775200,0.965775146484375,0.3561632159113884,-0.1198383855625987,0.0866293589219451
1733751187138750000,0.97575,0.2747369785904884,-0.05454495239704847,0.1083572066053748
1733751187148726000,0.98572607421875,0.2510673491895199,-0.14708850379884242,0.12989566919654608
1733751187158701000,0.995701171875,0.3406120110362768,-0.3062473846197128,0.1531190161347389
1733751187168677000,1.005677001953125,0.5455845485270023,-0.4619985028237104,0.1309983697414398
1733751187178652200,1.015652099609375,0.781816147634387,-0.5650856600716709,0.022145196312665937
1733751187188628000,1.0256279296875,0.9652028762608766,-0.606253829023242,-0.16340163295716045
1733751187198603300,1.035603271484375,1.0241770432770252,-0.5776704163566231,-0.2833975471690297
1733751187208579000,1.0455791015625,1.0113286676198243,-0.4555032955855131,-0.475798480117321
1733751187218554000,1.05555419921875,0.7460387318104506,-0.20234744968414306,-0.2956903347700834
1733751187228529000,1.06552880859375,0.48800797334909435,-0.10149638092517853,-0.0892906870856881
1733751187238505200,1.075505126953125,0.32999533995389935,-0.1024764780037105,0.2249322064578533
1733751187248480000,1.08547998046875,0.2085018806606531,-0.0750827135130763,0.5176102076694369
1733751187258456000,1.0954560546875,0.14297931491434573,-0.02352832123413682,0.56234600597471
1733751187268430800,1.105430908203125,0.15332535236179828,0.031047756953537464,0.31888124074339863
1733751187278407200,1.1154072265625,0.2328969017267227,-0.02867445195093751,0.17749533250033855
1733751187288382000,1.1253818359375,0.2941156327992678,-0.13257321784272788,-0.03879471781849861
1733751187298357000,1.13535693359375,0.3184048554033041,-0.25178411915674803,-0.036843876011669635
1733751187308333000,1.1453330078125,0.34145372255742545,-0.40540962350890036,-0.2172401906505227
1733751187318308000,1.15530810546875,0.34697803893685336,-0.5249975414417684,-0.27699469438940283
1733751187328284000,1.165283935546875,0.291961085113883,-0.5911250873439013,-0.08618570680767297
1733751187338259000,1.175259033203125,0.16947335408627986,-0.5101987623691558,0.18218465936034917
1733751187348235000,1.185235107421875,-0.07942308080494404,-0.4269485244914889,0.1832347529351711
1733751187358210000,1.1952099609375,0.09317220469415187,-0.47384530022293325,0.32718320514261723
1733751187368186000,1.20518603515625,1.214508476474881,-0.06054141633287072,0.2556744045935571
1733751187378161000,1.215160888671875,0.017581833919882772,-0.18221162043251096,-0.15328881974369288
1733751187388136200,1.22513623046875,-1.4408932198286055,-0.6175861740943044,-0.004824935938417911
1733751187398112000,1.235112060546875,-1.775478225660324,-0.6644537967965006,0.25828663291856646
1733751187408087000,1.245087158203125,-1.301087858775258,-0.8834215418919921,-0.0705548608250916
1733751187418063000,1.25506298828125,-0.5439724371552467,-0.7706512680847197,0.0008157002970576285
1733751187428038100,1.2650380859375,-0.18550503595471382,-0.596873567868024,-0.1057965623371303
1733751187438014000,1.275013916015625,-0.08110124315023422,-0.2984155219502747,-0.18947963867411016
1733751187447989000,1.284989013671875,0.3920195421904325,0.13317023388780652,0.01812573153823614
1733751187457964000,1.294964111328125,1.096091940408945,0.5031273992108181,0.1523418942824006
1733751187467940000,1.304940185546875,0.7392261291861534,0.32145204107947645,-0.015761925016343593
1733751187477915100,1.3149150390625,0.11110767435729503,-0.22454070465592665,-0.2250420965731144
1733751187487891000,1.324890869140625,-0.46760815939903255,-0.4043748736336827,-0.22599399047046898
1733751187497866200,1.3348662109375,-0.8889023113906382,-0.2547292326979339,-0.07027165996953845
1733751187507842000,1.344842041015625,-1.2495137388825417,0.029291572352417278,0.04878828856647014
1733751187517817600,1.354817626953125,-1.3591700453877449,0.40543245639521625,0.2650435598328709
1733751187527792400,1.36479248046875,-1.4231722696989775,0.8354705809324979,0.3945636737152934
1733751187537768700,1.374768798828125,-1.352112528091669,0.95410200185813,0.5503196142248808
1733751187547743500,1.384743408203125,-1.299217388728261,0.9079387280330061,0.6763130152858793
1733751187557719600,1.394719482421875,-1.281854165995121,0.6942298533137887,0.7282350718334317
1733751187567694600,1.404694580078125,-1.2715700878679752,0.4671833946483209,0.7102410038508474
1733751187577670700,1.414670654296875,-1.1869038457125425,0.3027478885987773,0.620926643628627
1733751187587645400,1.4246455078125,-1.1364888327270746,0.17734978654980657,0.4554603332266211
1733751187597621500,1.43462158203125,-1.0561229181140661,0.17913772941250353,0.32562501591518517
1733751187607596500,1.444596435546875,-0.942176805460453,0.19813695584964006,0.07508388255685568
1733751187617571600,1.454571533203125,-0.7602478744268417,0.32630119814369823,-0.11497194857001304
1733751187627547400,1.46454736328125,-0.5390262129247189,0.5119745764026418,-0.21015885408744214
1733751187637522400,1.4745224609375,-0.32868542639911175,0.6592685031130909,-0.18556801818832755
1733751187647498500,1.48449853515625,-0.12851181362271308,0.7210779666204005,-0.12103826287165284
1733751187657473500,1.4944736328125,-0.07555003876388072,0.7070860469512641,-0.059052054557949304
1733751187667449600,1.50444970703125,-0.11313012009561062,0.6708642483606934,0.089211630500108
1733751187677424600,1.514424560546875,-0.24657471394538877,0.5922052837960422,0.15074337304458021
1733751187687399700,1.524399658203125,-0.4272480919599533,0.5674607917051762,0.19854557318314908
1733751187697375500,1.53437548828125,-0.7259504680275917,0.6755014066420495,0.1662434322543442
1733751187707350500,1.5443505859375,-0.9734043028950691,0.8267835627384483,0.08293634962290525
1733751187717326600,1.55432666015625,-1.1116858153820037,0.9330039034456014,-0.021066168904304503
1733751187727301600,1.564301513671875,-1.1985510288864374,1.0271414460405708,-0.09358940719291567
1733751187737277400,1.57427734375,-1.2045862173974513,1.0915253631457686,0.008045797681063413
1733751187747252500,1.58425244140625,-1.2547177372664213,1.1078951909273862,0.16869418640732764
1733751187757227800,1.594227783203125,-1.345814304730296,1.1255290472954511,0.3626635377161205
1733751187767203600,1.60420361328125,-1.4430512746453283,1.165192364642024,0.43237990189045666
1733751187777178600,1.6141787109375,-1.5958441275656223,1.2715521138198673,0.41548911897465585
1733751187787154400,1.624154541015625,-1.7326257568836212,1.4088177272625266,0.2819296665735543
1733751187797129700,1.634129638671875,-1.7717659271389246,1.4999385523848234,0.10744929798021911
1733751187807105500,1.64410546875,-1.7155045262128115,1.5472978310614824,-0.07869608170464634
1733751187817080600,1.65408056640625,-1.6229723729878662,1.482923850828409,-0.1706057191170752
1733751187827055400,1.664055419921875,-1.4026789322465658,1.3203664136104285,-0.24029914080724118
1733751187837031700,1.67403173828125,-1.083674941906333,1.1704936859205364,-0.1814240502513945
1733751187847006500,1.68400634765625,-0.765784465765953,0.8925128300379961,0.03460851817503571
1733751187856982500,1.693982421875,-0.527321162083745,0.6653887395590543,0.2005019679479301
1733751187866957600,1.70395751953125,-0.5570148740798234,0.4259713865550235,0.2929635401546955
1733751187876933600,1.71393359375,-0.681508684232831,0.305319675315544,0.463429704670608
1733751187886908400,1.723908447265625,-0.8973995061010122,0.23179354359470306,0.6128055887542665
1733751187896884500,1.733884521484375,-1.0606845269411802,0.11535999803952872,0.7794276450626552
1733751187906859500,1.743859619140625,-1.1444885993093252,-0.08897204959057271,1.0688074815116821
1733751187916834600,1.75383447265625,-1.144403259113431,0.08081950359940529,0.4940224113330245
1733751187926810600,1.763810546875,-0.9656225629776716,0.09724676065668462,0.4062305845029652
1733751187936785400,1.773785400390625,-0.69909753241539,0.024313845588639377,0.5632553759045899
1733751187946761700,1.78376171875,-0.4226975890487432,-0.03674655311703682,0.674262220235914
1733751187956736500,1.793736572265625,-0.23251696249842643,-0.09818170341923832,0.5178763112597167
1733751187966712600,1.803712646484375,0.08683014219105244,-0.05418079525977373,0.897446560113132
1733751187976687400,1.813687255859375,0.292860079780221,-0.28812545247375965,0.772758542562276
1733751187986662700,1.82366259765625,0.5570569596558809,-0.19304668350592255,-0.0073494859799742695
1733751187996638500,1.833638427734375,0.7914180887162685,-0.2151196913652122,-0.5247748386017977
1733751188006613500,1.843613525390625,1.051387706285715,-0.17432941581532357,-0.49792964790463445
1733751188016589600,1.853589599609375,1.4394149639695881,0.21190876649469137,-0.42696708306148645
1733751188026564600,1.863564697265625,1.0370318486750125,0.35872634439766404,0.07129340423271059
1733751188036540400,1.87354052734375,0.8683966989785432,0.48080593301579355,0.2449979661479592
1733751188046515500,1.883515380859375,0.9936743529856205,0.506355677074939,0.2970005405858159
1733751188056490800,1.89349072265625,1.111683477294445,0.4987751588180661,0.19694822098910808
1733751188066466600,1.903466552734375,1.2555857522726057,0.40396687735468145,0.1970152948759496
1733751188076441600,1.913441650390625,1.3067401854485272,0.18231223126277327,0.23264526505321262
1733751188086417400,1.92341748046875,1.0389531721264122,-0.2162060252971947,0.04036094422191381
1733751188096392700,1.933392822265625,0.863324218019843,-0.7802116350471973,-0.10872092535123229
1733751188106368500,1.943368408203125,0.8379419394820928,-1.1570945445127785,-0.08207184174805879
1733751188116343600,1.953343505859375,0.6840425866246223,-1.0734459549672901,-0.5642119459770619
1733751188126318300,1.963318359375,0.5701292071968317,-1.0447191883072255,-0.5770534535020589
1733751188136294700,1.973294677734375,0.7337894910901784,-0.768412183921039,-0.4113998038344085
1733751188146269400,1.98326953125,0.9232616771101951,-1.0170146043017505,-0.5484862613178789
1733751188156245500,1.99324560546875,0.9353425755262375,-1.3571420466914772,-0.6561750671423972
1733751188166220500,2.003220458984375,0.9650777885764836,-1.3772221271678804,-0.1875343498252332
1733751188176196600,2.013196533203125,0.9343938964992761,-0.3398530093625188,0.2826141417063773
1733751188186171600,2.023171630859375,1.208932137647271,-0.11591770498752593,-0.30512364128679037
1733751188196146400,2.033146484375,1.3298627023607492,-0.5456789488121867,-0.37944238469004626
1733751188206122800,2.043122802734375,1.4020061475515364,0.23713468542695043,0.29249738394767044
1733751188216097500,2.05309765625,1.7138135043859481,-0.3173626528739929,-0.39184681597203014
1733751188226073600,2.063073486328125,1.529316184169054,-0.022884324242174625,-0.013025485789775847
1733751188236048400,2.07304833984375,1.757497747811675,-0.08060556858778,0.03204056738317013
1733751188246024700,2.083024658203125,1.644922338989377,-0.22878946640789508,-0.06747004655227065
1733751188255999500,2.09299951171875,1.7950667232275008,-0.27615795130431653,0.1509584770999849
1733751188265975600,2.1029755859375,1.6545763025194407,-0.4917258248284459,-0.035317250966280696
1733751188275950300,2.112950439453125,1.690320400595665,-0.8953174391299485,-0.4044659129180014
1733751188285925600,2.122925537109375,1.5198820008695124,-0.7802902532413601,-0.12529723549038171
1733751188295901400,2.1329013671875,1.2801327490299939,-1.0543015479058027,-0.39759909588843584
1733751188305876500,2.14287646484375,1.0322165573477744,-0.9975111546695232,-0.4712139288060367
1733751188315852500,2.1528525390625,0.9260077609479427,-0.4185062748387456,-0.20681845761835574
1733751188325827600,2.16282763671875,0.8330518293529748,-0.05946574992537498,-0.29747699899114666
1733751188335803400,2.172803466796875,0.7348784553706645,0.0956762964695692,-0.3870660845015198
1733751188345778400,2.1827783203125,0.6173416247487068,0.10624386771321297,-0.36546493193767965
1733751188355753700,2.192753662109375,0.5556710582554341,0.039113866770267486,-0.34308249280303715
1733751188365729500,2.2027294921875,0.5607926390528678,-0.08403349720984697,-0.22337430949136614
1733751188375704600,2.21270458984375,0.6831558669179677,-0.23914105681329964,-0.13703852668851613
1733751188385680400,2.222680419921875,0.675436086320877,-0.37965690422356124,-0.15658157767876982
1733751188395655700,2.23265576171875,0.4486012611120939,-0.4809177228271961,-0.31313480604588984
1733751188405631500,2.242631591796875,0.17806290325522423,-0.669466364261508,-0.47442383076325056
1733751188415606500,2.2526064453125,-0.011095979031920432,-0.7930755005344748,-0.6618208179444074
1733751188425581600,2.26258154296875,-0.08947393469810486,-0.6552580984279514,-0.45519583707153793
1733751188435557600,2.2725576171875,0.041213469398021695,-0.885387289007008,-0.11396744770258664
1733751188445532700,2.28253271484375,0.4246288493722677,-0.4930184949874878,0.18780264537259936
1733751188455508500,2.292508544921875,0.6190256323128939,0.05230418773293495,0.1084894546829164
1733751188465483800,2.30248388671875,0.7292372346132994,0.38844372953027484,-0.04090075018703937
1733751188475459600,2.31245947265625,0.8391635902315377,0.22036548306420445,-0.06444762999117375
1733751188485434600,2.3224345703125,0.8592197053104639,-0.07634016622826456,0.06273819572478533
1733751188495409400,2.332409423828125,0.7713005988389253,-0.1615171343848109,0.14327800559997558
1733751188505385700,2.3423857421875,0.6216320154190063,-0.10278934334516525,-0.041003626039624215
1733751188515360800,2.35236083984375,0.26357261049747466,0.14561711607202887,-0.20601985458657143
1733751188525336800,2.3623369140625,-0.043240006789565084,0.26614070741981266,-0.15994330919682978
1733751188535311600,2.3723115234375,-0.04114508033692837,0.1571580623924732,-0.0840505944751203
1733751188545288000,2.382287841796875,0.2462649173438549,-0.0460910123065114,-0.0943950244873762
1733751188555262700,2.3922626953125,0.4263017510205507,-0.042549540307372805,-0.02807107923030853
1733751188565237800,2.40223779296875,0.5064940626323223,-0.04979527365192771,-0.020709464421123265
1733751188575213800,2.4122138671875,0.49129240184724327,-0.0886526814430952,-0.10743044714927673
1733751188585188900,2.42218896484375,0.41172552865743633,-0.24121844760924577,-0.2668694600857794
1733751188595164700,2.43216455078125,0.2181663655847311,-0.04705211242362856,0.14498641695305703
1733751188605139700,2.4421396484375,0.08668810337185859,-0.06920958369597792,0.25466888081282374
1733751188615115800,2.45211572265625,-0.015481646770238876,-0.4481003258526325,-0.2743364349655807
1733751188625090800,2.4620908203125,-0.23890637127459047,-0.2841606404960155,0.12685381728261708
1733751188635065900,2.47206591796875,-0.22015607809722423,-0.4210902999825775,0.08471139647141099
1733751188645041700,2.482041748046875,-0.16355740804076194,-0.4381434338532388,-0.1526687881492078
1733751188655017000,2.492016845703125,-0.08201835799515247,-0.2561544431954622,0.07317337276041508
1733751188664992800,2.50199267578125,-0.06931728185415267,-0.2787766093701124,-0.10694456332847475
1733751188674967800,2.5119677734375,-0.18344225820600985,-0.1722569934554398,-0.05230579516813159
1733751188684944000,2.52194384765625,-0.1998836899191141,-0.33103703102655707,-0.14683701325580475
1733751188694919000,2.5319189453125,-0.400495109590888,-0.12294833427667617,-0.2931229685001075
1733751188704894700,2.541894775390625,-0.4282435327380895,0.21449907524883746,0.1325280635267496
1733751188714869800,2.551869873046875,-0.21339842053055763,0.03522160857208073,-0.10793372049629688
1733751188724844800,2.5618447265625,-0.1750485238701105,0.3013474837489426,0.26890038139149547
1733751188734820900,2.57182080078125,-0.3001829700142145,0.35722573057636614,0.5790853977210819
1733751188744796000,2.5817958984375,-0.25778993544280526,0.23412271719463168,0.388540467903018
1733751188754771700,2.591771728515625,-0.20534078628122807,0.2695980447994545,0.3020037557005882
1733751188764747000,2.6017470703125,-0.33426936401128765,0.3826173979969695,0.3742548990495503
1733751188774722800,2.611722900390625,-0.5913987897187472,0.433082168408297,0.3628492695465684
1733751188784697900,2.62169775390625,-0.7593336821913719,0.4145069395368918,0.4093231436908245
1733751188794672600,2.631672607421875,-0.8071282835453748,0.3315319749366492,0.426314318241179
1733751188804649000,2.64164892578125,-0.7599830860108137,0.23995197133738547,0.3742090140812099
1733751188814623700,2.651623779296875,-0.6539613366156816,0.09852339299637823,0.25859993665143843
1733751188824599800,2.661599853515625,-0.5673153188198804,-0.051267318965867156,0.15951441626027227
1733751188834574600,2.67157470703125,-0.5230576594203711,-0.09228132026903331,0.12182780581414698
1733751188844551000,2.681551025390625,-0.5883505080640316,-0.06425631780331023,0.19840148853734135
1733751188854525700,2.691525634765625,-0.5344996754109859,-0.02376450004361104,0.2853551109775901
1733751188864500700,2.701500732421875,-0.43903965204060075,0.002560753866098821,0.3237584913909435
1733751188874476800,2.711476806640625,-0.33032267221212386,0.006230619751568883,0.3935102191396057
1733751188884451800,2.721451904296875,-0.18343465942144394,-0.005096555954031646,0.37183000999018545
1733751188894428000,2.731427978515625,-0.091053312844038,-0.015687416741717607,0.3254292010821402
1733751188904402700,2.741402587890625,-0.020382862815260885,0.02876560083311051,0.2411390987627208
1733751188914379000,2.75137890625,-0.03373392729759216,-0.03312905673962086,0.23979645198211072
1733751188924353800,2.761353759765625,0.12069324882626532,-0.14424239365272223,0.12240808992013334
1733751188934329900,2.771329833984375,0.29183132125437256,-0.24112503370475022,-0.02826996280327439
1733751188944304600,2.7813046875,0.20551555832624435,-0.3521358235588297,-0.04782178162187337
1733751188954280000,2.791280029296875,0.08946458234786987,-0.3821124076168984,-0.03891571384966373
1733751188964255700,2.801255859375,-0.20094985784590244,-0.4326245973665267,-0.06765811647027731
1733751188974230800,2.811230712890625,-0.5211760834574699,-0.43719307432584464,-0.014494681559503078
1733751188984206800,2.821206787109375,-0.8597194715261459,-0.29949878714233635,-0.12019523617625236
1733751188994182000,2.831181884765625,-1.4033616538137197,-0.1352027626287192,-0.051795945949852464
1733751189004157700,2.84115771484375,-1.8465864825844764,0.08520677877292036,0.20974881198182702
1733751189014132700,2.8511328125,-2.178878993564844,0.39499673137031494,0.26999679832607504
1733751189024107800,2.861107666015625,-2.3321996697515246,0.6962102865412831,0.3739163147449493
1733751189034083800,2.871083740234375,-2.2560773840576407,1.00667682322599,0.3270966959029436
1733751189044059000,2.881058837890625,-1.8112118023425339,1.4101765945255755,0.6683046270057559
1733751189054034700,2.89103466796875,-1.3954904820472,1.4882427077636122,0.33399726907163857
1733751189064010000,2.901010009765625,-1.053640453648567,1.3058484973058104,-0.061545478808879846
1733751189073985800,2.91098583984375,-0.9009539837121963,0.98072280921489,-0.43507469393238424
1733751189083960800,2.9209609375,-0.8797656497329474,0.6884506123252213,-0.7575980905704199
1733751189093935600,2.930935546875,-1.0108324085354805,0.772556809445098,-0.49013753272369504
1733751189103912000,2.940911865234375,-1.2947329367905855,0.6889861074414104,-0.3094143242180347
1733751189113886700,2.95088671875,-1.5717179865688085,0.8339211595334112,-0.16264949941560625
1733751189123862800,2.96086279296875,-1.6138760433405637,0.9387393783576786,0.21469868947416543
1733751189133837800,2.970837890625,-1.6031734475404023,0.8568461080469191,0.3019013182394206
1733751189143814000,2.98081396484375,-1.690007096862793,0.9605760932430625,0.28448198140487074
1733751189153789000,2.990788818359375,-1.696105413737893,1.1659432560745626,0.27844343189299103
1733751189163763700,3.000763671875,-1.5370248588502406,1.1768714042589068,0.5896769343622028
1733751189173740000,3.010739990234375,-1.1609148334532975,1.1066646262191235,0.7865202336721122
1733751189183714800,3.02071484375,-0.7314134096086025,0.9535067393787204,0.7430439339086413
1733751189193691000,3.03069091796875,-0.4557207377284765,0.732286612246558,0.519249499309063
1733751189203665700,3.040665771484375,-0.4062807072550058,0.609703969477117,0.3980959394946694
1733751189213642000,3.05064208984375,-0.4623562302201986,0.5555486009195446,0.3539773963049054
1733751189223616800,3.06061669921875,-0.5463134473234414,0.43447285558171567,0.5105344240643084
1733751189233592800,3.0705927734375,-0.5389321049004793,0.171204872320313,0.35423093267455696
1733751189243567600,3.080567626953125,-0.4444096546411514,-0.10449826615490018,0.2517893798537552
1733751189253543000,3.09054296875,-0.3695727325826883,-0.21917864789981395,0.5220224711537361
1733751189263518700,3.100518798828125,-0.3768494455873966,-0.17981756490282713,0.4335528911925852
1733751189273493800,3.11049365234375,-0.4695230531096458,-0.09489705572538078,0.18377105176895855
1733751189283469800,3.1204697265625,-0.483937362909317,-0.08629362416155636,-0.055399377269297834
1733751189293444900,3.13044482421875,-0.3572954348117113,-0.06178513278365135,-0.22748232933208345
1733751189303420700,3.140420654296875,-0.1773404341995716,-0.07373560975305736,-0.512183652576059
1733751189313395700,3.150395751953125,-0.010852233403921127,0.04655877594873309,-0.3101385468393564
1733751189323370800,3.160370849609375,0.08120178091526031,0.04171827711500227,-0.2991911824978888
1733751189333346800,3.170346923828125,0.09765957924127579,-0.005809051604941487,-0.4319337655581534
1733751189343321900,3.18032177734375,0.0639005175024271,-0.06452829401195048,-0.4546398106239736
1733751189353297700,3.190297607421875,-0.0730067840218544,0.026023645181208848,-0.24891031728610394
1733751189363273000,3.20027294921875,-0.04606500108242035,0.08153262030482292,-0.03406301312148571
1733751189373248800,3.210248779296875,0.051259647116065024,0.07571516619771719,0.14468568044081329
1733751189383223800,3.220223876953125,0.26718378673195836,0.06666326021403074,0.597218728043884
1733751189393199600,3.23019970703125,0.45116555864214897,0.07285846159234642,0.6546975419357418
1733751189403175000,3.2401748046875,0.48530806674063204,0.16822803020030258,0.6744589118517935
1733751189413150000,3.25014990234375,0.5348299302786589,0.15788652279749513,0.7823802112579346
1733751189423125800,3.260125732421875,0.4972486799031496,0.0439746046744287,0.6406976581558584
1733751189433100800,3.270100830078125,0.3611597090244293,0.026650106516480445,0.3425928095899522
1733751189443076900,3.280076904296875,0.1725508618354797,0.0797786162443459,0.06365969448387622
1733751189453052000,3.290052001953125,0.02982522942125797,0.1355072254680097,-0.11715119230523705
1733751189463026700,3.300026611328125,-0.09875906491577624,0.07475128960162401,-0.11397153935581444
1733751189473003000,3.3100029296875,-0.008643909704685211,0.13262684772610664,-0.33242914297208187
1733751189482977800,3.319977783203125,0.2640899123698473,0.19751696078777312,-0.39646731537953017
1733751189492953900,3.329953857421875,0.3979986166000366,0.10932166772335768,-0.1314485977269709
1733751189502928600,3.3399287109375,0.4652642266213894,0.1735086009517312,0.030100100839883088
1733751189512904200,3.349904296875,0.5145972895890474,0.1856000207617879,0.12558087473735213
1733751189522879200,3.359879150390625,0.6257990719705819,0.17410247519165276,0.22025632360130548
1733751189532855000,3.36985498046875,0.7741074729532003,0.011277180817723274,0.13458601896986364
1733751189542830000,3.379830078125,0.7460925078243017,0.08546294549107551,0.1541768546245992
1733751189552805000,3.38980517578125,0.7184387772232294,-0.06354688175916672,0.07864873543158173
1733751189562781200,3.39978125,0.4467904122978449,-0.26871815669238563,0.12452347463890909
1733751189572756000,3.409755859375,0.24465748214721678,-0.32023353213518857,-0.37998350582942364
1733751189582732300,3.419732177734375,0.15414543657302857,-0.4226972967877984,-0.7960274822078645
1733751189592707000,3.42970703125,0.10469196209609508,-0.1929240800395608,-0.4722916410401463
1733751189602683100,3.43968310546875,0.3857511294454336,-0.5632824100419879,-0.5515891957692801
1733751189612658000,3.449657958984375,0.46114977703988547,-0.23872867662012576,-0.29799598136395217
1733751189622633000,3.459633056640625,0.6303922449797391,-0.28613194056898356,0.01632452733516693
1733751189632609000,3.469609130859375,0.7424070973098278,-0.42725949013680214,0.22843963005691764
1733751189642584000,3.479583984375,0.8812818995147943,-0.3295569485366344,0.33637685768455267
1733751189652560000,3.489559814453125,0.9487538457632064,0.221254979249835,0.712908761755377
1733751189662535200,3.49953515625,1.1038444542318582,-0.21247107655256986,0.4537251799970865
1733751189672511000,3.509510986328125,0.9131734138160943,-0.21999708814322946,0.3363150444947183
1733751189682486000,3.519486083984375,0.8357388764798641,-0.23513299021571873,-0.22174290889725087
1733751189692461000,3.5294609375,0.7123316925197839,0.05460369684696197,-0.15856588336378336
1733751189702437000,3.53943701171875,0.8201520157694816,0.0876373669207096,-0.31770912822410463
1733751189712412200,3.549412109375,0.9724959558784961,-0.580145574298501,-0.7303609779462218
1733751189722388000,3.559387939453125,1.0464140095263719,-0.24615882662087676,-0.4466415053464472
1733751189732363000,3.569363037109375,1.247903381076455,-0.1414654032200575,-0.10099500727429986
1733751189742339000,3.579339111328125,1.2885837665110826,-0.6044231064647436,-0.46299394360184665
1733751189752314000,3.589314208984375,1.0415782599329948,-0.29069997913688417,-0.3045641077078879
1733751189762289200,3.5992890625,0.861716782823205,0.23700112217515706,-0.5196060576617717
1733751189772265200,3.60926513671875,0.808970696541667,0.26733547016233206,-0.5047605168379843
1733751189782240300,3.619240234375,0.8427806116849184,0.2615489957153797,-0.5701366598509252
1733751189792216000,3.629216064453125,0.9494617017716169,0.17091478506624697,-0.5503798199795186
1733751189802191000,3.639191162109375,1.09708971927464,0.17598405115455387,-0.4905306236945092
1733751189812167200,3.649167236328125,1.2358002708286047,0.23598843800127506,-0.22731778642013667
1733751189822142200,3.65914208984375,1.379057818162441,0.3185170836061239,0.10386471749171614
1733751189832117000,3.669116943359375,1.5332447557896374,0.2955971035286784,0.3789825120933354
1733751189842093000,3.679093017578125,1.4933862081319094,0.23482933109402654,0.472093634250015
1733751189852068000,3.689068115234375,1.4027058202534912,0.1888221976786852,0.3135761200726032
1733751189862044200,3.699044189453125,1.2932558499753475,0.21985855645537375,0.03564209900647402
1733751189872019000,3.70901904296875,0.7762251957595347,0.1697255752816796,-0.20009484845176337
1733751189881995300,3.718995361328125,0.15298165349066256,0.223265442289412,-0.6128003280572593
1733751189891970000,3.728969970703125,-0.17528817784488201,0.19036533546745776,-0.9032504240863025
1733751189901946000,3.738946044921875,-0.08756430168449879,0.05032441209256649,-0.8375653612546622
1733751189911921200,3.748921142578125,0.2533791332632303,-0.16880203069597483,-0.5563571408234537
1733751189921896000,3.75889599609375,0.6086719960808754,-0.3587204991787672,-0.16196575493514537
1733751189931872300,3.768872314453125,0.9696575175821781,-0.45426849309355016,0.2730592546366155
1733751189941847000,3.778846923828125,1.1943418867588043,-0.4480632087126374,0.5303216590739787
1733751189951823000,3.788822998046875,1.0328536862075328,-0.30904052246958014,0.6533288839310407
1733751189961798100,3.798798095703125,0.6043903732389211,-0.053097676198184486,0.6171585232667625
1733751189971774200,3.808774169921875,0.1050917750686407,0.19429361482709645,0.5035090554721653
1733751189981749000,3.8187490234375,-0.20799802279174326,0.2928602259106934,0.33102804400250313
1733751189991724000,3.82872412109375,-0.03833411456942558,0.20537804955169559,0.23581804987043142
1733751190001700000,3.8387001953125,0.21959669064879417,-0.017139935371279714,0.15635346801131964
1733751190011675100,3.848675048828125,0.26475276019275185,-0.25356179635375736,0.096259503185004
1733751190021651000,3.85865087890625,0.1366670630276203,-0.5037494400992989,0.03671761928349733
1733751190031626000,3.8686259765625,-0.05807809495925903,-0.6645246700756251,0.018914689958840606
1733751190041602000,3.87860205078125,-0.21262685163617132,-0.6573205839157105,-0.05074278363510966
1733751190051577000,3.8885771484375,-0.31355799989402294,-0.4361795864343643,-0.07587802860923111
1733751190061552000,3.89855224609375,-0.2677262230455875,-0.2322488130815327,-0.05999138123467564
1733751190071528200,3.908528076171875,-0.10313011960685252,-0.1438689572304487,-0.09447115846350788
1733751190081503200,3.918503173828125,0.05209317533075809,-0.10742942423596978,-0.11266703262850641
1733751190091479000,3.92847900390625,0.2047381442129612,-0.12258607683554291,-0.12134170279763638
1733751190101454000,3.9384541015625,0.41269817308187484,-0.22026289947256444,-0.08435344987921416
1733751190111430100,3.94843017578125,0.6241203251034021,-0.365548591633141,-0.06203107036873698
1733751190121405200,3.9584052734375,0.6913210531949997,-0.4352953509457409,-0.06084500238932669
1733751190131381000,3.968381103515625,0.5785954222470522,-0.45671763981133695,-0.0896476838298142
1733751190141356000,3.97835595703125,0.19359248082041738,-0.34244784816130996,-0.18799181126914918
1733751190151331000,3.9883310546875,-0.07358721425831317,-0.25898674401193855,-0.21426921201571822
1733751190161307100,3.99830712890625,-0.29516894124448295,-0.09356164240315556,-0.34968956291787323
1733751190171282200,4.0082822265625,-0.46589258765280245,0.07442775673568248,-0.4331857383806258
1733751190181258200,4.01825830078125,-0.4672849187940359,0.15242789206542073,-0.37794016343355175
1733751190191233300,4.0282333984375,-0.3530348547577858,0.11265592671260237,-0.31772337594516575
1733751190201209000,4.038208984375,-0.09529109654426574,-0.1299101361133158,-0.33785007204227147
1733751190211184000,4.04818408203125,0.2357762565553188,-0.19498495809212327,0.06619213557094335
1733751190221159000,4.058158935546875,0.3581833235621452,-0.3385165000617504,0.407286523296684
1733751190231135200,4.06813525390625,0.15925181980133055,-0.5809723074462264,0.38065073756650086
1733751190241110000,4.078110107421875,0.01007306572496891,-0.6695411099981516,0.42709998872615396
1733751190251086000,4.088086181640625,0.023648002091050148,-0.7904607879914343,0.4450110546004027
1733751190261061000,4.09806103515625,0.11162848336100578,-0.7533984469234943,0.300750833030045
1733751190271037200,4.108037109375,0.009841595056653022,-0.40791378834955394,0.5500657125290483
1733751190281012000,4.118011962890625,0.08949848461747169,-0.2678409719990566,0.5046085411466658
1733751190290987000,4.127987060546875,0.11934241873919964,-0.17283983484469354,0.2591526751633733
1733751190300963000,4.137963134765625,0.030173604467511175,-0.08997954613268375,0.02205386476740241
1733751190310938000,4.147938232421875,-0.13648995289504529,0.00013871435094624758,-0.06376994992531836
1733751190320914000,4.157913818359375,-0.32900691343843935,0.08450014660721644,-0.030409020658582447
1733751190330889000,4.167888916015625,-0.5239543159991502,0.17232165618948636,0.048163580796867604
1733751190340865000,4.177864990234375,-0.6865601224035024,0.2545477021185681,0.10690496197044849
1733751190350840000,4.187840087890625,-0.7655734533637761,0.2884674343118444,0.16254428547546265
1733751190360815000,4.197815185546875,-0.6599404110252857,0.2641035207700915,0.18066081079393626
1733751190370791200,4.207791259765625,-0.5109340909063815,0.12625812554494478,0.23285956539101899
1733751190380766200,4.21776611328125,-0.4223848698377609,-0.002098068257793784,0.31546412577629085
1733751190390742000,4.227741943359375,-0.38364451255500315,-0.05276712906956672,0.39327041903436183
1733751190400717000,4.237717041015625,-0.37509763348400593,-0.09225924543454311,0.3128787123929709
1733751190410693000,4.247693115234375,-0.2863789010673761,-0.10271938338149339,0.2143448345351964
1733751190420668200,4.257668212890625,-0.1921118868738413,-0.1425132317725569,0.07524718335978686
1733751190430644000,4.26764404296875,-0.15415303535759448,-0.1743262374775484,0.010317395874857901
1733751190440619000,4.277618896484375,-0.2394236731469631,-0.1555222778841853,-0.014032543940469622
1733751190450594300,4.28759423828125,-0.4348106361687183,-0.1319103700198233,-0.015700696348398924
1733751190460570000,4.297570068359375,-0.5550497114866971,-0.043261159175448115,-0.01707015807069838
1733751190470545200,4.307545166015625,-0.5761977134555578,0.0031787396339699623,0.05192972839735448
1733751190480521200,4.317521240234375,-0.563095655298233,0.060864547340013085,0.07835055620260536
1733751190490496300,4.327496337890625,-0.5442004006922244,0.16724018820673225,0.06604220570623874
1733751190500472000,4.33747216796875,-0.6644266165286302,0.23645722455680368,-0.12117116853632032
1733751190510447000,4.347447021484375,-1.0174749152898788,0.2843839278578758,-0.036170214533805846
1733751190520422100,4.357422119140625,-1.384623051074147,0.42209691974185404,-0.07439779998883604
1733751190530398500,4.3673984375,-1.8879852454215287,0.45640689336173235,-0.18603103259019552
1733751190540373200,4.377373291015625,-2.2391735955297944,0.546354875312373,-0.13544475469104944
1733751190550349300,4.387349365234375,-2.5012591823399064,1.1178388581190257,-0.20838767969645558
1733751190560324000,4.397323974609375,-2.3907442131787535,1.486030438541621,0.04962517778202891
1733751190570300400,4.407300537109375,-2.0858663633465766,1.402974700322747,-0.09676825642473995
1733751190580275200,4.417275146484375,-1.7965280279517173,1.519444778496027,0.25876477182433005
1733751190590250200,4.427250244140625,-1.4673410817712544,1.5008967298924922,0.033630247727409
1733751190600226300,4.437226318359375,-1.2423100911140441,0.9151414259534328,-0.3803307848971337
1733751190610201300,4.447201416015625,-1.237265667206049,0.9085381552308798,-0.36158750598244366
1733751190620177200,4.45717724609375,-1.1757277871817349,0.9967641356945037,-0.19695070520713925
1733751190630152200,4.467152099609375,-1.169733515202999,0.949517523612082,-0.12067300975583493
1733751190640128300,4.477128173828125,-1.0324287387937308,0.8162949019499123,-0.14933065670244394
1733751190650103300,4.487103271484375,-0.9290203867673873,0.8373920505143702,0.02538118255920708
1733751190660078300,4.497078369140625,-0.8219692943245172,0.9074182843554764,0.1930437608964741
1733751190670054100,4.50705419921875,-0.6642354778707027,0.8199739557888358,0.1253080491453409
1733751190680029400,4.517029541015625,-0.6195066938281059,0.7650002565857023,0.08156535353064537
1733751190690005200,4.527005126953125,-0.667901599162817,0.7767611292671411,0.09013765930384397
1733751190699980300,4.536980224609375,-0.6070633918404579,0.8158618442948907,0.05569499921500683
1733751190709956400,4.546956298828125,-0.6184054545879364,0.8647855227440595,-0.05479907328858971
1733751190719931400,4.556931396484375,-0.5754372504770755,0.8511964847873896,-0.07423106511980294
1733751190729907200,4.5669072265625,-0.5689098945349454,0.7772245820604264,0.009197890325635671
1733751190739882200,4.57688232421875,-0.595425561016798,0.5336527397254481,-0.166452691090852
1733751190749857300,4.586857177734375,-0.5655354496657848,0.4122986158376559,0.3076334321506321
1733751190759833300,4.596833251953125,-0.5850958901822567,0.32077764894925054,0.5084662394881249
1733751190769808400,4.606808349609375,-0.6638789195179939,0.04031794533040374,0.18635989921838045
1733751190779784200,4.6167841796875,-0.5389817892611026,-0.18853490516990423,0.12234393864274025
1733751190789759500,4.626759521484375,-0.4590191947519779,-0.4058559059716761,-0.009606032735109328
1733751190799735300,4.6367353515625,-0.4411421772778034,-0.35526458657123144,-0.04283770959898829
1733751190809710300,4.64671044921875,-0.4970429281979799,-0.41321065264865753,-0.21188450883626936
1733751190819685000,4.65668505859375,-0.5804688149034977,-0.4916919225588441,-0.36653511845245956
1733751190829661400,4.666661376953125,-0.6004606325745582,-0.39852636680118736,-0.31354733236953614
1733751190839636200,4.67663623046875,-0.5099900880545377,-0.27424115789756176,-0.13627178009971974
1733751190849612300,4.6866123046875,-0.3774152627766132,-0.270271596679464,-0.03001607581824064
1733751190859587000,4.696587158203125,-0.21361177102029322,-0.11946925998926163,0.15001432811766863
1733751190869563400,4.7065634765625,-0.11460954499840735,0.031423458398133514,0.18197715408951043
1733751190879538200,4.7165380859375,0.04994973356127739,0.1367640936613083,0.26002017871290445
1733751190889513200,4.72651318359375,0.2901186721175909,0.029448066671937702,0.3051635349057615
1733751190899489300,4.7364892578125,0.4572206208974123,-0.07200681319907307,0.40935251591578126
1733751190909464300,4.74646435546875,0.5447556964874267,-0.13124562250077723,0.5025153682596981
1733751190919440400,4.7564404296875,0.46720250120759005,-0.15063494423404336,0.5453669602535665
1733751190929415200,4.766415283203125,0.29658056160807605,-0.08580693662315607,0.5518582219690085
1733751190939391500,4.7763916015625,0.20230068793296813,-0.020525924547761677,0.5690669847927987
1733751190949366300,4.7863662109375,0.1690098282277584,0.03366962988972664,0.5126248204723001
1733751190959341300,4.79634130859375,0.11937690553069114,0.07706146624013781,0.49431730262637136
1733751190969317000,4.806317138671875,0.10938508834838867,0.1319717448182404,0.488887094271183
1733751190979292400,4.81629248046875,0.13442016088366507,0.14633973125815392,0.3725106857307255
1733751190989268200,4.826268310546875,0.2682622296184301,0.1680592495046556,0.3229983206734061
1733751190999243300,4.8362431640625,0.41291503070294855,0.21649594815447926,0.32588454363420605
1733751191009219300,4.84621923828125,0.5715519334763288,0.08841887268722057,0.23022169116809962
1733751191019194400,4.8561943359375,0.5929010109752416,0.07071984212845564,0.17528905462771652
1733751191029170200,4.866170166015625,0.5350760139942169,-0.004288052582740783,-0.018367285209149122
1733751191039145200,4.876145263671875,0.4229121085822582,0.022749591946601866,-0.16519859937652945
1733751191049120300,4.886120361328125,0.3903618381112814,0.21224749692976475,-0.5213076008826494
1733751191059096300,4.896096435546875,0.36227789939939975,0.12900398105382918,-0.6387247506476939
1733751191069071400,4.9060712890625,0.3287257584095001,0.14141718016415833,-0.4948790281623602
1733751191079047200,4.916047119140625,0.3562807048112154,-0.0959185807928443,-0.5873986141666769
1733751191089022500,4.9260224609375,0.2890928362011909,0.015647650986909865,-0.3712226917468011
1733751191098998300,4.935998291015625,0.3492822242259979,-0.16223843439668417,-0.4452487358137965
1733751191108973300,4.945973388671875,0.41805005550384516,0.019694880551099775,-0.27026217126399277
1733751191118948000,4.955947998046875,0.4495458484858274,0.2795736049667001,0.051776364466547965
1733751191128924400,4.96592431640625,0.7274982819914817,0.06844371389001608,0.20382906654402613
1733751191138899200,4.975899169921875,0.75314534894526,0.0450040938526392,0.1999633310265839
1733751191148875300,4.985875244140625,0.6798913121640682,0.3983233185097575,0.5554847419030964
1733751191158850300,4.995850341796875,0.6490805788367986,-0.020498013627529142,0.259660990011692
1733751191168826400,5.005826416015625,0.3623363515883684,0.4959919578403234,0.418400037985295
1733751191178801400,5.015801513671875,0.5073012873619794,0.20491817695498465,0.007072860995680093
1733751191188776200,5.025776123046875,0.4036369147479534,0.5357561052128672,0.3005117635771632
1733751191198752500,5.03575244140625,0.6032207449376583,0.233927706079185,0.13378054780587553
1733751191208727300,5.045727294921875,0.46332887464463707,0.31067893732637164,0.34202859983593226
1733751191218703400,5.055703369140625,0.702463793978095,-0.019596096351742743,0.30844898631721734
1733751191228678100,5.06567822265625,0.6496352901101112,0.195463827650249,0.6063580200500785
1733751191238654500,5.075654541015625,0.727201344871521,-0.28345015413910146,0.39261502386555075
1733751191248629200,5.085629150390625,0.5557376937508582,-0.08896277030557394,0.4667591413542628
1733751191258604300,5.095604248046875,0.4959779293149709,-0.5691884192153811,0.0901379515647888
1733751191268580000,5.105580078125,0.4697288048148155,-0.17489684043973683,0.07293313426375389
1733751191278555400,5.115555419921875,0.7160188565999269,-0.442802803966403,-0.42254575948789713
1733751191288531200,5.12553125,0.6331050110697746,-0.5309679941534996,-0.44405967215970155
1733751191298506200,5.13550634765625,0.7421499076783656,-0.3229436678767204,-0.2557188282571733
1733751191308482300,5.145482421875,0.9236661662578582,-0.21432371868193148,-0.19191943304166198
1733751191318457300,5.155457275390625,1.2049527126222848,-0.1917407154738903,-0.10160729395374656
1733751191328433200,5.16543310546875,1.3638631716400385,-0.16176380262225865,-0.01127338142544031
1733751191338408200,5.175408203125,1.3690771068960428,-0.1237052901238203,0.061426966995745895
1733751191348383200,5.18538330078125,1.3559832320451735,-0.08828881656676531,0.10904285078197717
1733751191358359300,5.195359375,1.3477280293971299,-0.04898205757290124,0.116633744302392
1733751191368334300,5.205334228515625,1.2985247302889824,-0.03804652979969978,0.09981266562193632
1733751191378310100,5.21531005859375,1.2170236741662024,-0.048778059433400626,0.014589081844687461
1733751191388285400,5.225285400390625,1.122968256896734,-0.02188186920136213,-0.07122209256216883
1733751191398261200,5.23526123046875,0.9166904820263385,-0.01404576874822378,-0.129873457364738
1733751191408236300,5.245236328125,0.734381611764431,-0.014473346510529518,-0.149614515145123
1733751191418212400,5.25521240234375,0.7076438269644976,-0.027297172248363494,-0.12592924978360534
1733751191428187400,5.2651875,0.8763818525135516,-0.11427519847750663,-0.07281944475620984
1733751191438162400,5.275162353515625,1.1179887149184942,-0.20778116517066955,0.06888108239397406
1733751191448138200,5.28513818359375,1.3851725016504526,-0.32728900360465046,0.2544824183300137
1733751191458113300,5.29511328125,1.4332120176762342,-0.46025165915638205,0.26075550725013014
1733751191468089300,5.30508935546875,1.0742647240042686,-0.5200649073451757,0.12747326435521245
1733751191478064400,5.315064453125,0.4996002114653587,-0.48787148748785253,-0.038031039969623086
1733751191488040200,5.325040283203125,-0.03736906892955303,-0.4509270737111568,-0.3357417746514082
1733751191498015500,5.335015380859375,-0.3170627931445837,-0.35143063443154093,-0.43249256848469375
1733751191507990300,5.344990234375,-0.3937397901117801,-0.19775749154537914,-0.42180458573177454
1733751191517967000,5.354967041015625,-0.2480412793666124,-0.13834142598062754,-0.3428149279080331
1733751191527942000,5.36494189453125,0.09152794461846352,-0.17299539073258638,-0.23870777996256945
1733751191537918200,5.374918212890625,0.4223322628676891,-0.26206512854397296,-0.17378785628452897
1733751191547893000,5.38489306640625,0.708079295772314,-0.37654198707342146,-0.015132102680206297
1733751191557869000,5.394869140625,0.9791618435084819,-0.496093372388184,0.23967121816724538
1733751191567844000,5.404843994140625,1.0930284611850976,-0.5325546788230539,0.4005088458552956
1733751191577819100,5.414819091796875,0.9049135349929333,-0.47461891494393343,0.34182942400202154
1733751191587795000,5.424794921875,0.445523753362894,-0.29412980745509265,0.15733780287355184
1733751191597770000,5.43477001953125,0.0038473230779170987,-0.09668781159967184,-0.04441314222216606
1733751191607746000,5.44474609375,-0.2041273188382387,0.08421762160509824,-0.22835063659921287
1733751191617721000,5.45472119140625,-0.271839503583312,0.2116087606348097,-0.3539268351614475
1733751191627697000,5.46469677734375,-0.2317909863114357,0.23379925739392637,-0.4181988163247704
1733751191637672000,5.474671875,-0.035441315737366676,0.18282032691538333,-0.44341421386301516
1733751191647648000,5.48464794921875,0.25005846440792084,-0.11273542168959974,-0.5188732133425772
1733751191657623000,5.494623046875,0.2920271360874176,-0.23287308245971797,-0.40405660146474837
1733751191667598000,5.50459814453125,0.26358780806660653,-0.3152786862067878,-0.11001125742271542
1733751191677574100,5.51457421875,0.21290859118700026,-0.5703485490359366,-0.2268872860483825
1733751191687549200,5.524549072265625,-0.04208849866688251,-0.33529958384186026,0.14642843245491385
1733751191697525000,5.53452490234375,-0.2545908471405506,-0.3271998640164733,-0.07468216988816857
1733751191707500000,5.5445,-0.6209288355857133,-0.0010195523060858248,0.016892974872887132
1733751191717476000,5.55447607421875,-0.8250099771946668,0.10759849719256162,-0.17673983795791864
1733751191727451100,5.564451171875,-0.8393681728929281,0.23192367278039455,-0.30905805812627074
1733751191737426000,5.574426025390625,-0.5744201823890209,0.2916965889587998,-0.3432696859382093
1733751191747402000,5.584402099609375,-0.21893968804478645,0.25586276677250863,-0.2917459810584783
1733751191757377000,5.594376953125,0.11434124945104121,0.16160554332062602,-0.12074439449161291
1733751191767353000,5.60435302734375,0.32124913891851903,-0.13774572510980068,-0.3622514497838914
1733751191777328000,5.614328125,0.4833978492051363,-0.37286665956154463,-0.24353783046752214
1733751191787304200,5.62430419921875,0.5920119531810283,-0.5246756160110235,0.016002894165366887
1733751191797279200,5.634279296875,0.4118289890319109,-0.548969733985886,0.25327143510505556
1733751191807255000,5.644255126953125,0.03364157283902168,-0.4650914273377508,0.3926552097454667
1733751191817230000,5.65422998046875,-0.27612404903471466,-0.2423156682614237,0.48459597294852136
1733751191827204900,5.664204833984375,-0.487175029656291,0.06335355114415288,0.6443006510838866
1733751191837181200,5.67418115234375,-0.6309609847784042,0.15251367065273225,0.508822943971306
1733751191847156000,5.684156005859375,-0.6581003361165523,0.33211291662976145,0.579304447299242
1733751191857132000,5.694132080078125,-0.37089141396582126,0.4153242838017642,0.6948501041039824
1733751191867107000,5.704107177734375,-0.03443243095576763,0.32417584002017974,0.46965705475285646
1733751191877083100,5.714083251953125,0.2134299847126007,0.11830967815797776,0.290737680798769
1733751191887058000,5.724057861328125,0.3198468709051609,-0.16279131903909147,0.055027329086512325
1733751191897033000,5.734032958984375,0.3438450016081333,-0.4713245130410418,-0.10520794879421591
1733751191907009000,5.744009033203125,0.34030455252230163,-0.6645967854637652,-0.18649755412340163
1733751191916984000,5.753984130859375,0.19688976880013942,-0.6985469127953052,-0.1767206948660314
1733751191926959900,5.7639599609375,-0.10403145236074923,-0.5919023553267121,-0.17777941013872622
1733751191936935000,5.773934814453125,-0.3890916720449924,-0.38399628513474016,-0.041478696205466986
1733751191946911000,5.783910888671875,-0.47592532136738297,-0.12591171412691474,0.0901081409484148
1733751191956886000,5.793885986328125,-0.40961306654810903,0.0889459470349364,0.20262685114741324
1733751191966861000,5.803861083984375,-0.2654699685513973,0.2029733082312159,0.3045760904066264
1733751191976837000,5.813837158203125,-0.05540741444528102,0.21761457692086694,0.34015812978893517
1733751191986812200,5.823812255859375,0.16360943048894405,0.15594232992716134,0.35930487493798136
1733751191996788000,5.8337880859375,0.38638592021763324,0.0729848461846821,0.3972803853280842
1733751192006763000,5.843762939453125,0.5297995348960161,-0.05740063408911228,0.2497970369927585
1733751192016739000,5.853739013671875,0.5909358483821153,-0.21791757845543325,0.10061229156702756
1733751192026714000,5.863714111328125,0.52072833968997,-0.31901962630078196,-0.057486412676423786
1733751192036690000,5.87368994140625,0.2906979333102703,-0.3779018772497773,-0.14640022927373647
1733751192046665000,5.8836650390625,0.03334522024095058,-0.44989707307629284,-0.14378902386203407
1733751192056640300,5.89364013671875,-0.12589140199124813,-0.4945207162439823,-0.0963635480813682
1733751192066616000,5.903615966796875,-0.537045268240571,-0.4496221285924315,-0.08937792697772383
1733751192076591000,5.913591064453125,-1.1834399689942598,-0.3688227179329842,0.028684681084007024
1733751192086567200,5.923567138671875,-2.0128139866173265,-0.1016306017640978,0.19958207662403582
1733751192096542200,5.933542236328125,-2.6647499548852442,0.06368307535946369,0.338575975164026
1733751192106518000,5.94351806640625,-2.8960850141227246,0.2218160471986979,0.24688641024306415
1733751192116493000,5.9534931640625,-3.098116237464547,0.22824198859296738,-0.06446414273455739
1733751192126469000,5.96346923828125,-3.326844913595915,0.7156389904368669,0.29891937981918454
1733751192136444200,5.973444091796875,-3.497907582700252,1.0441127468466758,0.9592625264264643
1733751192146419000,5.9834189453125,-2.9650486602336166,1.5423253033459186,1.7293896975718437
1733751192156395000,5.99339501953125,-1.415403389263153,1.5819745921671389,1.957653094279021
1733751192166370000,6.0033701171875,-0.25091478897631164,0.9960964655660092,1.0896870418027043
1733751192176346000,6.01334619140625,0.6826607768774032,0.3978070395506918,0.31904841400384903
1733751192186321000,6.02332080078125,1.087675409719348,0.11870032144337891,0.11191972139254212
1733751192196297200,6.033297119140625,1.0447025294333696,-0.10736892622038721,-0.007851444152742623
1733751192206272000,6.04327197265625,0.7891261783868074,-0.9219503022506833,-0.04463701410591602
1733751192216247000,6.0532470703125,0.9945827000021934,-1.9956893949456511,-0.16636325924172995
1733751192226223000,6.06322314453125,0.926555457958579,-2.746459685322642,-0.0609983663201332
1733751192236198000,6.073197998046875,0.2631143453359604,-3.021581863838434,0.1512435776516795
1733751192246174200,6.08317431640625,-0.06803834795951842,-2.6757661466792224,-0.1962497173309326
1733751192256149000,6.09314892578125,0.2009293995797634,-2.5600048012971874,-0.7914496528983116
1733751192266125000,6.103125,0.09923954190909862,-2.3469718530781565,-0.6868047448143363
1733751192276100000,6.11310009765625,-0.05798983215391636,-1.838647798539698,-0.776465434256196
1733751192286076200,6.123076171875,-0.5140887555450201,-1.0818258069083093,-0.9286705504164099
1733751192296051000,6.133051025390625,-1.2470552398145198,-0.4705405595891177,-0.8569744106017053
1733751192306026000,6.14302587890625,-1.2079612467885017,0.021015607760846614,-0.8371537117138504
1733751192316002000,6.153001953125,-0.5590548554748297,0.5390273819684982,-0.7796880495645105
1733751192325977000,6.16297705078125,0.1513636969000101,0.8393887772895395,-0.5939923133432865
1733751192335953000,6.172952880859375,0.09734159933328627,0.9240418677024542,-0.4158303336277604
1733751192345928000,6.182927978515625,0.04776595978140831,1.459995979705453,0.12821370745897293
1733751192355904000,6.192904052734375,0.2650631413161754,1.741496899472922,0.08878463725969195
1733751192365879000,6.202879150390625,0.5399456658571958,1.6568930550292134,-0.23542992733567952
1733751192375854000,6.21285400390625,0.7115811664134264,1.5461496839396656,-0.2631099614217877
1733751192385830100,6.222830078125,0.648800008329749,1.580536376057565,-0.4243481327347457
1733751192395805200,6.23280517578125,0.533259319961071,1.7824638467639684,-0.550415621945262
1733751192405781000,6.242781005859375,0.2273117950707674,2.0424509999901055,-0.6176873694464564
1733751192415756000,6.252756103515625,0.2888321394383907,2.0947385288491844,-0.8174448026373982
1733751192425732000,6.262732177734375,0.5252157142370939,1.9345514740243552,-0.9502250873595476
1733751192435707100,6.27270703125,0.23155717755556104,1.9634449755534529,-0.844951087591797
1733751192445683000,6.282682861328125,-0.23672318201661108,2.1308820015065373,-0.436737804839015
1733751192455658000,6.292657958984375,-0.5356301407456397,2.150651846989989,0.0863674931153655
1733751192465633300,6.30263330078125,-0.6824719763070345,1.9162040625594554,0.36289968455955385
1733751192475609000,6.312609130859375,-0.5858557686388493,1.339303899922967,1.0257409315928816
1733751192485584100,6.322584228515625,-0.5177209745675325,0.6524911179326475,1.4858965830288826
1733751192495560200,6.332560302734375,-0.5057032045155764,0.2100580240614712,1.7192849215343593
1733751192505535200,6.34253515625,-0.4110264404773712,0.2249807217746973,1.6040655740745364
1733751192515510500,6.352510498046875,-0.42228608563840386,0.5284286849342287,1.0967696935400366
1733751192525485600,6.362485595703125,-0.7669862427711487,0.9588299802280962,0.4494930953852832
1733751192535461400,6.37246142578125,-1.1087819106340409,1.3343204124219714,-0.13886004302725194
1733751192545436400,6.3824365234375,-1.6530068612456321,1.796039659912884,-0.43688232787624
1733751192555411500,6.392411376953125,-1.965125183725357,2.4279781114213166,-0.7409208042748272
1733751192565387500,6.402387451171875,-1.89648711630702,2.2939861128218473,-1.5062788613222537
1733751192575362600,6.412362548828125,-1.2667092038333416,2.481872929346561,-0.3616409166701138
1733751192585338400,6.42233837890625,-0.8203355556428432,2.203793654590845,0.05996186287924647
1733751192595313700,6.432313720703125,-0.2592138307660818,2.1527504267044364,1.264264294899255
1733751192605289500,6.44228955078125,-0.006633738926053047,1.5121213037401438,1.1882248651832341
1733751192615264500,6.452264404296875,-0.051498716568946834,0.7578796839907765,0.8102771029651165
1733751192625239300,6.4622392578125,-0.1656809760659933,0.3734330612726509,0.8925818766862154
1733751192635215600,6.472215576171875,-0.4214665859490633,0.04933799487110227,0.8222862513191997
1733751192645190400,6.4821904296875,-0.7528717927008867,-0.22267562317010015,0.682131492306292
1733751192655166500,6.49216650390625,-1.0841600950747727,-0.401962149936147,0.49753085784539575
1733751192665141500,6.5021416015625,-1.231161505112052,-0.48761097338814285,0.49240489313378927
1733751192675117600,6.51211767578125,-1.1850579255849123,-0.6547226763769984,0.5236294679589569
1733751192685092400,6.52209228515625,-1.1901426815032958,-0.796834487741813,0.5802969654679299
1733751192695068400,6.532068359375,-1.171238659068942,-1.0254522508446127,0.4088897207096219
1733751192705043500,6.54204345703125,-1.1758405999064445,-1.2225023978382348,0.3872425370469689
1733751192715018500,6.5520185546875,-1.1874018583625554,-1.451705998004973,0.5120082960091531
1733751192724994300,6.561994384765625,-1.0984575004965067,-1.6190942163802682,0.6625961862310766
1733751192734969300,6.57196923828125,-1.1124357569664716,-1.6240692283138631,0.7855877751275897
1733751192744945400,6.5819453125,-1.1757178503096104,-1.5370610992074012,1.0035755692750215
1733751192754920400,6.59192041015625,-1.1205711326271295,-1.2524848636478185,0.7879793464392423
1733751192764896500,6.601896484375,-1.1424743368774652,-0.8409756080895662,0.8313312891706823
1733751192774871300,6.611871337890625,-1.2960849359214306,-0.32633550227209923,0.8474220077499747
1733751192784847600,6.62184765625,-1.133517123439908,-0.14146920261234044,0.614060703381896
1733751192794822400,6.631822509765625,-0.8307897296398877,-0.16614727840349078,0.35809929854050276
1733751192804797400,6.64179736328125,-0.563341739013791,0.42472485709264873,-0.12370105234012008
1733751192814773500,6.6517734375,-0.22188450932502746,0.5020816530175507,-0.17624591696113348
1733751192824748500,6.66174853515625,0.16993629542291164,0.20454832072928547,-0.26236834927424785
1733751192834724400,6.671724365234375,0.49754152536988255,-0.19010420031324027,-0.2120230405241251
1733751192844699400,6.681699462890625,0.6581722323089838,-0.3402238885015249,-0.34220556383803485
1733751192854675500,6.691675537109375,0.676743661788106,-0.3082591628335416,-0.4799392331838607
1733751192864650500,6.701650390625,0.6679810941398143,-0.4183813332848251,-0.31544848981574175
1733751192874625500,6.71162548828125,0.7532540700167417,-0.4861021397277713,-0.1696599626995623
1733751192884601300,6.721601318359375,0.8624573720574379,-0.4217775515943765,-0.28314138045087456
1733751192894576600,6.73157666015625,0.9634656772047281,-0.38175080776289105,-0.22867300042137503
1733751192904552400,6.741552490234375,1.051611578169465,-0.3343672714278102,-0.15649536070004105
1733751192914527500,6.751527587890625,1.0761480535328387,-0.1955009447902441,-0.2578723530292511
1733751192924503600,6.761503662109375,1.14662444229424,0.06950754372924565,-0.28003070108443495
1733751192934478600,6.771478515625,1.3276871118873357,0.13109803072363138,-0.44071649921163913
1733751192944454400,6.781454345703125,1.5423311485648155,0.2930015340775251,-0.42706016817241904
1733751192954429400,6.791429443359375,1.7495669548124073,0.5199783981055021,-0.2690263458587229
1733751192964404500,6.801404541015625,1.9095342294067144,0.39794454832524057,-0.39590164432078595
1733751192974380500,6.811380615234375,1.8680501263737677,0.7482704363852739,0.015739713184535504
1733751192984355300,6.821355224609375,1.9893787504941225,0.6354848919436336,-0.09162482912167906
1733751192994331400,6.831331298828125,1.7006775439590214,0.5432485067948699,-0.30291429467424746
1733751193004306400,6.841306396484375,1.4154589188426732,0.8208104796782135,0.019674130024015902
1733751193014282500,6.851282470703125,1.2297183205664157,0.2448337154969573,-0.3080146865531802
1733751193024257500,6.861257568359375,1.0498930838137865,0.1966419315189123,-0.44566813026964663
1733751193034233600,6.871233642578125,0.9163368462830781,-0.16747838087677955,-0.84790146182999
1733751193044208600,6.881208740234375,0.9073352091819047,0.07977496298253536,-0.6513080456279218
1733751193054183400,6.891183349609375,0.8858575368672609,-0.3909393457382917,-0.9897430048860609
1733751193064159500,6.901159423828125,0.6544038196861743,-0.2837169883817434,-0.6999449430249631
1733751193074134300,6.91113427734375,0.6472878502011299,0.2980003652781248,-0.15710720898807048
1733751193084110600,6.921110595703125,0.933413068768382,-0.1254261225670576,-0.255049842954427
1733751193094085400,6.93108544921875,0.9900140769124031,-0.39479689794927836,0.011898965977877377
1733751193104061400,6.9410615234375,1.0288117173403502,-0.0018529343903064726,0.4319252899907529
1733751193114036500,6.951036376953125,0.9746505035638808,0.40172026747167106,0.5184966351151467
1733751193124012500,6.961012451171875,0.8228717961221933,0.24324615404456854,0.03907572671696544
1733751193133987300,6.9709873046875,0.6850327667057514,0.4594739527821541,0.1363080204568803
1733751193143962400,6.98096240234375,0.6351245341986418,0.37170331487059594,0.027051234663277864
1733751193153938400,6.9909384765625,0.7614742013514042,0.28362551070600744,-0.05766439959183335
1733751193163913500,7.00091357421875,0.9266033887535333,0.07588789241611957,-0.056646162459999316
1733751193173889300,7.01088916015625,1.0336989048600196,-0.2228670906215906,0.15855916136205195
1733751193183864300,7.0208642578125,1.0983458568155764,-0.4307692518234253,0.18247750482708214
1733751193193840400,7.03084033203125,1.0898667822837829,-0.3467413075715303,0.45873979328870773
1733751193203815400,7.0408154296875,1.102828555187583,-0.2523050742909312,0.42697029793187974
1733751193213790500,7.05079052734375,1.132834401872754,-0.13503624695539473,0.21068419313579798
1733751193223766500,7.0607666015625,0.9092430886298417,-0.2108396759584546,-0.1094204519227147
1733751193233741600,7.070741455078125,0.5576935039937496,-0.3244517343521118,-0.5279306722842156
1733751193243717400,7.08071728515625,0.097079149004817,-0.4453188784405589,-0.7290057639449834
1733751193253692400,7.0906923828125,-0.0876022956073284,-0.5312815901473165,-0.7917750854603945
1733751193263668500,7.10066845703125,0.10860124449431896,-0.4874567692071199,-0.583245293879509
1733751193273643500,7.1106435546875,0.5865887590885162,-0.5098156082704663,-0.12334858564063907
1733751193283619300,7.120619384765625,1.1084142463654278,-0.6218652396529912,0.29542364665791393
1733751193293594400,7.130594482421875,1.5147604200720786,-0.6299015388533472,0.40914252642691135
1733751193303569700,7.140569580078125,1.6805501172095536,-0.523868975803256,0.3656619888797402
1733751193313545500,7.15054541015625,1.6315484781533478,-0.30374972258508204,0.3109099696032703
1733751193323520500,7.1605205078125,1.4483610714912414,-0.15501257479637862,0.16510361456945538
1733751193333496600,7.17049658203125,1.097453291890025,-0.17399492316395043,-0.17431451050713656
1733751193343471600,7.1804716796875,0.6423287664890289,-0.226337104819715,-0.5214546081379056
1733751193353447400,7.190447509765625,0.13490472953021526,-0.3337963396720588,-0.8025308727525174
1733751193363422500,7.20042236328125,-0.13878361679017542,-0.3658556117556989,-0.8577550395853817
1733751193373398500,7.2103984375,-0.026745383584499356,-0.4248037675477564,-0.606358166180551
1733751193383373600,7.22037353515625,0.07670797662734985,-0.5225863886468112,-0.23804887766242025
1733751193393348400,7.230348388671875,0.2606377260893583,-0.6683681937612593,0.10447232799604535
1733751193403324400,7.240324462890625,0.45908232311606406,-0.7554466116249561,0.2880764987654984
1733751193413299500,7.250299560546875,0.6089753629416227,-0.8069497121080755,0.24499051349386572
1733751193423275500,7.260275634765625,0.5325280830770731,-0.7615950512520968,0.2926044975839555
1733751193433250300,7.270250244140625,0.22126199351251125,-0.5761835387997329,0.2188591701544821
1733751193443226600,7.2802265625,0.0699789606332779,-0.37503187477141614,0.3485663310416043
1733751193453201400,7.290201416015625,-0.02864975590109825,-0.1980029907390475,0.1326645493879914
1733751193463176400,7.300176513671875,-0.02154430781006813,-0.05600231159850955,0.11185498559325933
1733751193473152500,7.310152587890625,0.16540858886539936,0.00018777765706181525,-0.06703793874531984
1733751193483127300,7.320127197265625,0.44166240175962446,-0.06045680678933858,0.02192804643064737
1733751193493103600,7.330103515625,0.6769634420186281,-0.21640666243582962,-0.1476116508901119
1733751193503078400,7.340078369140625,0.769814744195342,-0.3564391102433204,-0.12657134707942605
1733751193513054500,7.350054443359375,0.7166226677119731,-0.39933497977033255,-0.19064196045175194
1733751193523029200,7.360029296875,0.5285252771764993,-0.4842028089124709,-0.0794518685080111
1733751193533005600,7.370005615234375,0.2260825455367565,-0.38763767384439707,0.04890110129117965
1733751193542980400,7.37998046875,-0.13429448867738247,-0.28858802848421033,0.2521700497344136
1733751193552956400,7.389956298828125,-0.4583282898783684,-0.05376183919534087,0.18434490613415835
1733751193562931500,7.399931396484375,-0.5878998416870832,0.06632029199525713,0.1624202207043767
1733751193572906500,7.409906494140625,-0.5468687431186438,-0.03785751003362238,0.14754706122130154
1733751193582882300,7.41988232421875,-0.2676484816342592,0.029397505528479813,-0.3676144381217658
1733751193592857300,7.429857421875,-0.03991115462779998,0.1767464138291776,-0.4534983855038881
1733751193602833400,7.43983349609375,0.05263093546926975,0.13878339759446678,-0.486366489752382
1733751193612808400,7.449808349609375,0.05181318934559822,0.4637388802176341,-0.16325974026843904
1733751193622784300,7.4597841796875,-0.035649405530095095,0.576574145552516,0.27809388780295846
1733751193632759300,7.46975927734375,-0.12491057426035404,0.8616007552281022,0.4253308601617813
1733751193642734600,7.479734619140625,-0.08340659748315811,0.9787316353976726,0.3635299452871084
1733751193652710400,7.48971044921875,-0.15392214921116829,0.9129757723521441,0.12199117968231439
1733751193662685400,7.499685546875,-0.3217389682620764,0.9203749426927417,0.034795126788318156
1733751193672661500,7.50966162109375,-0.47620121569931506,0.9328205827679484,0.06111746265515685
1733751193682636500,7.519636474609375,-0.4620025944769382,0.9207796510361135,0.10320260032117366
1733751193692612400,7.5296123046875,-0.37906887520253657,0.7792934242237359,0.07952288791760802
1733751193702587400,7.53958740234375,-0.5395440993189812,0.5747311115017161,0.11572159789353609
1733751193712563500,7.5495634765625,-0.5652729993373156,0.24355138406883925,0.11493059364631772
1733751193722538500,7.55953857421875,-0.6317214477568864,0.13212262453101575,0.2887725182056427
1733751193732513500,7.569513427734375,-0.6543775162011385,0.038061727368831635,0.42003026953563094
1733751193742489300,7.5794892578125,-0.4425052823245525,-0.08863244237266481,0.3332024654321372
1733751193752464600,7.589464599609375,-0.5692056626111268,-0.13549414679072797,0.4330230220995843
1733751193762440400,7.5994404296875,-0.5933920093625784,-0.14521189627200365,0.43829102563038463
1733751193772415500,7.60941552734375,-0.5939367837637662,-0.19822269790433347,0.2795116456463933
1733751193782391300,7.619391357421875,-0.6144073248624802,-0.40151064330898223,0.2453805357247591
1733751193792366600,7.62936669921875,-0.7981266464442014,-0.4190055295977741,0.32539851368293166
1733751193802342400,7.63934228515625,-1.1183990492850542,-0.36374161527641113,0.44805327184051275
1733751193812317400,7.6493173828125,-1.4699720147967337,-0.14176570134088395,0.5689151552319527
1733751193822292200,7.659292236328125,-1.9913591106563806,0.37995588717013595,0.6878652136527001
1733751193832268500,7.6692685546875,-2.2053291935950514,0.9485410797953605,0.8778604006335139
1733751193842243300,7.679243408203125,-2.1578110710948706,1.0854551763866096,0.6535103779777884
1733751193852219400,7.689219482421875,-1.8932640626072883,0.6231774182301014,0.35089945016428825
1733751193862194400,7.6991943359375,-1.7450836719185112,0.08992211685702205,0.4867942136451602
1733751193872170500,7.70917041015625,-1.5490262622892856,-0.07406038472801446,0.7817648558385669
1733751193882145300,7.719145263671875,-1.3075970945388078,-0.10124138325080274,0.7169669511049985
1733751193892121300,7.729121337890625,-1.2058990535616874,-0.1254828211903572,0.1795133943244815
1733751193902096400,7.739096435546875,-1.24211252271533,0.04020911466106772,-0.23686726666241883
1733751193912071400,7.749071533203125,-1.5285808556318283,0.308610022097826,-0.5493725426331162
1733751193922047500,7.759047607421875,-1.9558061512380838,0.5873666115932166,-0.723387339541316
1733751193932022300,7.769022216796875,-2.233957906708121,0.8660411488283425,-0.7296763566829264
1733751193941998600,7.77899853515625,-2.1545862638294695,0.9592144495010375,-0.7320081606313585
1733751193951973400,7.788973388671875,-1.834154871034622,0.869526068334654,-0.5763552421048284
1733751193961949400,7.798949462890625,-1.3577812213778495,0.7608282315980642,-0.2232540441125631
1733751193971924500,7.808924560546875,-0.8908359098017216,0.600761734412983,0.11647358530461788
1733751193981900500,7.818900634765625,-0.5178384634673595,0.5575932584896683,0.23846739533543584
1733751193991875300,7.828875244140625,-0.4493313289523124,0.6144117818418889,0.4014097402177751
1733751194001850400,7.838850341796875,-0.39913375810980795,0.7510534912325442,0.47057037020549175
1733751194011826400,7.848826416015625,-0.35020869142115113,0.7755464197151363,0.4515416984781623
1733751194021801500,7.858801513671875,-0.3212134830832481,0.8525987528007477,0.4838957157246768
1733751194031777300,7.86877734375,-0.30239070919156075,0.861658257569,0.43423254401981826
1733751194041752300,7.87875244140625,-0.3113765642017126,0.8235268990300595,0.33061215667799115
1733751194051728400,7.888728271484375,-0.3094944037169218,0.8449785601206123,0.23513898156508803
1733751194061703400,7.898703369140625,-0.306340323600173,0.8326368188112974,0.16466989932730794
1733751194071679200,7.90867919921875,-0.287128842651844,0.7589194023020565,0.1038793305389583
1733751194081654300,7.918654296875,-0.3017413053721189,0.6747312259871512,0.04270911478325724
1733751194091629600,7.928629638671875,-0.24944822355508803,0.5058061169007793,-0.003834755857288837
1733751194101605400,7.93860546875,-0.2806745519459247,0.3289174450566992,-0.03129997814893722
1733751194111580400,7.948580322265625,-0.32265316049754617,0.16007526501342653,-0.00664820584282279
1733751194121556500,7.958556396484375,-0.2747030763208866,-0.0187856065193424,-0.06472162462696433
1733751194131531500,7.968531494140625,-0.2843991254270077,-0.0901008983568754,-0.08232654716148972
1733751194141507300,7.97850732421875,-0.3600298282116651,0.0818833060391713,0.046172406979650256
1733751194151482400,7.988482421875,-0.43994449192583557,0.03112569929426536,-0.06631926908195018
1733751194161458400,7.99845849609375,-0.5009808521687984,0.06408064157599583,-0.08812734239473938
1733751194171433500,8.00843359375,-0.4433826496809721,0.08203107134625315,-0.09460194523632526
1733751194181408500,8.018408447265625,-0.37296997380554675,0.25183796823583543,0.10799831016510725
1733751194191384300,8.02838427734375,-0.2917915737658739,0.2607403462136164,0.17475231740251182
1733751194201359600,8.038359619140625,-0.22280688486695288,0.3332635845022276,0.19087898407801984
1733751194211335400,8.04833544921875,-0.07057341939508914,0.15719152627065777,0.07196136662214994
1733751194221310500,8.058310546875,0.07316928110718726,-0.025906156281381845,0.05761427683979273
1733751194231286500,8.06828662109375,0.14830021767616272,-0.14493066817782818,0.10607757123559712
1733751194241261600,8.078261474609375,0.16351766055226324,-0.21732618843354284,0.11409385056123136
1733751194251237400,8.0882373046875,0.12265373524427413,-0.2542230367414653,0.07531696066036819
1733751194261212400,8.09821240234375,0.1104290444433689,-0.22532938908189534,0.05983779810816049
1733751194271187500,8.1081875,0.1526490605354309,-0.1775247777905315,0.06088073128983378
1733751194281163500,8.11816357421875,0.22076982608139514,-0.11203238798677921,0.03858516672104597
1733751194291138300,8.12813818359375,0.35948388476669785,-0.11335596474073827,-0.023073417073488235
1733751194301114400,8.1381142578125,0.4726525833070278,-0.1323937696225941,-0.03930997386425733
1733751194311089400,8.14808935546875,0.5043412685126066,-0.18250600026920435,-0.012030337272584438
1733751194321065500,8.1580654296875,0.45752340323626994,-0.1873909958317876,-0.029695173300802707
1733751194331040300,8.168040283203124,0.3653022156566381,-0.15653700788468122,-0.004343289901316166
1733751194341016600,8.1780166015625,0.3362327730387449,-0.07800868396237493,0.04386734490767121
1733751194350991400,8.187991455078125,0.39727205589115616,-0.0468883001640439,0.02537760236263275
1733751194360967400,8.197967529296875,0.41331075202226636,-0.029561025527119634,0.025715309884399174
1733751194370942500,8.2079423828125,0.457241663685441,-0.1159518995180726,0.015603957975655794
1733751194380917200,8.217917236328125,0.4391261612802744,-0.07328487031087279,0.08411693770959973
1733751194390893600,8.2278935546875,0.40474107659757136,-0.1819403292104602,0.059104077006131406
1733751194400868400,8.237868408203125,0.3166618111282587,-0.03931640360504388,0.06885229469090699
1733751194410844400,8.247844482421876,0.2742015565395355,-0.01299903617426753,0.016033435434103013
1733751194420819500,8.2578193359375,0.1480214007347822,0.19474252763837574,-0.03395823757275939
1733751194430795500,8.26779541015625,0.14729717811346052,0.09180164699330925,-0.09293824980780482
1733751194440770300,8.277770263671876,0.11841419797837734,0.05351239447891712,-0.042789048151671887
1733751194450746600,8.28774658203125,0.1319879653006792,-0.006037818859517574,0.05211977107673883
1733751194460721400,8.297721435546874,0.27832185133993625,-0.08965981265902519,0.170169665787369
1733751194470696400,8.307696533203124,0.25255378835499287,-0.11517360862195491,0.26855069117099045
1733751194480672300,8.31767236328125,0.03495265543758869,-0.06075199034363031,0.22779490241259334
1733751194490647300,8.327647216796874,-0.07783376578688621,0.036746699247509236,0.18610548606589436
1733751194500623400,8.337623291015625,-0.007908581167459487,0.029860885256528854,-0.08506693191081285
1733751194510598400,8.347598388671875,-0.16017185725569724,0.28981106747314334,-0.03648264148384332
1733751194520574000,8.357573974609375,0.04765256253480911,0.08363514554202556,-0.5187323435671627
1733751194530548700,8.367548828125,-0.10916823072731495,0.3318468130394816,-0.31250454531833527
1733751194540525000,8.377525146484375,0.2114993089109659,-0.02325768759921193,-0.5414243601076305
1733751194550499800,8.387499755859375,0.22870938690900802,0.026061346843093632,-0.18670228291526436
1733751194560475000,8.397474853515625,0.48554596714973447,-0.1928574445441365,-0.17882365849465132
1733751194570451000,8.407450927734375,0.5693319193392992,-0.0018909283131361007,0.3054394292376935
1733751194580426000,8.417426025390625,0.8749906904160976,-0.20746026265323161,-0.015443214455991982
1733751194590401800,8.42740185546875,0.914455270320177,0.1850109688274562,0.42328517967835066
1733751194600376800,8.437376953125,1.1818436397135257,0.06761632315516472,0.06181918118372559
1733751194610353000,8.447352783203126,1.1877227608799934,0.1366534728936851,0.28277956140115856
1733751194620328000,8.457327880859374,1.3458727569192648,-0.22141382307335733,-0.22463132381513715
1733751194630303700,8.4673037109375,1.5150971046805382,-0.08086363500207662,0.18068579910472035
1733751194640278800,8.47727880859375,1.7767729416459799,-0.423462728202343,-0.20619199628308416
1733751194650254000,8.487254150390624,1.6768191139876842,-0.549484770835936,0.01786313507929444
1733751194660230000,8.49722998046875,1.564694956064224,-0.36492300708070396,0.10928367380052804
1733751194670205000,8.507204833984375,1.4634060804098843,-0.21310937445610761,-0.09965689053833485
1733751194680181000,8.517180908203125,1.3040613216280936,-0.085518913462013,-0.24980156703740358
1733751194690156000,8.527156005859375,1.126233980694413,0.012471797429770231,-0.36670375301763414
1733751194700131800,8.5371318359375,1.043826915642619,0.060532940765470264,-0.4761227436356246
1733751194710107000,8.54710693359375,1.0495353564172982,-0.0031463352017104622,-0.43779345137178893
1733751194720083000,8.5570830078125,1.078786585342884,-0.1368688692100346,-0.37412849619090555
1733751194730058000,8.56705810546875,1.128013265326619,-0.33430560436844825,-0.27599297000095246
1733751194740033800,8.57703369140625,1.1910685641765595,-0.5081928293742239,-0.08707564138472079
1733751194750008800,8.5870087890625,1.2176134567528962,-0.5937149577066302,0.1027808677777648
1733751194759984000,8.596984130859376,1.0557371336668728,-0.628198388197273,0.18861483853831887
1733751194769960000,8.6069599609375,0.6868383548229933,-0.5934748653404415,0.1510842954367399
1733751194779935000,8.61693505859375,0.31648060934245587,-0.5169951445110141,0.10734715277999639
1733751194789911000,8.6269111328125,0.02982230681180954,-0.37969182940647006,0.031157208677381275
1733751194799886000,8.636885986328124,-0.16392624135315417,-0.36120734755843875,0.02171045815721154
1733751194809862000,8.64686181640625,-0.20866437774598598,-0.42614013071805235,-0.03476253969296813
1733751194819837000,8.6568369140625,-0.03966448639035225,-0.5098866276800632,-0.07919497113749384
1733751194829813000,8.66681298828125,0.20811258908212182,-0.5748235024929046,-0.056833793986588714
1733751194839788000,8.6767880859375,0.38081659565269943,-0.6569596416488289,0.04283405633717775
1733751194849762800,8.6867626953125,0.4486754953920841,-0.7567702614441514,0.13613193323761225
1733751194859739000,8.69673876953125,0.4737988307327032,-0.8165884780690074,0.22438217135965824
1733751194869714000,8.7067138671875,0.5068593888133764,-0.801261583469063,0.24450068415030835
1733751194879690000,8.71668994140625,0.3795890996843576,-0.697843294570595,0.17929770574718712
1733751194889664800,8.726664794921875,0.2241489471256733,-0.560898729775846,0.14872574961185456
1733751194899641000,8.73664111328125,0.24518647445738315,-0.46146761081740256,0.08490034317225217
1733751194909615900,8.746615966796876,0.39592648650109763,-0.37982904592007394,0.010404928027838468
1733751194919592000,8.756592041015624,0.5280974071532487,-0.3324569808270782,-0.020920038431882858
1733751194929567000,8.76656689453125,0.6093301677286624,-0.34829774323329327,-0.03942848567739129
1733751194939541800,8.776541748046874,0.7105196746617555,-0.4152586712196469,-0.101199882196635
1733751194949518000,8.78651806640625,0.7902624889403581,-0.5098031141150743,-0.12916925461813808
1733751194959492900,8.796492919921874,0.8929746753960848,-0.5554257782574743,-0.19957140909954904
1733751194969469000,8.806468994140625,0.8894809880614281,-0.5928364943716675,-0.3360667688220739
1733751194979444000,8.81644384765625,0.7727309239029884,-0.5886146754255518,-0.4170537379428744
1733751194989420000,8.826419921875,0.6204904441684485,-0.5769660674795508,-0.5425915041908621
1733751194999394800,8.836394775390625,0.5148936421871185,-0.5697464549569413,-0.5633471458412707
1733751195009371100,8.84637109375,0.33140929840505123,-0.5471384269054979,-0.5432954146765172
1733751195019346000,8.856345947265625,0.07364099027216434,-0.4560992156520486,-0.46826823074296114
1733751195029322000,8.866322021484375,-0.3038876697510481,-0.288761868947465,-0.3906625746235251
1733751195039296800,8.876296875,-0.5231570281416178,-0.09192390339979901,-0.29714389457926155
1733751195049271800,8.886271728515625,-0.5034598095029592,0.08685374226234853,-0.33181334916129707
1733751195059247900,8.896247802734376,-0.4778542436033487,0.2302494742241688,-0.35387232849523426
1733751195069223000,8.906222900390626,-0.46324353444874283,0.23331892653107641,-0.34679479132443664
1733751195079198700,8.91619873046875,-0.41565117766857146,0.20952999986568466,-0.1792488981693983
1733751195089174000,8.926174072265624,-0.30497371142208574,0.13100344777535647,-0.05249211152046918
1733751195099149800,8.93614990234375,-0.30745149971246716,0.005870791729539632,0.018382775039225814
1733751195109124900,8.946124755859374,-0.42483577012121676,-0.04067643991187215,0.1663121135763824
1733751195119101000,8.956100830078125,-0.5351543399274349,-0.059419316967763,0.2180333868548274
1733751195129076000,8.966075927734375,-0.49598728166520595,0.023426541360095143,0.3365751567356288
1733751195139051000,8.976051025390625,-0.41615737362504,0.1395556606085971,0.44613530938997864
1733751195149026800,8.98602685546875,-0.2820236284673214,0.20928207125291226,0.4258358870744705
1733751195159001900,8.996001953125,-0.11959142506420611,0.34388160729147493,0.4635056925162673
1733751195168978000,9.00597802734375,0.12449205658733845,0.4470859611783176,0.41460532187744975
1733751195178953000,9.015952880859375,0.2764724240809679,0.4644404160831123,0.2007328540943563
1733751195188928800,9.0259287109375,0.28765432783067224,0.4322456079863012,0.09326514367461204
1733751195198904000,9.035904052734375,0.2777215473592281,0.3727832921270281,-0.03226823865920305
1733751195208879900,9.0458798828125,0.178712307074666,0.3480308359254151,-0.10983867733478546
1733751195218855000,9.05585498046875,0.00405599739253521,0.3077288553491235,-0.07951178200170397
1733751195228830000,9.065829833984376,-0.050237318331003186,0.320719927412644,0.01510755276083946
1733751195238806000,9.075805908203124,-0.0638046559125185,0.3507512008000165,0.09978139370083808
1733751195248781000,9.085781005859374,-0.04026420584917068,0.36054574184454974,0.14023995307832957
1733751195258756900,9.0957568359375,0.06423895567655563,0.3421985495753586,0.21297449603006244
1733751195268732000,9.10573193359375,0.19267828858494757,0.21640154786929486,0.19543401703387497
1733751195278708000,9.1157080078125,0.2324608483970165,0.05698430837318301,0.09980272874981164
1733751195288683000,9.12568310546875,0.14707447527348994,-0.06972863913401961,0.06877221519201994
1733751195298658800,9.135658935546875,-0.10378712221086024,-0.1507683613553643,0.07196998832002281
1733751195308634000,9.145634033203125,-0.3590162672549486,-0.1435489314958453,0.11205094655677676
1733751195318610000,9.15560986328125,-0.5014180745422839,-0.011919862635433673,0.24549291005805132
1733751195328585000,9.1655849609375,-0.49595513296127314,0.10936068455949426,0.2949821865007281
1733751195338559700,9.175559814453125,-0.3789198221206665,0.12451704489812254,0.2726408830940723
1733751195348536000,9.1855361328125,-0.318774273237586,0.18163360134884715,0.394762118896842
1733751195358510800,9.1955107421875,-0.3304682181626558,0.35859891862571236,0.6542877920910716
1733751195368487000,9.20548681640625,-0.3769283560425043,0.21800942145735025,0.4169556843958795
1733751195378462000,9.2154619140625,-0.4359557145506143,0.0848633721627295,0.19670184501260518
1733751195388438000,9.22543798828125,-0.5555033004730939,-0.04987681445553899,0.07794745529443026
1733751195398413000,9.2354130859375,-0.7209405309110879,-0.09634908116459846,-0.037857583098858595
1733751195408388900,9.245388916015624,-0.8776537721455097,-0.03124211048185825,-0.08283420442268252
1733751195418364000,9.255364013671874,-1.0717220537841319,0.0353038069628179,0.044646950978040695
1733751195428339000,9.2653388671875,-1.2763012080430984,0.06286912862807512,-0.007240911038964987
1733751195438315000,9.27531494140625,-1.581813848647475,0.3620446751654148,0.3747024966865778
1733751195448289800,9.285289794921875,-1.8688000679582357,0.45182168446332216,0.5543110219486057
1733751195458266000,9.29526611328125,-2.035781020706892,0.6763819888688624,0.5387533873327076
1733751195468241000,9.305240966796875,-2.0828806255340573,0.8458679101757705,0.44110126074552536
1733751195478217000,9.315217041015625,-2.0385551615953443,0.9259398102782667,0.24185090029388664
1733751195488191700,9.325191650390625,-1.8909224679172039,1.0281054687671363,0.3161569303460419
1733751195498168000,9.33516796875,-1.7043910115242003,1.3943465727090836,0.8061889568686484
1733751195508142800,9.345142822265625,-1.7437030312150716,1.3214309741020203,0.5048851661309599
1733751195518118000,9.355117919921875,-1.661203611704707,1.1608528741329909,0.47751828964725135
1733751195528093700,9.36509375,-1.467017256644368,0.913293533064425,0.48288770772591233
1733751195538069000,9.375069091796876,-1.3196248014628886,0.7225273617111146,0.38167189730778334
1733751195548044800,9.385044921875,-1.0975175892978906,0.7536977221310138,0.6260422330766916
1733751195558019800,9.395019775390624,-0.9037795625269412,0.5223204311870038,0.37897476717829703
1733751195567996000,9.404995849609374,-0.9913146381169557,0.40409897930175065,0.0030322073027491568
1733751195577971000,9.414970947265624,-1.0736918925523757,0.42129824364483354,-0.17223975005969405
1733751195587947000,9.424947021484375,-1.1140437766849993,0.48017070385217664,-0.20891937542036174
1733751195597921800,9.434921875,-1.0910855104237793,0.6038142538513988,-0.0396722313053906
1733751195607898000,9.444898193359375,-1.0251876816242933,0.7104295852255076,0.19786007513701914
1733751195617873000,9.454872802734375,-0.8845505459219217,0.7809605537183583,0.39685952956750986
1733751195627848000,9.464847900390625,-0.6522773290514946,0.8131007820837199,0.5500248690620064
1733751195637823700,9.47482373046875,-0.43695641602575774,0.8169653485573828,0.6844283710718154
1733751195647799000,9.484799072265625,-0.23220775041878222,0.7957053375814109,0.6882154883950948
1733751195657774800,9.49477490234375,-0.09948971727788447,0.7672808418035507,0.639836949673295
1733751195667750000,9.50475,-0.01053659158349037,0.7185507131651043,0.5858969774320721
1733751195677726000,9.514725830078126,0.012796353209018707,0.6157702837787569,0.5229590213514864
1733751195687701000,9.524700927734376,-0.01715980911552906,0.4585999464266002,0.3909174261674285
1733751195697676800,9.5346767578125,-0.13764730623662472,0.3644082624915987,0.1584790818631649
1733751195707651800,9.54465185546875,-0.12493337061405181,0.32555903800688685,0.07002046168744563
1733751195717627000,9.554626953125,-0.052602293896675104,0.19775984789924694,-0.001895750618726015
1733751195727603000,9.56460302734375,-0.11989654549062251,0.2628453191362321,-0.09700915250852704
1733751195737578000,9.574577880859374,-0.037871757754683495,0.33417737487889826,-0.05943608543947339
1733751195747553800,9.5845537109375,0.07328443191945552,0.2897508617185056,0.030189678819477556
1733751195757529000,9.594529052734375,0.24070611417293547,0.2205955289604142,0.13053499001339078
1733751195767505000,9.6045048828125,0.3107400198638439,0.3844437001086771,0.16977321381568908
1733751195777480000,9.61447998046875,0.5008814834475517,0.31093203530460595,0.2726914442375302
1733751195787456000,9.6244560546875,0.5833142674624919,0.2157030442111194,0.19824001436531544
1733751195797431000,9.63443115234375,0.5620832633852958,0.14165413072519004,0.071688979421556
1733751195807405800,9.64440576171875,0.43229426943361754,0.013268281569704412,-0.06964242215529083
1733751195817382000,9.6543818359375,0.30169279005527494,-0.18899302420094607,-0.16982099848017096
1733751195827357000,9.66435693359375,0.15586743806004524,-0.3177947606809437,-0.14855696891620754
1733751195837333000,9.6743330078125,-0.016722002220153808,-0.2651362065523863,-0.06350377326980233
1733751195847308000,9.68430810546875,-0.08038695740103721,-0.28021394869685173,-0.04015300055965781
1733751195857283800,9.694283935546874,-0.21186521961390972,-0.25388635213300587,0.010629384433478117
1733751195867259100,9.704259033203124,-0.25490765800476073,-0.1544116862937808,0.11099281580597162
1733751195877235000,9.71423486328125,-0.28192835139930245,-0.017218991956859827,0.17487053695470095
1733751195887210000,9.7242099609375,-0.24205752878189085,0.01935600398555398,0.17361147680431605
1733751195897184800,9.734184814453124,-0.14185586384236812,-0.009291852219402789,0.07487097045853734
1733751195907161000,9.7441611328125,-0.09509469718933104,0.031110154665261507,0.043073418051004404
1733751195917136000,9.754135986328125,-0.044644612890481945,0.0692391020514071,0.02477569094672799
1733751195927112000,9.76411181640625,-0.013159341302514076,0.08032251386269927,0.019289953012019394
1733751195937086700,9.774086669921875,-0.008519406542181968,0.10590396823436021,0.0758455145791173
1733751195947063000,9.78406298828125,0.08043605723977089,0.10149784222990274,0.15125643713325262
1733751195957037800,9.794037841796875,0.23746552481651304,0.06299567761719227,0.19323519181534646
1733751195967014000,9.804013916015625,0.3494464748769998,0.019946224963665007,0.25364143746122714
1733751195976989000,9.813989013671875,0.38332302551567554,-0.05785159272700548,0.299422068644315
1733751195986965000,9.823965087890626,0.26020459536910057,-0.15042524700611828,0.2441270285323262
1733751195996939800,9.833939697265626,0.6308528482288122,0.006736030256748199,0.0984049907810986
1733751196006914800,9.843914794921876,0.7695189761191606,-0.028076047666370868,-0.016031827998906373
1733751196016891000,9.853890869140624,0.576329815402627,-0.14506488901674747,-0.027937515978515147
1733751196026866000,9.863865966796874,0.4720288984507322,-0.1784793751016259,-0.02937704726234078
1733751196036842000,9.873842041015624,0.4900906248420477,-0.1555310457125306,-0.12015125090405344
1733751196046816800,9.883816650390624,0.565794392862916,-0.2743807124987244,-0.4241564095549285
1733751196056793000,9.89379296875,0.5468816026002168,0.08127952232658862,-0.012097703420370816
1733751196066768000,9.903767822265625,0.6699164461165666,-0.01012450365126133,-0.18522519610002636
1733751196076744000,9.913743896484375,0.671079644677043,0.09689677817523479,0.051778118032217026
1733751196086719000,9.923718994140625,0.6962497417688369,0.4344561236426234,0.41994814421012994
1733751196096694000,9.933694091796875,0.8253782259851694,0.14275339720398186,0.006364420465379953
1733751196106669800,9.943669921875,0.6967448318094015,-0.04638151968568563,-0.19945406633019447
1733751196116644900,9.953644775390625,0.5176718747287988,0.1107847260132432,0.1573712667517364
1733751196126621000,9.963620849609375,0.4249474138021469,-0.16643384025990962,-0.40930151638090606
1733751196136596000,9.973595947265625,0.3576128301978111,-0.18392887267917393,-0.3205668557427823
1733751196146571800,9.98357177734375,0.3839952256888151,-0.1273886548116803,-0.3238720347680151
1733751196156546800,9.993546875,0.4874836572140455,-0.07382043849229812,-0.3927943259552121
1733751196166523000,10.00352294921875,0.5105711028128862,-0.016752689619362354,-0.4491100874170661
1733751196176498000,10.013497802734374,0.47010874404311176,-0.034788989308476445,-0.49242096748575565
1733751196186473000,10.023472900390624,0.4593944578051567,-0.05909516304731369,-0.5450239920347929
1733751196196449000,10.033448974609374,0.48840603275597094,0.0363245283126831,-0.6047042614936828
1733751196206424000,10.043424072265625,0.6654635583609342,-0.16893062551170587,-0.3870762405693531
1733751196216400000,10.05339990234375,0.826699245455861,0.057315001632273196,0.09052154405489564
1733751196226375000,10.063375,1.1087959391593933,0.06822422592043877,0.023922142857313155
1733751196236351000,10.07335107421875,1.3249620708376169,-0.3681175653383136,0.1679378150820732
1733751196246326000,10.083325927734375,1.321078507402539,-0.3008864421084523,0.47103345767259597
1733751196256301800,10.0933017578125,1.2127321144521235,0.04222819939851761,0.6294884280078112
1733751196266276900,10.10327685546875,0.9122352561831474,0.18343553620427847,0.4749827798202634
1733751196276252000,10.113251953125,0.6469938356906175,0.2032160492122173,0.2707556538693607
1733751196286228000,10.12322802734375,0.5421189182430506,0.364095762476325,0.3374082465589046
1733751196296203000,10.133203125,0.47092532112300395,0.008965396744012833,-0.4256019321881234
1733751196306178800,10.1431787109375,0.4812918168365955,-0.25099019230008124,-0.3676034783363342
1733751196316154000,10.153154052734376,0.7149480124980211,-0.20814853717833756,0.2042319482564926
1733751196326130000,10.1631298828125,1.0128408257484436,-0.19698036969304084,0.3716343412876129
1733751196336105000,10.17310498046875,1.1806938851565123,-0.15748101073652504,0.4598470238782465
1733751196346081000,10.1830810546875,1.2444821744561194,-0.1381266141861677,0.45980070051848887
1733751196356056000,10.19305615234375,1.1900362985193729,-0.13252952483147382,0.2771447703845799
1733751196366030800,10.20303076171875,1.0020400302708148,-0.15398790792375802,0.016196224780380724
1733751196376007000,10.2130068359375,0.743460405755043,-0.23304507802575825,-0.24526699234768748
1733751196385982000,10.22298193359375,0.3486936106830835,-0.35098522875159976,-0.5410023353032768
1733751196395958000,10.2329580078125,-0.09443184936642646,-0.44358080260157584,-0.8716292511589825
1733751196405932800,10.242932861328125,-0.386309932371974,-0.42720191473066804,-0.971078782556951
1733751196415908900,10.252908935546875,-0.3542962529957294,-0.3824129249334335,-0.7721243363119661
1733751196425884000,10.2628837890625,-0.09857318695485591,-0.35648557973355055,-0.3686963881395757
1733751196435860000,10.27285986328125,0.29416297907233235,-0.3718760410889983,0.04450023598372936
1733751196445834800,10.282834716796875,0.7468202375769615,-0.4330404116258025,0.3878780584715307
1733751196455809800,10.292809814453125,1.1122475409179926,-0.4755865909323096,0.5729242447428405
1733751196465785900,10.302785888671876,1.2943430606901645,-0.46357291253358124,0.7194874094933271
1733751196475761000,10.312760986328126,1.359195764350891,-0.41983021691888567,0.7099541497334837
1733751196485737000,10.322737060546874,1.221724399203062,-0.3597439970076084,0.5416811113476753
1733751196495712000,10.3327119140625,0.9621849897444248,-0.3237044231161475,0.3883388078510761
1733751196505688000,10.34268798828125,0.5404670593827963,-0.2786863007381558,0.14958587357252837
1733751196515662800,10.352662841796874,0.1291121176034212,-0.1804680647008121,-0.01948226071372628
1733751196525639200,10.36263916015625,-0.08994389029741287,-0.14130582874417305,-0.026993220865726468
1733751196535614000,10.372614013671875,-0.1023819315880537,-0.1324922615610063,0.018745617002248763
1733751196545589000,10.382589111328125,-0.0258504805713892,-0.14442352237328887,-0.03848579799979925
1733751196555564800,10.392564697265625,0.14014087661802768,-0.2015396404325962,-0.05170717168785632
1733751196565540000,10.4025400390625,0.31948972803056236,-0.23836656530946493,-0.07587364469505846
1733751196575516000,10.412515869140625,0.45674189746975896,-0.4351474669076502,-0.176337248506397
1733751196585491000,10.422490966796875,0.47309740446507925,-0.4129655918464064,-0.20285371870584784
1733751196595466800,10.432466796875,0.36051205877065656,-0.43246305012926456,-0.31239122113697226
1733751196605442000,10.442442138671876,0.11252572446167468,-0.313270707385242,-0.33587373046800495
1733751196615417900,10.45241796875,-0.13864800771176813,-0.1459023627541959,-0.14931830867752433
1733751196625393000,10.462392822265626,-0.25414719502627847,-0.08805354650616645,-0.2606836110576987
1733751196635368000,10.472367919921876,-0.2943132011979818,0.13820187137946485,0.03283347132652998
1733751196645344000,10.482343994140624,-0.29286592499911784,0.06421279832199216,-0.14405330082140863
1733751196655319000,10.492319091796874,-0.23691782780587672,0.23399288026988505,0.22937917592935264
1733751196665294800,10.502294921875,-0.04595218835771084,0.07458163212314248,-0.01913951169066131
1733751196675270100,10.512270263671875,0.1677507680773735,0.16712138413265346,0.3320236309111118
1733751196685246000,10.522245849609375,0.37152562021613117,-0.04813859248608351,0.056362230952084064
1733751196695221000,10.532220947265625,0.35223990498781205,-0.00518967759758234,0.05863631336390972
1733751196705196800,10.54219677734375,0.18596622372567653,0.02650499895736575,-0.18026859660595654
1733751196715172000,10.552172119140625,-0.23245851030945777,-0.15797544318996368,-0.8126001390852033
1733751196725147100,10.562147216796875,-0.6551397327452898,0.09359795582555235,-0.6066944123975933
1733751196735123000,10.572123046875,-0.8285907582908868,0.30723676098324354,-0.5297868215449154
1733751196745098000,10.582097900390625,-0.8716957405239343,0.3363137293204665,-0.5404466011166572
1733751196755074000,10.592073974609375,-0.765657624515891,0.3677493896130472,-0.27906039474755523
1733751196765049000,10.602049072265626,-0.4923141461104154,0.04394508631899953,-0.4507449951425194
1733751196775025000,10.61202490234375,-0.24309797774553296,0.318890373897925,0.5533201112151146
1733751196785000200,10.622000244140626,0.026644261297583578,0.5110131840245798,1.0291327659882605
1733751196794976000,10.63197607421875,0.1989654060304165,0.3409790542503819,0.7618421578809619
1733751196804951000,10.641950927734374,0.3638303895384073,0.1035963854117319,0.5343105825796723
1733751196814926800,10.6519267578125,0.4950228205472231,-0.04968980398345738,0.3762615626968443
1733751196824902100,10.661902099609375,0.45350423072278495,-0.17314157600393518,0.20647402809485793
1733751196834877000,10.671876953125,0.22898703480660915,-0.2409789762975648,0.02640358440950513
1733751196844853000,10.68185302734375,0.0010848726272583008,-0.24886282488256692,-0.026563743407279253
1733751196854827800,10.691827880859375,-0.315310981041193,-0.17702420785725115,0.07406549929454923
1733751196864804000,10.70180419921875,-0.6416729329288006,-0.04384590026084333,0.22136866875737904
1733751196874779000,10.71177880859375,-0.9248539147377014,0.12895219606766475,0.33471886134445666
1733751196884755000,10.7217548828125,-1.1051736570090054,0.2669874239096418,0.39358182307109235
1733751196894729700,10.731729736328125,-1.0894885966211556,0.29379376216745,0.32629151699990033
1733751196904706000,10.7417060546875,-0.8857511538833379,0.32696284039020534,0.4195892477698624
1733751196914680800,10.751680908203125,-0.6291676716208457,0.0059953496909700334,0.036811142785847184
1733751196924655900,10.76165576171875,-0.3639069619059562,0.11956731353625655,0.5686886529996991
1733751196934632000,10.7716318359375,-0.22912848910391329,-0.022871099434420464,0.3426243737719953
1733751196944607000,10.78160693359375,-0.28351532832980153,-0.3314376111840829,0.03228241331502795
1733751196954583000,10.7915830078125,-0.30966976028382776,-0.5091568521007895,0.01505859905257821
1733751196964557800,10.801557861328124,-0.3520037581443786,-0.5977803805146366,-0.026481764212250708
1733751196974534100,10.8115341796875,-0.36446401126682754,-0.6044157268758863,-0.022626988480240105
1733751196984509000,10.821509033203125,-0.2794949867725372,-0.48744295987747605,-0.177112178401649
1733751196994485000,10.831485107421875,-0.23651567674577234,-0.5275439379889517,-0.01103182775452733
1733751197004459800,10.841459716796875,-0.09469663778245449,-0.42908685169443483,-0.004764730183780193
1733751197014435000,10.85143505859375,-0.014355273088812827,-0.3110957014337182,0.0020062252558767793
1733751197024411000,10.861410888671875,0.020931728869676588,-0.12805720172300933,-0.09111015759781002
1733751197034386000,10.871385986328125,-0.22123218289613722,-0.07847542469128965,0.025786329293996095
1733751197044362000,10.881362060546875,-0.5665133547872304,0.0450223601616919,0.019665362195670603
1733751197054337000,10.8913369140625,-1.1166150884777306,0.10891060270443557,0.030307752241194245
1733751197064312800,10.901312744140625,-1.6991233002543449,0.3359288216561079,0.11529665047973393
1733751197074287900,10.911287841796875,-2.2216163115292784,0.5321570578075945,-0.037944822990894314
1733751197084264000,10.921263916015626,-2.474786185956001,0.9254710237227379,0.2476199852146208
1733751197094239000,10.931239013671876,-2.3689947381854055,1.2936783131711185,0.4131181520596146
1733751197104214000,10.941214111328126,-1.862385524740815,1.6211182695537805,0.8086813582062721
1733751197114189800,10.95118994140625,-1.3260966278254984,1.6645928157515824,0.7401216167211532
1733751197124165000,10.9611650390625,-0.8626233762741088,1.6119754704162477,0.7915593968831002
1733751197134141000,10.971140869140624,-0.6397627153933048,1.279641019990295,0.36748321295753117
1733751197144116000,10.981115966796875,-0.49432256332337854,0.9985973424710333,0.2110996420688927
1733751197154092000,10.991092041015625,-0.5492115068525075,0.7806661008164286,0.0841194219276309
1733751197164067000,11.001067138671875,-0.7625017908334731,0.5903972114607692,-0.038393881932646035
1733751197174043000,11.01104296875,-1.0313672470420598,0.49660190643221136,-0.11122004869058727
1733751197184018000,11.021017822265625,-1.2453572037249803,0.4674350678544491,-0.09811360661908984
1733751197193993000,11.030992919921875,-1.3200281215667724,0.45133865018673236,0.013209171793609857
1733751197203969000,11.040968994140625,-1.2662059304863214,0.4429425777632743,0.22147110621854663
1733751197213944000,11.050944091796875,-1.087641507449746,0.4224990708019584,0.35644817033261056
1733751197223919900,11.060919921875,-0.9378829076588153,0.38813217936307187,0.4609026704110205
1733751197233895200,11.070895263671876,-0.8435229544848203,0.35278511778041716,0.5123883813679218
1733751197243871000,11.08087109375,-0.7729501196116209,0.3112314566425979,0.5522026514925062
1733751197253846000,11.090845947265626,-0.7073737778514623,0.3246981833938509,0.5575171245135366
1733751197263822000,11.100822021484374,-0.696534988451004,0.3918046938633546,0.4683163076683879
1733751197273797000,11.110797119140624,-0.7063806751608848,0.4606468690190464,0.3586139700643718
1733751197283772000,11.12077197265625,-0.7397901928097009,0.5105034078715369,0.284864697112143
1733751197293748000,11.130748046875,-0.8170493735790252,0.5541317929241806,0.2927726937577128
1733751197303722800,11.14072265625,-0.9685440033823252,0.6054799951065332,0.34634500173032284
1733751197313699000,11.150698974609375,-1.1138619903773068,0.683310180696845,0.3735625328712165
1733751197323673900,11.160673828125,-1.0892314069896936,0.7623084602184593,0.46773017834350467
1733751197333650000,11.17064990234375,-0.9493032963395118,0.8113456089794635,0.5375643236786127
1733751197343625000,11.180625,-0.7166875496417283,0.7950298494726419,0.5702709537550806
1733751197353601000,11.19060107421875,-0.43190731594264503,0.7011511039443313,0.5606785111539065
1733751197363575800,11.200575927734375,-0.1806254472196102,0.5468482848525047,0.46955374050885434
1733751197373550800,11.21055078125,-0.037569559937715526,0.3461220431620255,0.3263495307974517
1733751197383527200,11.220527099609376,-0.02271978133022785,0.15971498033367096,0.21095234255269169
1733751197393502000,11.230501953125,-0.03858662802577018,0.003820983060263097,0.13313801211863754
1733751197403478000,11.24047802734375,-0.050365913146734234,-0.0783048904299736,0.037389088804274793
1733751197413452800,11.250452880859376,-0.11623510037362575,-0.09739449856430292,-0.009053659549355506
1733751197423429000,11.26042919921875,-0.22198095543682575,-0.08316131748519838,-0.0018422668658196926
1733751197433404000,11.27040380859375,-0.35328736821413037,0.0024085224464535713,0.012770780376344918
1733751197443380000,11.2803798828125,-0.38611528658270833,0.13923749803751706,0.031892537214607
1733751197453355000,11.29035498046875,-0.28657003972530365,0.3050279988925904,0.08219152260497212
1733751197463331000,11.3003310546875,-0.05624444979131221,0.4126688008569181,0.08428206514343618
1733751197473305900,11.310305908203125,0.31451953840255736,0.46465661611706016,0.09050590809434651
1733751197483281000,11.320281005859375,0.6453326244801283,0.41322614247873424,0.08365779576525091
1733751197493257000,11.330257080078125,0.814312057569623,0.21602555416375396,0.028398265358060597
1733751197503232000,11.34023193359375,0.9510381573081016,0.03218129102811217,0.04814239187836647
1733751197513207800,11.350207763671875,0.9891606749534606,-0.11094576179385185,0.0659292468510568
1733751197523183400,11.360183349609375,0.9508516948252915,-0.20296587384343145,0.05749225789532065
1733751197533159200,11.3701591796875,0.8202765189319848,-0.26464725399166344,-0.08631459388434887
1733751197543134500,11.380134521484376,0.5910878240734339,-0.03287716433778405,0.04633008175939321
1733751197553110300,11.3901103515625,0.36594168260395527,-0.11241583434641361,-0.3963257149517536
1733751197563085300,11.400085205078126,0.26363690790534017,0.01844970279559493,-0.18131109139621257
1733751197573060400,11.410060302734376,0.08934300179481505,-0.017467413759976624,-0.3249311884321272
1733751197583036400,11.420036376953124,0.3228390384584665,0.11256941747292876,-0.005111059403419494
1733751197593011500,11.430011474609374,0.49194706636369223,0.2406307108491659,-0.17222747510001063
1733751197602987300,11.4399873046875,0.5440034168154001,0.45079146463274955,0.2580237441986799
1733751197612962300,11.44996240234375,0.6378548359453677,0.2802969508051872,0.14107918038144707
1733751197622938400,11.4599384765625,0.6688274818360805,0.3978837580487132,0.47438729814514513
1733751197632913400,11.469913330078125,0.7730068182349205,0.0663815206632018,0.09736556473076342
1733751197642889200,11.47988916015625,0.6306839214026928,-0.004437105664610862,0.1439713946916163
1733751197652864500,11.489864501953125,0.5358399841040372,0.034708617548644544,0.12548179827705025
1733751197662839300,11.49983935546875,0.5244745404809713,0.05521452222168445,0.16097645163685081
1733751197672815400,11.5098154296875,0.47714697211682794,-0.017476035457849502,0.18192133224904536
1733751197682790400,11.519790283203125,0.5480681820362806,0.014990940643846987,0.27205402311682697
1733751197692766500,11.529766357421876,0.6019821430534124,0.030228841786086556,0.28914412799701095
1733751197702741500,11.539741455078126,0.5139934784770012,-0.10883037707507609,-0.02075344969332218
1733751197712717300,11.54971728515625,0.4072013292312622,0.31138445524722336,0.37226650171130893
1733751197722692400,11.5596923828125,0.5830681837469339,0.33964638087451454,0.05836041903197765
1733751197732668400,11.56966845703125,0.7166776127696037,-0.07596738739311695,-0.3680316406205296
1733751197742643500,11.5796435546875,0.8378542611986398,-0.0315644743040204,-0.11508856068700551
1733751197752618200,11.5896181640625,0.9648772975683212,-0.03874970963299274,-0.06858867531865835
1733751197762594300,11.59959423828125,0.9097720809400082,-0.014373977789282798,-0.04646393727213144
1733751197772569300,11.6095693359375,0.9360358184874057,0.4358744660079479,0.06352686188444495
1733751197782545400,11.61954541015625,1.1362982785910367,-0.32146278166919945,-0.45049058199003333
1733751197792520200,11.629520263671875,0.9664134210944175,-0.5300555554836988,-0.5336857286795973
1733751197802496500,11.63949658203125,0.8085551014780997,-0.3480351467743516,-0.5074613002292812
1733751197812471300,11.64947119140625,0.6924936041057109,-0.24178689514696597,-0.5889711241804063
1733751197822447400,11.659447265625,0.7220680736362933,-0.1118561546370387,-0.6031489948756993
1733751197832422100,11.669422119140625,0.8574789991229772,-0.06715922703742981,-0.46440351813882585
1733751197842398500,11.6793984375,1.0509709421783686,-0.08187631917595863,-0.22316256643682716
1733751197852373200,11.689373291015626,1.2161971602141857,-0.09278642024695873,-0.1250724868237972
1733751197862348300,11.699348388671876,1.092843167746067,-0.26226678859591485,-0.09155001031979917
1733751197872324400,11.709324462890624,0.7674024223566055,-0.1381467801913619,0.009839841490983962
1733751197882299400,11.71929931640625,0.37309856862127777,-0.07749503535181283,-0.217924081261456
1733751197892275500,11.729275390625,0.09295359350740909,-0.13609540061950684,-0.31542803154960275
1733751197902250200,11.739250244140624,0.0312964710175991,-0.17929507539868353,-0.21320684348121285
1733751197912226600,11.7492265625,0.11688450419306755,-0.1465738322749734,0.00278568519577384
1733751197922201300,11.759201416015625,0.29441490800678727,-0.16598755779713392,0.14840572387725115
1733751197932177400,11.769177490234375,0.49917584857344627,-0.2413368132919073,0.33413141684532166
1733751197942152200,11.779152099609375,0.661112961935997,-0.32791268846094607,0.5672840468987822
1733751197952127500,11.78912744140625,0.7784475479841232,-0.36923546345233915,0.6811087251298129
1733751197962103300,11.799103271484375,0.7942267163962126,-0.42297172981500625,0.5411151480279862
1733751197972078300,11.809078369140625,0.7278244452059268,-0.49301031168103215,0.316565218885988
1733751197982054100,11.81905419921875,0.4625672426223755,-0.5131920989662409,-0.015799188286811112
1733751197992029400,11.829029541015625,0.0890975026011467,-0.4710577153310179,-0.36264570979848504
1733751198002005200,11.839005126953126,-0.1492635097503662,-0.39830344476550816,-0.596187339169532
1733751198011980300,11.848980224609376,0.01987023711800575,-0.2676803380772471,-0.6433863127179443
1733751198021956400,11.858956298828126,0.1552069283246994,-0.2100315744459629,-0.3932143049329519
1733751198031931400,11.868931396484374,0.4173959755092859,-0.15436200193315744,-0.08554170981571078
1733751198041906400,11.878906494140624,0.9341302771270275,-0.17199322795271874,0.3387742742151022
1733751198051882200,11.88888232421875,1.5065607470035551,-0.20441870300024748,0.7031300758671015
1733751198061857300,11.898857177734374,1.9829361502259968,-0.2457531684294343,0.9681318423848598
1733751198071833300,11.908833251953125,2.294644138339162,-0.26139994263350963,0.9323664823248982
1733751198081808400,11.918808349609375,2.3654051892608403,-0.31322014624178407,0.6247079887982457
1733751198091784200,11.9287841796875,2.0686755745708942,-0.3806277950823307,0.14964206073917447
1733751198101759500,11.938759521484375,1.2266203545510768,-0.43462534272968767,-0.3443981054462492
1733751198111735300,11.9487353515625,0.49905660610795016,-0.3756032449185848,-0.7558619874928146
1733751198121710300,11.95871044921875,0.2465004796653986,-0.2941854831650853,-1.0846307082612068
1733751198131685400,11.968685302734375,0.19486790758371353,-0.23547259743362664,-1.2354764457017182
1733751198141661400,11.978661376953125,0.20503098967969416,-0.2755316360995173,-1.1869863363642246
1733751198151636500,11.988636474609375,0.23662089068591594,-0.288673149484396,-0.8852402817517518
1733751198161612300,11.9986123046875,0.43833238055407997,-0.27981705833375453,-0.7231685091588645
1733751198171587300,12.00858740234375,0.5693447788208723,-0.2856765980169177,-0.6588326689790934
1733751198181563400,12.0185634765625,0.6670768387764692,-0.266357418910414,-0.6560426729343831
1733751198191538400,12.028538330078124,0.5696148279339075,-0.3727173142187297,-0.6840710820667445
1733751198201514200,12.03851416015625,0.27882220207750796,-0.28396234144493937,-0.36087592364698645
1733751198211489500,12.048489501953124,-0.07812836481928825,-0.42139673558324575,-0.44828561929166316
1733751198221465300,12.05846533203125,-0.5170160411685705,-0.17274302340671419,-0.11698650326281786
1733751198231440400,12.0684404296875,-0.7913876935780048,-0.09484539860337972,-0.04124561810195446
1733751198241415200,12.078415283203125,-0.9606915363162756,0.07083630811497568,0.13016703348383307
1733751198251391500,12.0883916015625,-0.935328547000885,0.2517939098984003,0.3766635676264763
1733751198261366300,12.0983662109375,-0.8315846794098615,0.3257121096767485,0.4092543162383139
1733751198271342300,12.10834228515625,-0.6995885308027266,0.4990045836597681,0.5972719195358455
1733751198281317000,12.118317138671875,-0.5337614242643117,0.5500348059341311,0.4748413255229592
1733751198291293400,12.12829345703125,-0.5090501768559217,0.2703171163216233,-0.12844400908350945
1733751198301268200,12.138268310546875,-0.3674380586415529,0.20933993891999125,0.21868995106741784
1733751198311244300,12.148244384765626,-0.2860603366374969,-0.07174027121737599,0.05217369322106242
1733751198321219300,12.15821923828125,-0.5594593446224928,-0.21832857040911913,0.10391323280856013
1733751198331194400,12.1681943359375,-0.6597521949768066,-0.06034034080281853,0.411991924508661
1733751198341170400,12.17817041015625,-0.5902040269762278,-0.0058819707106798885,0.49378816418573257
1733751198351145200,12.188145263671874,-0.27551147009432314,0.08283573879264294,0.6150387546338141
1733751198361121500,12.19812158203125,0.0544850389033556,0.11227423391863703,0.5760651731170714
1733751198371096300,12.208096435546874,0.08010287976264953,0.2568468824390322,0.7510992300704121
1733751198381072400,12.218072265625,-0.046535541203618046,0.37698410481773315,0.6717756641171873
1733751198391047200,12.228047119140625,-0.24522037672698496,0.2854884550336748,0.18023674016296862
1733751198401023500,12.2380234375,-0.389784330484271,0.5022183580745011,0.34233021313101053
1733751198410998300,12.247998291015625,-0.3028402065247297,0.7984476220268756,0.5846104447528719
1733751198420974300,12.257974365234375,-0.16824176646471023,0.696014471708238,0.13536445599645375
1733751198430949400,12.267949462890625,0.037655484655499456,0.47891325113698835,-0.03682020287513733
1733751198440924400,12.27792431640625,0.1450543676227331,0.24145667681191116,-0.031626141363382335
1733751198450900200,12.287900146484375,0.19288930098712442,0.03665558689795434,-0.011651859349012373
1733751198460875300,12.297875244140625,0.09987141007184981,-0.07282349987681955,0.051361792316287756
1733751198470851300,12.307851318359376,-0.10867021807730197,-0.0818154193015769,0.06541121432632208
1733751198480826400,12.317826416015626,-0.3031768911331892,-0.0711357842518948,0.03142623487710953
1733751198490802200,12.32780224609375,-0.3437193294018507,-0.06169232166735455,0.046022623245418066
1733751198500777200,12.337777099609376,-0.3234253139138222,-0.08962886039833538,-0.017842822943627833
