time,seconds_elapsed,z,y,x
1733751186181109200,0.018109130859375,0.0034723924472928047,-0.09295587986707687,-0.03491279482841492
1733751186191084000,0.028083984375,-0.000467713107354939,-0.08245953917503357,-0.056082967668771744
1733751186201059000,0.03805908203125,-0.0051663280464708805,-0.09465521574020386,-0.06121887266635895
1733751186211035100,0.04803515625,-0.031171303242444992,-0.0955834686756134,-0.04611200466752052
1733751186221010200,0.05801025390625,-0.04925230145454407,-0.14784054458141327,-0.01121740322560072
1733751186230986200,0.067986328125,-0.06747212260961533,-0.21361294388771057,0.03229128196835518
1733751186240961000,0.0779609375,-0.06876349449157715,-0.21465876698493958,0.07075185328722
1733751186250937300,0.087937255859375,-0.020617282018065453,-0.17105057835578918,0.08683308213949203
1733751186260912000,0.097912109375,0.03227495774626732,-0.03496916964650154,0.0985078513622284
1733751186270888200,0.10788818359375,0.06467556208372116,0.09100063890218735,0.1163768544793129
1733751186280863200,0.11786328125,0.06666254252195358,0.1308516561985016,0.13577398657798767
1733751186290838300,0.12783837890625,0.021800534799695015,0.08190088719129562,0.1848033219575882
1733751186300814000,0.13781396484375,-0.016458438709378242,-0.03532719984650612,0.2748565077781677
1733751186310789000,0.1477890625,-0.043544333428144455,-0.17165212333202362,0.3478659987449646
1733751186320765200,0.15776513671875,-0.03929872065782547,-0.3478652536869049,0.37148770689964294
1733751186330740200,0.167740234375,-0.042357608675956726,-0.3693501353263855,0.36438044905662537
1733751186340716000,0.177716064453125,0.0037459705490618944,-0.2967188060283661,0.40578487515449524
1733751186350691000,0.187691162109375,0.08621229976415634,-0.17191925644874573,0.4911051094532013
1733751186360666400,0.197666259765625,0.1326463669538498,0.048557721078395844,0.6528838872909546
1733751186370642200,0.20764208984375,0.1831800639629364,0.2047656625509262,0.8165919780731201
1733751186380617200,0.2176171875,0.2656213939189911,0.21655599772930145,0.9147084355354309
1733751186390593300,0.22759326171875,0.31351426243782043,0.11742936819791794,0.9410713315010071
1733751186400568300,0.237568359375,0.2990596890449524,0.010181215591728687,0.9053636193275452
1733751186410544000,0.247544189453125,0.2387743443250656,-0.04345213621854782,0.8482769131660461
1733751186420519200,0.257519287109375,0.19569692015647888,-0.09045585989952087,0.7745643854141235
1733751186430495200,0.2674951171875,0.18288467824459076,-0.16586168110370636,0.6809567809104919
1733751186440470300,0.27747021484375,0.19611471891403198,-0.25581926107406616,0.5932794213294983
1733751186450445000,0.287445068359375,0.21136263012886047,-0.2958206236362457,0.5481178760528564
1733751186460421000,0.297421142578125,0.21290060877799988,-0.25801944732666016,0.5552671551704407
1733751186470396200,0.307396240234375,0.21693192422389984,-0.18768438696861267,0.5569333434104919
1733751186480372200,0.317372314453125,0.22015835344791412,-0.11175233870744705,0.5553604364395142
1733751186490347300,0.32734716796875,0.22729860246181488,-0.0323479063808918,0.5679393410682678
1733751186500323000,0.337322998046875,0.22237175703048706,0.018530722707509995,0.5755717158317566
1733751186510298000,0.347298095703125,0.200153186917305,-0.008135015144944191,0.5813985466957092
1733751186520273000,0.35727294921875,0.1674192100763321,-0.06900422275066376,0.5982728600502014
1733751186530249200,0.367249267578125,0.16144616901874542,-0.11661428213119507,0.6333087086677551
1733751186540224000,0.37722412109375,0.1662595570087433,-0.11429759860038757,0.6810205578804016
1733751186550200000,0.387199951171875,0.17533481121063232,-0.09128110110759735,0.7346164584159851
1733751186560174800,0.3971748046875,0.1846311092376709,-0.07658497989177704,0.7712735533714294
1733751186570151200,0.407151123046875,0.18220223486423492,-0.056867096573114395,0.7629221677780151
1733751186580126000,0.4171259765625,0.19588209688663483,-0.0770229622721672,0.6977889537811279
1733751186590102000,0.42710205078125,0.22174453735351562,-0.04407675191760063,0.6133573055267334
1733751186600077000,0.4370771484375,0.2666366398334503,0.01713254302740097,0.5366593599319458
1733751186610052000,0.447052001953125,0.3021800220012665,0.0621330626308918,0.4807194769382477
1733751186620028000,0.45702783203125,0.28492674231529236,0.10053398460149765,0.45090192556381226
1733751186630003000,0.4670029296875,0.251228928565979,0.11205798387527466,0.4591693580150604
1733751186639979000,0.47697900390625,0.24113501608371735,0.10309218615293503,0.4923265278339386
1733751186649954000,0.4869541015625,0.23601268231868744,0.06679370254278183,0.5202082991600037
1733751186659930000,0.49693017578125,0.21006816625595093,-0.020787814632058144,0.5270252227783203
1733751186669905000,0.50690478515625,0.1671929955482483,-0.12915657460689545,0.5117322206497192
1733751186679880200,0.516880126953125,0.12180899828672409,-0.1935371607542038,0.501361608505249
1733751186689856000,0.52685595703125,0.10932105034589767,-0.1395392268896103,0.51838219165802
1733751186699831000,0.5368310546875,0.07635963708162308,-0.06150222197175026,0.5330050587654114
1733751186709807000,0.54680712890625,0.08572178333997726,-0.0032356861047446728,0.5457095503807068
1733751186719782100,0.5567822265625,0.07873444259166718,0.013523319736123085,0.5301931500434875
1733751186729758000,0.566758056640625,0.09284192323684692,-0.04205436259508133,0.4680194854736328
1733751186739733000,0.57673291015625,0.11688387393951416,-0.14449071884155273,0.3667120337486267
1733751186749708000,0.5867080078125,0.12208696454763412,-0.27168911695480347,0.2693382501602173
1733751186759684000,0.59668408203125,0.16656042635440826,-0.2551136016845703,0.22467254102230072
1733751186769659100,0.6066591796875,0.1525067836046219,-0.14182093739509583,0.21612901985645294
1733751186779635000,0.616635009765625,0.17028124630451202,0.022032173350453377,0.2628059685230255
1733751186789610200,0.6266103515625,0.15689605474472046,0.12185390293598175,0.292092502117157
1733751186799586000,0.6365859375,0.14647430181503296,0.10818442702293396,0.301277756690979
1733751186809561000,0.64656103515625,0.09034281224012375,0.04368104785680771,0.28993257880210876
1733751186819537200,0.656537109375,0.07003940641880035,-0.013040555641055107,0.2974693179130554
1733751186829512200,0.66651220703125,0.054513297975063324,-0.05410470440983772,0.31003376841545105
1733751186839487000,0.676487060546875,0.0714520663022995,-0.055617380887269974,0.31925442814826965
1733751186849463000,0.686463134765625,0.06967684626579285,-0.06296555697917938,0.31596633791923523
1733751186859437800,0.696437744140625,0.10157406330108643,-0.019365880638360977,0.2847506105899811
1733751186869414100,0.7064140625,0.10216070711612701,0.04134085774421692,0.21795417368412018
1733751186879389000,0.716388916015625,0.13267360627651215,0.05502551048994064,0.18266090750694275
1733751186889365000,0.726364990234375,0.14204318821430206,0.1047251746058464,0.14992621541023254
1733751186899340000,0.736340087890625,0.16268029808998108,0.13849937915802002,0.15290868282318115
1733751186909315000,0.746315185546875,0.16450811922550201,0.11133892089128494,0.17370930314064026
1733751186919291100,0.756291015625,0.13782164454460144,0.04723343998193741,0.16693662106990814
1733751186929266000,0.766265869140625,0.0935085266828537,-0.007249901071190834,0.14102716743946075
1733751186939242200,0.7762421875,0.056196846067905426,-0.035471685230731964,0.11168872565031052
1733751186949217000,0.786217041015625,0.024235574528574944,-0.03094012290239334,0.09616906195878983
1733751186959193000,0.796193115234375,0.022240333259105682,-0.012955795042216778,0.05847254768013954
1733751186969168000,0.80616796875,0.04226629063487053,-0.007719861809164286,0.0004707658663392067
1733751186979144200,0.816144287109375,0.05597544461488724,-0.004988524131476879,-0.06285227835178375
1733751186989119000,0.826118896484375,0.0704517513513565,0.020472310483455658,-0.08870305120944977
1733751186999094000,0.836093994140625,0.03659765049815178,0.050239525735378265,-0.09391432255506516
1733751187009070000,0.846070068359375,-0.006476214621216059,0.045679714530706406,-0.10605621337890625
1733751187019045000,0.856045166015625,-0.036105748265981674,-0.014212382957339287,-0.11177508533000946
1733751187029021000,0.86602099609375,-0.06675036251544952,-0.09737459570169449,-0.1364830881357193
1733751187038996000,0.875995849609375,-0.08097643405199051,-0.1606060266494751,-0.1861928552389145
1733751187048972000,0.885971923828125,-0.09781815111637115,-0.1873205453157425,-0.23455461859703064
1733751187058947000,0.895947021484375,-0.10965031385421753,-0.16458140313625336,-0.27193501591682434
1733751187068922000,0.905922119140625,-0.11684688925743103,-0.09293700754642487,-0.2865403890609741
1733751187078898000,0.91589794921875,-0.1275930106639862,-0.007388545200228691,-0.2864040434360504
1733751187088873200,0.925873291015625,-0.1496356725692749,0.06401123106479645,-0.29367849230766296
1733751187098849000,0.93584912109375,-0.18720382452011108,0.08678125590085983,-0.3121302127838135
1733751187108824000,0.945823974609375,-0.2029537409543991,0.05530243366956711,-0.3436889052391052
1733751187118800100,0.955800048828125,-0.2161843180656433,0.0025617224164307117,-0.3897797167301178
1733751187128775200,0.965775146484375,-0.23005101084709167,-0.028573494404554367,-0.44549188017845154
1733751187138750000,0.97575,-0.24997757375240326,-0.02751195803284645,-0.5039051175117493
1733751187148726000,0.98572607421875,-0.2592872977256775,0.026398232206702232,-0.5556269884109497
1733751187158701000,0.995701171875,-0.2588220536708832,0.10367704182863235,-0.6014711856842041
1733751187168677000,1.005677001953125,-0.26488110423088074,0.15205024182796478,-0.6573254466056824
1733751187178652200,1.015652099609375,-0.2738759219646454,0.12721014022827148,-0.7087982296943665
1733751187188628000,1.0256279296875,-0.2996211647987366,0.023470602929592133,-0.7698424458503723
1733751187198603300,1.035603271484375,-0.3084604740142822,-0.1255769282579422,-0.818286120891571
1733751187208579000,1.0455791015625,-0.29687827825546265,-0.2182595580816269,-0.8307507038116455
1733751187218554000,1.05555419921875,-0.27046000957489014,-0.22823868691921234,-0.8027992248535156
1733751187228529000,1.06552880859375,-0.23294001817703247,-0.19009195268154144,-0.7670759558677673
1733751187238505200,1.075505126953125,-0.16376681625843048,-0.12985044717788696,-0.7372597455978394
1733751187248480000,1.08547998046875,-0.13776205480098724,-0.06706080585718155,-0.749438464641571
1733751187258456000,1.0954560546875,-0.14961284399032593,-0.026376226916909218,-0.7831503748893738
1733751187268430800,1.105430908203125,-0.18908677995204926,0.0008291513659060001,-0.8361000418663025
1733751187278407200,1.1154072265625,-0.23090079426765442,0.03305526450276375,-0.8921686410903931
1733751187288382000,1.1253818359375,-0.2686704397201538,0.003241888014599681,-0.9413214325904846
1733751187298357000,1.13535693359375,-0.31213483214378357,-0.0725034698843956,-0.9778935313224792
1733751187308333000,1.1453330078125,-0.3576737642288208,-0.18395699560642242,-0.9851808547973633
1733751187318308000,1.15530810546875,-0.3735688328742981,-0.2729577124118805,-0.9682756662368774
1733751187328284000,1.165283935546875,-0.3479951024055481,-0.289544016122818,-0.9254605174064636
1733751187338259000,1.175259033203125,-0.3188318908214569,-0.21238400042057037,-0.8632826209068298
1733751187348235000,1.185235107421875,-0.27789217233657837,-0.44672179222106934,-0.7924233078956604
1733751187358210000,1.1952099609375,-0.2910180985927582,-1.0469245910644531,-0.6737338900566101
1733751187368186000,1.20518603515625,-0.37106215953826904,-0.9935221076011658,-0.5761186480522156
1733751187378161000,1.215160888671875,-0.36153095960617065,-0.6238782405853271,-0.5295686721801758
1733751187388136200,1.22513623046875,-0.32441017031669617,-0.28103071451187134,-0.5691688060760498
1733751187398112000,1.235112060546875,-0.3178579807281494,0.007787494920194149,-0.6889228820800781
1733751187408087000,1.245087158203125,-0.29430055618286133,0.1746351569890976,-0.8433120846748352
1733751187418063000,1.25506298828125,-0.2937290370464325,0.46393832564353943,-0.9784347414970398
1733751187428038100,1.2650380859375,-0.22869214415550232,0.739841639995575,-1.0951834917068481
1733751187438014000,1.275013916015625,-0.19504523277282715,0.3091285824775696,-1.1065876483917236
1733751187447989000,1.284989013671875,-0.1402900069952011,-0.14447908103466034,-1.0225499868392944
1733751187457964000,1.294964111328125,-0.13870437443256378,-0.19018425047397614,-0.9230012893676758
1733751187467940000,1.304940185546875,-0.18408553302288055,-0.19139230251312256,-0.8262230753898621
1733751187477915100,1.3149150390625,-0.2261701375246048,-0.20343191921710968,-0.7654744982719421
1733751187487891000,1.324890869140625,-0.24106289446353912,-0.18292255699634552,-0.7364397644996643
1733751187497866200,1.3348662109375,-0.2386053204536438,-0.1687508225440979,-0.7316564321517944
1733751187507842000,1.344842041015625,-0.242801696062088,-0.17980456352233887,-0.7314157485961914
1733751187517817600,1.354817626953125,-0.2297804355621338,-0.1557530164718628,-0.7165172696113586
1733751187527792400,1.36479248046875,-0.2237873673439026,-0.19544923305511475,-0.6878197193145752
1733751187537768700,1.374768798828125,-0.1791895478963852,-0.1968628317117691,-0.6534263491630554
1733751187547743500,1.384743408203125,-0.12307422608137131,-0.22505034506320953,-0.5922253727912903
1733751187557719600,1.394719482421875,-0.08916845917701721,-0.28635817766189575,-0.5235371589660645
1733751187567694600,1.404694580078125,-0.09708946943283081,-0.3226860463619232,-0.4573868215084076
1733751187577670700,1.414670654296875,-0.08944673091173172,-0.2567576467990875,-0.4009435176849365
1733751187587645400,1.4246455078125,-0.10053795576095581,-0.2206970900297165,-0.3443509638309479
1733751187597621500,1.43462158203125,-0.12147945165634155,-0.1920129805803299,-0.29422441124916077
1733751187607596500,1.444596435546875,-0.1275736391544342,-0.1730385422706604,-0.2397824078798294
1733751187617571600,1.454571533203125,-0.11550312489271164,-0.16639074683189392,-0.17777229845523834
1733751187627547400,1.46454736328125,-0.07818478345870972,-0.17416171729564667,-0.11670006066560745
1733751187637522400,1.4745224609375,-0.030658280476927757,-0.1968822181224823,-0.061665575951337814
1733751187647498500,1.48449853515625,0.037423666566610336,-0.2034900039434433,-0.009829008020460606
1733751187657473500,1.4944736328125,0.08311338722705841,-0.24442465603351593,0.05269455537199974
1733751187667449600,1.50444970703125,0.11202982068061829,-0.26715946197509766,0.13678786158561707
1733751187677424600,1.514424560546875,0.12596029043197632,-0.2603481709957123,0.21785342693328857
1733751187687399700,1.524399658203125,0.1194927766919136,-0.21226121485233307,0.28887999057769775
1733751187697375500,1.53437548828125,0.1070675328373909,-0.1518615186214447,0.3444817364215851
1733751187707350500,1.5443505859375,0.08518561720848083,-0.10380414128303528,0.38118675351142883
1733751187717326600,1.55432666015625,0.07607467472553253,-0.08620011061429977,0.4066399335861206
1733751187727301600,1.564301513671875,0.08824484050273895,-0.10816836357116699,0.42151448130607605
1733751187737277400,1.57427734375,0.12105152755975723,-0.1397518664598465,0.44572579860687256
1733751187747252500,1.58425244140625,0.16628508269786835,-0.14093880355358124,0.47242915630340576
1733751187757227800,1.594227783203125,0.21034814417362213,-0.14494234323501587,0.5118263959884644
1733751187767203600,1.60420361328125,0.23994362354278564,-0.136717289686203,0.5742640495300293
1733751187777178600,1.6141787109375,0.25540804862976074,-0.11268945783376694,0.6434034705162048
1733751187787154400,1.624154541015625,0.2520666718482971,-0.0835094302892685,0.7041639089584351
1733751187797129700,1.634129638671875,0.24883677065372467,-0.029056044295430183,0.7496144771575928
1733751187807105500,1.64410546875,0.23462063074111938,0.016525324434041977,0.7751738429069519
1733751187817080600,1.65408056640625,0.21596944332122803,0.051423389464616776,0.7805300354957581
1733751187827055400,1.664055419921875,0.22203974425792694,0.0948425680398941,0.7573848366737366
1733751187837031700,1.67403173828125,0.24304436147212982,0.11303382366895676,0.7203288078308105
1733751187847006500,1.68400634765625,0.27072712779045105,0.10089422017335892,0.6795378923416138
1733751187856982500,1.693982421875,0.2873649597167969,0.0849623903632164,0.6589556336402893
1733751187866957600,1.70395751953125,0.3031398057937622,0.03566374257206917,0.6695970296859741
1733751187876933600,1.71393359375,0.30911725759506226,-0.06096266582608223,0.7235193848609924
1733751187886908400,1.723908447265625,0.32384753227233887,-0.18801911175251007,0.8018428087234497
1733751187896884500,1.733884521484375,0.3432214856147766,-0.26790541410446167,0.8812857270240784
1733751187906859500,1.743859619140625,0.2968587577342987,-0.21667806804180145,0.9338057637214661
1733751187916834600,1.75383447265625,0.22822512686252594,-0.20041228830814362,0.9590165615081787
1733751187926810600,1.763810546875,0.18500278890132904,-0.21703161299228668,0.9554823637008667
1733751187936785400,1.773785400390625,0.15133750438690186,-0.23458130657672882,0.9231164455413818
1733751187946761700,1.78376171875,0.14401860535144806,-0.2384471446275711,0.8743062615394592
1733751187956736500,1.793736572265625,0.20517942309379578,-0.25220319628715515,0.8240529894828796
1733751187966712600,1.803712646484375,0.252675861120224,-0.2189842313528061,0.7937459349632263
1733751187976687400,1.813687255859375,0.221675306558609,-0.13965772092342377,0.7574307918548584
1733751187986662700,1.82366259765625,0.1611432433128357,-0.12216676026582718,0.7286836504936218
1733751187996638500,1.833638427734375,0.09357298910617828,-0.11306141316890717,0.6854174137115479
1733751188006613500,1.843613525390625,0.05029381439089775,-0.1697540581226349,0.6417620182037354
1733751188016589600,1.853589599609375,0.0877477154135704,-0.2461811900138855,0.677067220211029
1733751188026564600,1.863564697265625,0.15779747068881989,-0.26080790162086487,0.7134429216384888
1733751188036540400,1.87354052734375,0.20517617464065552,-0.26354241371154785,0.7227261662483215
1733751188046515500,1.883515380859375,0.21544881165027618,-0.264023095369339,0.6955196857452393
1733751188056490800,1.89349072265625,0.21973145008087158,-0.23776459693908691,0.6342462301254272
1733751188066466600,1.903466552734375,0.22247369587421417,-0.21969690918922424,0.5650826096534729
1733751188076441600,1.913441650390625,0.19368679821491241,-0.19105461239814758,0.5309869647026062
1733751188086417400,1.92341748046875,0.15432341396808624,-0.20395949482917786,0.5219089984893799
1733751188096392700,1.933392822265625,0.09587661176919937,-0.13097423315048218,0.5152889490127563
1733751188106368500,1.943368408203125,0.07237077504396439,0.024018149822950363,0.5186843872070312
1733751188116343600,1.953343505859375,0.07195399701595306,0.0455322302877903,0.5010060667991638
1733751188126318300,1.963318359375,0.08398737758398056,0.0038101680111140013,0.4599407911300659
1733751188136294700,1.973294677734375,0.047689296305179596,-0.06083886697888374,0.41697096824645996
1733751188146269400,1.98326953125,0.00451258709654212,-0.13670112192630768,0.3945792019367218
1733751188156245500,1.99324560546875,0.022142713889479637,-0.18731822073459625,0.38944730162620544
1733751188166220500,2.003220458984375,0.08503807336091995,-0.14761365950107574,0.39656493067741394
1733751188176196600,2.013196533203125,0.04372552037239075,-0.04935794323682785,0.3646320402622223
1733751188186171600,2.023171630859375,0.04286735877394676,-0.019706621766090393,0.3515620529651642
1733751188196146400,2.033146484375,0.05747426673769951,-0.013756588101387024,0.3115387260913849
1733751188206122800,2.043122802734375,0.013423695228993893,-0.011458689346909523,0.26109668612480164
1733751188216097500,2.05309765625,0.06054007634520531,-0.0427795946598053,0.22512881457805634
1733751188226073600,2.063073486328125,0.04814601689577103,-0.037368301302194595,0.16957084834575653
1733751188236048400,2.07304833984375,0.08164778351783752,-0.07383336871862411,0.12700128555297852
1733751188246024700,2.083024658203125,0.07812631130218506,-0.03477370738983154,0.076838418841362
1733751188255999500,2.09299951171875,0.0780797079205513,-0.036827802658081055,0.050036367028951645
1733751188265975600,2.1029755859375,0.010932747274637222,-0.03920181840658188,0.0381292849779129
1733751188275950300,2.112950439453125,0.029162883758544922,-0.056029532104730606,0.0233713760972023
1733751188285925600,2.122925537109375,-0.013891016133129597,-0.08010326325893402,0.026255935430526733
1733751188295901400,2.1329013671875,-0.020343855023384094,-0.08672893792390823,0.03166002407670021
1733751188305876500,2.14287646484375,-0.012237941846251488,-0.07991908490657806,0.026249811053276062
1733751188315852500,2.1528525390625,-0.027129806578159332,-0.0694267600774765,0.013236806727945805
1733751188325827600,2.16282763671875,-0.02915777452290058,-0.037102095782756805,-0.018405454233288765
1733751188335803400,2.172803466796875,-0.032373808324337006,-0.0019457032904028893,-0.06093134358525276
1733751188345778400,2.1827783203125,-0.029555052518844604,0.035888127982616425,-0.11233408004045486
1733751188355753700,2.192753662109375,-0.017385471612215042,0.07922281324863434,-0.17157849669456482
1733751188365729500,2.2027294921875,-0.009169425815343857,0.13420666754245758,-0.23938781023025513
1733751188375704600,2.21270458984375,-0.0028281728737056255,0.17264381051063538,-0.2923213243484497
1733751188385680400,2.222680419921875,-0.008241070434451103,0.18093648552894592,-0.3082379102706909
1733751188395655700,2.23265576171875,0.014221361838281155,0.14044071733951569,-0.2844316363334656
1733751188405631500,2.242631591796875,-0.011254148557782173,0.14261293411254883,-0.22302907705307007
1733751188415606500,2.2526064453125,-0.101964071393013,0.24454116821289062,-0.17061886191368103
1733751188425581600,2.26258154296875,-0.2465227246284485,0.246699720621109,-0.19110089540481567
1733751188435557600,2.2725576171875,-0.26505032181739807,0.19878306984901428,-0.2642728388309479
1733751188445532700,2.28253271484375,-0.20567181706428528,0.12262260168790817,-0.3371219038963318
1733751188455508500,2.292508544921875,-0.1314993053674698,0.09863204509019852,-0.40464821457862854
1733751188465483800,2.30248388671875,-0.11862514913082123,0.055980004370212555,-0.48431411385536194
1733751188475459600,2.31245947265625,-0.04312107339501381,0.04661339893937111,-0.5660837888717651
1733751188485434600,2.3224345703125,0.0052443272434175014,-0.009956272318959236,-0.6333730220794678
1733751188495409400,2.332409423828125,0.007491768803447485,-0.08091353625059128,-0.6794651746749878
1733751188505385700,2.3423857421875,0.018627485260367393,-0.07496204972267151,-0.6766951084136963
1733751188515360800,2.35236083984375,0.006570557132363319,-0.04728274792432785,-0.6417480707168579
1733751188525336800,2.3623369140625,-0.009714177809655666,-0.012900954112410545,-0.6167182326316833
1733751188535311600,2.3723115234375,-0.04071390628814697,0.013799100182950497,-0.6179925203323364
1733751188545288000,2.382287841796875,-0.04745692014694214,0.0501042976975441,-0.632914662361145
1733751188555262700,2.3922626953125,-0.0720946192741394,0.060718320310115814,-0.652485191822052
1733751188565237800,2.40223779296875,-0.12820354104042053,0.026564694941043854,-0.6729082465171814
1733751188575213800,2.4122138671875,-0.1683938354253769,-0.004836902022361755,-0.6817011833190918
1733751188585188900,2.42218896484375,-0.14176473021507263,-0.01348863821476698,-0.6918755173683167
1733751188595164700,2.43216455078125,-0.145472913980484,-0.025337575003504753,-0.7031992673873901
1733751188605139700,2.4421396484375,-0.2394946664571762,-0.03493436798453331,-0.708849310874939
1733751188615115800,2.45211572265625,-0.17351405322551727,-0.0347580648958683,-0.7041065096855164
1733751188625090800,2.4620908203125,-0.2191910743713379,-0.0347309373319149,-0.7052712440490723
1733751188635065900,2.47206591796875,-0.19307638704776764,-0.0471002534031868,-0.72762531042099
1733751188645041700,2.482041748046875,-0.1801139861345291,-0.05240194499492645,-0.7638205289840698
1733751188655017000,2.492016845703125,-0.1956292986869812,-0.07026403397321701,-0.7941938638687134
1733751188664992800,2.50199267578125,-0.1881786584854126,-0.0865744799375534,-0.8095928430557251
1733751188674967800,2.5119677734375,-0.2395254671573639,-0.1319161355495453,-0.8066607117652893
1733751188684944000,2.52194384765625,-0.2153286188840866,-0.02904318831861019,-0.7638704776763916
1733751188694919000,2.5319189453125,-0.24816672503948212,-0.0487188883125782,-0.7274696230888367
1733751188704894700,2.541894775390625,-0.25402548909187317,-0.019631484523415565,-0.7048459053039551
1733751188714869800,2.551869873046875,-0.1450212448835373,0.09047690778970718,-0.707388162612915
1733751188724844800,2.5618447265625,-0.0695754662156105,0.09000501036643982,-0.6971111297607422
1733751188734820900,2.57182080078125,-0.040025826543569565,0.025474755093455315,-0.6883975267410278
1733751188744796000,2.5817958984375,-0.017979184165596962,-0.05098703131079674,-0.6805723309516907
1733751188754771700,2.591771728515625,-0.009302872233092785,-0.11476228386163712,-0.6744454503059387
1733751188764747000,2.6017470703125,0.02481890842318535,-0.07798320800065994,-0.6505115032196045
1733751188774722800,2.611722900390625,0.04448874667286873,-0.023017432540655136,-0.6245182752609253
1733751188784697900,2.62169775390625,0.06330342590808868,0.043029479682445526,-0.6120220422744751
1733751188794672600,2.631672607421875,0.06576871126890182,0.09832841902971268,-0.6197377443313599
1733751188804649000,2.64164892578125,0.05171922594308853,0.13390226662158966,-0.6363428831100464
1733751188814623700,2.651623779296875,0.01329060923308134,0.11917871236801147,-0.6548385620117188
1733751188824599800,2.661599853515625,-0.02295668236911297,0.10745811462402344,-0.6509901881217957
1733751188834574600,2.67157470703125,-0.030153876170516014,0.08531765639781952,-0.6142329573631287
1733751188844551000,2.681551025390625,-0.04228324443101883,0.04112555459141731,-0.5730588436126709
1733751188854525700,2.691525634765625,-0.04575014486908913,0.019375784322619438,-0.5280449986457825
1733751188864500700,2.701500732421875,-0.04178694263100624,-0.023100754246115685,-0.5048873424530029
1733751188874476800,2.711476806640625,-0.028502564877271652,-0.04215780273079872,-0.5078958868980408
1733751188884451800,2.721451904296875,-0.043620120733976364,-0.08261381089687347,-0.5325127243995667
1733751188894428000,2.731427978515625,-0.03927623853087425,-0.04195985943078995,-0.5498698949813843
1733751188904402700,2.741402587890625,-0.03879116103053093,-0.029660791158676147,-0.5640588998794556
1733751188914379000,2.75137890625,-0.061221372336149216,-0.055515024811029434,-0.5979883670806885
1733751188924353800,2.761353759765625,-0.08142610639333725,-0.02885005623102188,-0.6257879734039307
1733751188934329900,2.771329833984375,-0.089345283806324,-0.03360140323638916,-0.6311175227165222
1733751188944304600,2.7813046875,-0.10067079961299896,-0.05662970244884491,-0.6241503953933716
1733751188954280000,2.791280029296875,-0.07721421122550964,-0.041857145726680756,-0.5806028842926025
1733751188964255700,2.801255859375,-0.08738179504871368,-0.09432151168584824,-0.5322499871253967
1733751188974230800,2.811230712890625,-0.09145429730415344,-0.03674449771642685,-0.45157933235168457
1733751188984206800,2.821206787109375,-0.08112972974777222,-0.021870598196983337,-0.34390783309936523
1733751188994182000,2.831181884765625,-0.07738959044218063,-0.016976773738861084,-0.22535881400108337
1733751189004157700,2.84115771484375,-0.0705178752541542,0.0023794653825461864,-0.10644352436065674
1733751189014132700,2.8511328125,-0.08458416163921356,0.03840404376387596,0.00007492955774068832
1733751189024107800,2.861107666015625,-0.06038431078195572,0.06686816364526749,0.07524842768907547
1733751189034083800,2.871083740234375,-0.029894044622778893,0.11478588730096817,0.10690968483686447
1733751189044059000,2.881058837890625,-0.011700760573148727,0.1807323694229126,0.10971212387084961
1733751189054034700,2.89103466796875,-0.004212750121951103,0.22787697613239288,0.10473653674125671
1733751189064010000,2.901010009765625,-0.022751208394765854,0.2448120415210724,0.12411308288574219
1733751189073985800,2.91098583984375,-0.07832153141498566,0.18723636865615845,0.17984823882579803
1733751189083960800,2.9209609375,-0.020713329315185547,0.15307627618312836,0.2744874954223633
1733751189093935600,2.930935546875,-0.007890475913882256,0.11773001402616501,0.4150446057319641
1733751189103912000,2.940911865234375,0.05634542554616928,0.0726582333445549,0.568840742111206
1733751189113886700,2.95088671875,0.0949961468577385,-0.025053681805729866,0.6881924271583557
1733751189123862800,2.96086279296875,0.12511049211025238,-0.12552788853645325,0.7657400965690613
1733751189133837800,2.970837890625,0.08513032644987106,-0.17571835219860077,0.8221381306648254
1733751189143814000,2.98081396484375,0.06622447073459625,-0.1744086593389511,0.8485230207443237
1733751189153789000,2.990788818359375,0.07212736457586288,-0.1244187280535698,0.8504202365875244
1733751189163763700,3.000763671875,0.1154223084449768,-0.0700516626238823,0.8233740329742432
1733751189173740000,3.010739990234375,0.13720670342445374,-0.030215563252568245,0.7665008902549744
1733751189183714800,3.02071484375,0.14409193396568298,-0.011430741287767887,0.7122583985328674
1733751189193691000,3.03069091796875,0.15037167072296143,0.001135916681960225,0.6753696203231812
1733751189203665700,3.040665771484375,0.16330282390117645,0.027200626209378242,0.6721404790878296
1733751189213642000,3.05064208984375,0.2216702550649643,0.04199209064245224,0.6998560428619385
1733751189223616800,3.06061669921875,0.1629045456647873,0.07378870993852615,0.7497930526733398
1733751189233592800,3.0705927734375,0.09714178740978241,0.08167698979377747,0.799909234046936
1733751189243567600,3.080567626953125,0.09528188407421112,0.07835645228624344,0.8241702914237976
1733751189253543000,3.09054296875,0.14138013124465942,0.10880223661661148,0.8349934220314026
1733751189263518700,3.100518798828125,0.16284193098545074,0.1518230438232422,0.8574203848838806
1733751189273493800,3.11049365234375,0.15234854817390442,0.17777927219867706,0.8856219053268433
1733751189283469800,3.1204697265625,0.1335560828447342,0.18493911623954773,0.9096627831459045
1733751189293444900,3.13044482421875,0.08918196707963943,0.1759996861219406,0.9163808822631836
1733751189303420700,3.140420654296875,0.09765733033418655,0.16793809831142426,0.9093559980392456
1733751189313395700,3.150395751953125,0.08497615158557892,0.1416790634393692,0.8956928849220276
1733751189323370800,3.160370849609375,0.04233640059828758,0.1102287769317627,0.8816428184509277
1733751189333346800,3.170346923828125,0.000366578227840364,0.1108519583940506,0.8796135187149048
1733751189343321900,3.18032177734375,0.002430144464597106,0.14546607434749603,0.8787874579429626
1733751189353297700,3.190297607421875,-0.01483379676938057,0.15070050954818726,0.8883510828018188
1733751189363273000,3.20027294921875,-0.007995404303073883,0.16129904985427856,0.8947009444236755
1733751189373248800,3.210248779296875,0.013256087899208069,0.09832275658845901,0.8882366418838501
1733751189383223800,3.220223876953125,0.0536787323653698,0.15400353074073792,0.8718187212944031
1733751189393199600,3.23019970703125,0.10589480400085449,0.14749370515346527,0.8433703184127808
1733751189403175000,3.2401748046875,0.1657779961824417,0.12315141409635544,0.8122726678848267
1733751189413150000,3.25014990234375,0.2109699696302414,0.07920685410499573,0.7888224720954895
1733751189423125800,3.260125732421875,0.22312311828136444,0.02839670330286026,0.7850366830825806
1733751189433100800,3.270100830078125,0.2213425189256668,-0.015936939045786858,0.8012281656265259
1733751189443076900,3.280076904296875,0.2011527568101883,-0.042611461132764816,0.8253501057624817
1733751189453052000,3.290052001953125,0.2004275768995285,-0.05082811415195465,0.8570331931114197
1733751189463026700,3.300026611328125,0.13691642880439758,-0.0515579916536808,0.859428882598877
1733751189473003000,3.3100029296875,0.10210838168859482,-0.06283807754516602,0.8288222551345825
1733751189482977800,3.319977783203125,0.07283942401409149,-0.07805871963500977,0.7782755494117737
1733751189492953900,3.329953857421875,0.06292366981506348,-0.09550082683563232,0.7230405211448669
1733751189502928600,3.3399287109375,0.06827288120985031,-0.09161023050546646,0.6576619744300842
1733751189512904200,3.349904296875,0.07391691952943802,-0.08120499551296234,0.5766164064407349
1733751189522879200,3.359879150390625,0.08173825591802597,-0.06265465915203094,0.5059916377067566
1733751189532855000,3.36985498046875,0.10917574167251587,-0.019205719232559204,0.45279181003570557
1733751189542830000,3.379830078125,0.10526955872774124,-0.016808800399303436,0.41276034712791443
1733751189552805000,3.38980517578125,0.15358595550060272,-0.011819900944828987,0.40623053908348083
1733751189562781200,3.39978125,0.08159645646810532,-0.004363976884633303,0.411930114030838
1733751189572756000,3.409755859375,0.03787081688642502,-0.05657071992754936,0.44086509943008423
1733751189582732300,3.419732177734375,0.00011198002903256565,-0.09253338724374771,0.4522891044616699
1733751189592707000,3.42970703125,-0.02803070843219757,-0.1158890426158905,0.4290005564689636
1733751189602683100,3.43968310546875,-0.01149797160178423,-0.13236543536186218,0.39081984758377075
1733751189612658000,3.449657958984375,0.027896838262677193,-0.12605907022953033,0.349366158246994
1733751189622633000,3.459633056640625,0.06751303374767303,-0.12991103529930115,0.30924689769744873
1733751189632609000,3.469609130859375,0.12816865742206573,-0.13933436572551727,0.2683708369731903
1733751189642584000,3.479583984375,0.19374388456344604,-0.15768370032310486,0.2205929160118103
1733751189652560000,3.489559814453125,0.22361735999584198,-0.14943136274814606,0.17096677422523499
1733751189662535200,3.49953515625,0.23755589127540588,-0.15848299860954285,0.1442367285490036
1733751189672511000,3.509510986328125,0.17167142033576965,-0.1494503617286682,0.1211276724934578
1733751189682486000,3.519486083984375,0.14073798060417175,-0.1504267007112503,0.12251190096139908
1733751189692461000,3.5294609375,0.07696326076984406,-0.08095893263816833,0.09299608319997787
1733751189702437000,3.53943701171875,-0.023221012204885483,-0.045707546174526215,0.0541284941136837
1733751189712412200,3.549412109375,-0.016739411279559135,-0.01176582369953394,0.0009819164406508207
1733751189722388000,3.559387939453125,-0.05606790632009506,0.04444205388426781,-0.0572049543261528
1733751189732363000,3.569363037109375,-0.07380909472703934,0.06587997078895569,-0.08818098157644272
1733751189742339000,3.579339111328125,-0.07230602204799652,0.08787886798381805,-0.09090158343315125
1733751189752314000,3.589314208984375,-0.06642895936965942,0.10784458369016647,-0.07065756618976593
1733751189762289200,3.5992890625,-0.047851987183094025,0.07975973188877106,-0.05407707393169403
1733751189772265200,3.60926513671875,-0.03777538612484932,0.05029531568288803,-0.05201259255409241
1733751189782240300,3.619240234375,-0.01616823859512806,0.02103509195148945,-0.0763811320066452
1733751189792216000,3.629216064453125,0.0029724326450377703,-0.027003539726138115,-0.12020158767700195
1733751189802191000,3.639191162109375,0.04008760303258896,-0.04641290754079819,-0.16251380741596222
1733751189812167200,3.649167236328125,0.08259963989257812,-0.05243857577443123,-0.21974965929985046
1733751189822142200,3.65914208984375,0.10366182774305344,-0.04247353971004486,-0.28046777844429016
1733751189832117000,3.669116943359375,0.11492087692022324,-0.013490624725818634,-0.3239225745201111
1733751189842093000,3.679093017578125,0.07895784080028534,0.007029845379292965,-0.35773104429244995
1733751189852068000,3.689068115234375,0.03399569168686867,0.055140651762485504,-0.38534003496170044
1733751189862044200,3.699044189453125,-0.01616847887635231,0.08599119633436203,-0.36927175521850586
1733751189872019000,3.70901904296875,-0.0633746087551117,0.10056614875793457,-0.3199255168437958
1733751189881995300,3.718995361328125,-0.10161614418029785,0.07544395327568054,-0.27721279859542847
1733751189891970000,3.728969970703125,-0.10397890210151672,0.02674059197306633,-0.2657707929611206
1733751189901946000,3.738946044921875,-0.08526189625263214,-0.02398781105875969,-0.2950816750526428
1733751189911921200,3.748921142578125,-0.047132618725299835,-0.06184464693069458,-0.3580196499824524
1733751189921896000,3.75889599609375,-0.00278849177993834,-0.12836237251758575,-0.4519309401512146
1733751189931872300,3.768872314453125,0.027739057317376137,-0.21473613381385803,-0.5535569190979004
1733751189941847000,3.778846923828125,0.030731990933418274,-0.28930673003196716,-0.6248258352279663
1733751189951823000,3.788822998046875,0.02944195456802845,-0.33654507994651794,-0.6401422023773193
1733751189961798100,3.798798095703125,0.026829974725842476,-0.33561018109321594,-0.6118283271789551
1733751189971774200,3.808774169921875,0.026034755632281303,-0.2702639102935791,-0.58261638879776
1733751189981749000,3.8187490234375,0.021114517003297806,-0.164329394698143,-0.5944008231163025
1733751189991724000,3.82872412109375,0.0026601417921483517,-0.10768182575702667,-0.6260333061218262
1733751190001700000,3.8387001953125,-0.014727558009326458,-0.11831884831190109,-0.6694409251213074
1733751190011675100,3.848675048828125,-0.03651008382439613,-0.17351418733596802,-0.7026342749595642
1733751190021651000,3.85865087890625,-0.05895712226629257,-0.22945564985275269,-0.7214173078536987
1733751190031626000,3.8686259765625,-0.06840255856513977,-0.25978267192840576,-0.7198817133903503
1733751190041602000,3.87860205078125,-0.09128395467996597,-0.2781069576740265,-0.6821433901786804
1733751190051577000,3.8885771484375,-0.10909917205572128,-0.28547459840774536,-0.6351590752601624
1733751190061552000,3.89855224609375,-0.12375050038099289,-0.27382513880729675,-0.6060903668403625
1733751190071528200,3.908528076171875,-0.13275305926799774,-0.26868149638175964,-0.5921974182128906
1733751190081503200,3.918503173828125,-0.12633416056632996,-0.25879016518592834,-0.6006414294242859
1733751190091479000,3.92847900390625,-0.11502024531364441,-0.260086327791214,-0.6247696876525879
1733751190101454000,3.9384541015625,-0.09224022924900055,-0.22721046209335327,-0.6770012378692627
1733751190111430100,3.94843017578125,-0.07398053258657455,-0.19587330520153046,-0.7278977036476135
1733751190121405200,3.9584052734375,-0.05785731226205826,-0.16140274703502655,-0.7468596696853638
1733751190131381000,3.968381103515625,-0.05201540142297745,-0.10450483113527298,-0.7183113694190979
1733751190141356000,3.97835595703125,-0.05491621047258377,-0.05560218542814255,-0.6743213534355164
1733751190151331000,3.9883310546875,-0.06798780709505081,0.020103231072425842,-0.6034855246543884
1733751190161307100,3.99830712890625,-0.09089570492506027,0.07570062577724457,-0.5334855318069458
1733751190181258200,4.01825830078125,-0.13504855334758759,0.1472763866186142,-0.48446235060691833
1733751190191233300,4.0282333984375,-0.17605164647102356,0.1613176465034485,-0.5080323815345764
1733751190201209000,4.038208984375,-0.14950162172317505,0.1725177764892578,-0.5579224824905396
1733751190211184000,4.04818408203125,-0.1351996511220932,0.17771519720554352,-0.6131370067596436
1733751190221159000,4.058158935546875,-0.12765221297740936,0.17206892371177673,-0.6538543105125427
1733751190231135200,4.06813525390625,-0.11260989308357239,0.14381277561187744,-0.6817871332168579
1733751190241110000,4.078110107421875,-0.1582188606262207,0.03233928605914116,-0.7045016288757324
1733751190251086000,4.088086181640625,-0.11334165185689926,0.06770659238100052,-0.7188664674758911
1733751190261061000,4.09806103515625,-0.08083029091358185,0.10075191408395767,-0.7284694314002991
1733751190271037200,4.108037109375,-0.047892581671476364,0.09661629050970078,-0.7346495389938354
1733751190281012000,4.118011962890625,-0.025166889652609825,0.05379392206668854,-0.741524338722229
1733751190290987000,4.127987060546875,-0.021136460825800896,-0.019799869507551193,-0.7348526120185852
1733751190300963000,4.137963134765625,-0.022099504247307777,-0.07350785285234451,-0.7228378653526306
1733751190310938000,4.147938232421875,-0.029600031673908234,-0.07820860296487808,-0.6936357617378235
1733751190320914000,4.157913818359375,-0.03390990197658539,-0.05774025246500969,-0.6438618898391724
1733751190330889000,4.167888916015625,-0.033050231635570526,-0.03871516138315201,-0.5789207220077515
1733751190340865000,4.177864990234375,-0.028414204716682434,-0.03970186412334442,-0.5136786103248596
1733751190350840000,4.187840087890625,-0.03185234218835831,-0.05960579589009285,-0.4673142731189728
1733751190360815000,4.197815185546875,-0.03933649882674217,-0.09025658667087555,-0.4555089473724365
1733751190370791200,4.207791259765625,-0.044525399804115295,-0.11427750438451767,-0.46867135167121887
1733751190380766200,4.21776611328125,-0.05135493353009224,-0.13038235902786255,-0.4991324841976166
1733751190390742000,4.227741943359375,-0.05942857265472412,-0.14265979826450348,-0.5449540019035339
1733751190400717000,4.237717041015625,-0.07590865343809128,-0.14957664906978607,-0.5983902812004089
1733751190410693000,4.247693115234375,-0.10186834633350372,-0.15685932338237762,-0.6362058520317078
1733751190420668200,4.257668212890625,-0.13219104707241058,-0.16229894757270813,-0.658775269985199
1733751190430644000,4.26764404296875,-0.16183654963970184,-0.17868857085704803,-0.6506031155586243
1733751190440619000,4.277618896484375,-0.18804985284805298,-0.19109787046909332,-0.6112356781959534
1733751190450594300,4.28759423828125,-0.21615339815616608,-0.19351576268672943,-0.5635150074958801
1733751190460570000,4.297570068359375,-0.23304423689842224,-0.19477103650569916,-0.5155732035636902
1733751190470545200,4.307545166015625,-0.24623674154281616,-0.19108229875564575,-0.4839279353618622
1733751190480521200,4.317521240234375,-0.26673412322998047,-0.19277743995189667,-0.4789765179157257
1733751190490496300,4.327496337890625,-0.2524164319038391,-0.10699622333049774,-0.45758309960365295
1733751190500472000,4.33747216796875,-0.2411453127861023,-0.07592614740133286,-0.40785714983940125
1733751190510447000,4.347447021484375,-0.23428313434123993,-0.018178429454565048,-0.32320111989974976
1733751190520422100,4.357422119140625,-0.22386965155601501,0.0023774465080350637,-0.19462798535823822
1733751190530398500,4.3673984375,-0.20197553932666779,0.06776657700538635,-0.04801110550761223
1733751190540373200,4.377373291015625,-0.14281854033470154,0.19160272181034088,0.08331291377544403
1733751190550349300,4.387349365234375,-0.07399154454469681,0.27903908491134644,0.1855495423078537
1733751190560324000,4.397323974609375,-0.04314697906374931,0.32849442958831787,0.247464120388031
1733751190570300400,4.407300537109375,0.060403380542993546,0.36409345269203186,0.28446105122566223
1733751190580275200,4.417275146484375,0.06566573679447174,0.377387136220932,0.30525705218315125
1733751190590250200,4.427250244140625,0.04923589900135994,0.3437730073928833,0.33569884300231934
1733751190600226300,4.437226318359375,0.03462117910385132,0.3028528094291687,0.389698326587677
1733751190610201300,4.447201416015625,0.03415938466787338,0.2786060571670532,0.4599727392196655
1733751190620177200,4.45717724609375,0.04179207608103752,0.24781197309494019,0.5346983075141907
1733751190630152200,4.467152099609375,0.02126256562769413,0.1920885145664215,0.6135257482528687
1733751190640128300,4.477128173828125,0.06590000540018082,0.17445620894432068,0.6682838797569275
1733751190650103300,4.487103271484375,0.08359138667583466,0.14159412682056427,0.714566171169281
1733751190660078300,4.497078369140625,0.08376958966255188,0.1253983974456787,0.7414537668228149
1733751190670054100,4.50705419921875,0.07503921538591385,0.12583063542842865,0.7686060070991516
1733751190680029400,4.517029541015625,0.07589760422706604,0.1627557873725891,0.780134379863739
1733751190690005200,4.527005126953125,0.06914542615413666,0.2204073667526245,0.7856950163841248
1733751190699980300,4.536980224609375,0.06041134521365166,0.27577993273735046,0.7845780253410339
1733751190709956400,4.546956298828125,0.06837446242570877,0.33080992102622986,0.7754724025726318
1733751190719931400,4.556931396484375,0.08149329572916031,0.37644442915916443,0.7654405832290649
1733751190729907200,4.5669072265625,0.044884681701660156,0.40909984707832336,0.7575701475143433
1733751190739882200,4.57688232421875,0.09989830106496811,0.40994173288345337,0.7477549910545349
1733751190749857300,4.586857177734375,0.11717795580625534,0.42169028520584106,0.7524453997612
1733751190759833300,4.596833251953125,0.11483139544725418,0.44369423389434814,0.7756723761558533
1733751190769808400,4.606808349609375,0.11548413336277008,0.4498346745967865,0.7943134307861328
1733751190779784200,4.6167841796875,0.10641762614250183,0.47374704480171204,0.7975711226463318
1733751190789759500,4.626759521484375,0.10279759764671326,0.4649493098258972,0.8012990355491638
1733751190799735300,4.6367353515625,0.07474625110626221,0.4387528598308563,0.8175719380378723
1733751190809710300,4.64671044921875,0.03371012955904007,0.40204918384552,0.8378345966339111
1733751190819685000,4.65668505859375,0.01491056103259325,0.37691530585289,0.8532304763793945
1733751190829661400,4.666661376953125,0.004166836384683847,0.3732507824897766,0.857012152671814
1733751190839636200,4.67663623046875,0.007698575966060162,0.3819848299026489,0.8557300567626953
1733751190849612300,4.6866123046875,0.007606164552271366,0.36187636852264404,0.8665333986282349
1733751190859587000,4.696587158203125,0.03773673623800278,0.3403865396976471,0.8781551718711853
1733751190869563400,4.7065634765625,0.05238492041826248,0.31044435501098633,0.8796966075897217
1733751190879538200,4.7165380859375,0.054039470851421356,0.2572207748889923,0.8712992072105408
1733751190889513200,4.72651318359375,0.062044933438301086,0.1910601407289505,0.8460777401924133
1733751190899489300,4.7364892578125,0.07375235855579376,0.11773701757192612,0.8095563054084778
1733751190909464300,4.74646435546875,0.09099898487329483,0.04960988834500313,0.7891799211502075
1733751190919440400,4.7564404296875,0.122955322265625,-0.004091156180948019,0.7817116379737854
1733751190929415200,4.766415283203125,0.1509328931570053,-0.047237828373909,0.7814615964889526
1733751190939391500,4.7763916015625,0.1608639359474182,-0.0876632109284401,0.7877456545829773
1733751190949366300,4.7863662109375,0.19770078361034393,-0.1218520775437355,0.8029022216796875
1733751190959341300,4.79634130859375,0.19819575548171997,-0.15344268083572388,0.8158119916915894
1733751190969317000,4.806317138671875,0.2143496870994568,-0.15595564246177673,0.814797043800354
1733751190979292400,4.81629248046875,0.20321005582809448,-0.15191611647605896,0.8023808598518372
1733751190989268200,4.826268310546875,0.22174884378910065,-0.13708071410655975,0.761602520942688
1733751190999243300,4.8362431640625,0.21892499923706055,-0.12245361506938934,0.7030734419822693
1733751191009219300,4.84621923828125,0.20794478058815002,-0.12305229902267456,0.6344456672668457
1733751191019194400,4.8561943359375,0.20993709564208984,-0.1152697429060936,0.5805855989456177
1733751191029170200,4.866170166015625,0.1448342651128769,-0.10817774385213852,0.5355526208877563
1733751191039145200,4.876145263671875,0.1061963364481926,-0.06840674579143524,0.4999184310436249
1733751191049120300,4.886120361328125,0.049755699932575226,-0.022033922374248505,0.4904274344444275
1733751191059096300,4.896096435546875,0.01777372509241104,0.028070222586393356,0.4877667725086212
1733751191069071400,4.9060712890625,-0.016261473298072815,0.05696498602628708,0.4961985945701599
1733751191079047200,4.916047119140625,-0.02417774312198162,0.08708173781633377,0.5078875422477722
1733751191089022500,4.9260224609375,-0.038934849202632904,0.09107886999845505,0.5109507441520691
1733751191098998300,4.935998291015625,-0.026973722502589226,0.09435219317674637,0.508451521396637
1733751191108973300,4.945973388671875,0.015677334740757942,0.08367611467838287,0.48755210638046265
1733751191118948000,4.955947998046875,0.043342225253582,0.07502295821905136,0.43986520171165466
1733751191128924400,4.96592431640625,0.09542061388492584,0.062341250479221344,0.4012613296508789
1733751191138899200,4.975899169921875,0.17622540891170502,0.08419553935527802,0.3494616150856018
1733751191148875300,4.985875244140625,0.2387777417898178,0.07895071059465408,0.31385567784309387
1733751191158850300,4.995850341796875,0.2745893597602844,0.05023389309644699,0.30405542254447937
1733751191168826400,5.005826416015625,0.26031482219696045,0.04299302399158478,0.29233992099761963
1733751191178801400,5.015801513671875,0.2905033528804779,0.006761506199836731,0.2938712239265442
1733751191188776200,5.025776123046875,0.292773962020874,0.0033806234132498503,0.2814529240131378
1733751191198752500,5.03575244140625,0.28613048791885376,-0.03547871857881546,0.2744097113609314
1733751191208727300,5.045727294921875,0.2967112362384796,-0.06810243427753448,0.2616707384586334
1733751191218703400,5.055703369140625,0.30111896991729736,-0.06820327788591385,0.22951273620128632
1733751191228678100,5.06567822265625,0.32005006074905396,-0.0782545804977417,0.2150893211364746
1733751191238654500,5.075654541015625,0.2936430275440216,-0.041750188916921616,0.18030425906181335
1733751191248629200,5.085629150390625,0.3181332051753998,-0.01304797176271677,0.1713816076517105
1733751191258604300,5.095604248046875,0.2518247067928314,-0.030478239059448242,0.12472818046808243
1733751191268580000,5.105580078125,0.17189686000347137,-0.04124992713332176,0.08151599764823914
1733751191278555400,5.115555419921875,0.1168767511844635,-0.05075966939330101,0.0512903593480587
1733751191288531200,5.12553125,0.0762702077627182,-0.04853832721710205,0.010737607255578041
1733751191298506200,5.13550634765625,0.04949391260743141,-0.03269428759813309,-0.02932814136147499
1733751191308482300,5.145482421875,0.025866877287626266,-0.020343082025647163,-0.0834832563996315
1733751191318457300,5.155457275390625,0.014290045015513897,-0.023395899683237076,-0.12920831143856049
1733751191328433200,5.16543310546875,0.014683660119771957,-0.03485521301627159,-0.15706205368041992
1733751191338408200,5.175408203125,0.021508153527975082,-0.04058120772242546,-0.1753605455160141
1733751191348383200,5.18538330078125,0.033326197415590286,-0.05105781555175781,-0.18728964030742645
1733751191358359300,5.195359375,0.043876055628061295,-0.07342038303613663,-0.2003384381532669
1733751191368334300,5.205334228515625,0.05195528641343117,-0.09566177427768707,-0.2093883901834488
1733751191378310100,5.21531005859375,0.049020327627658844,-0.12618699669837952,-0.21519699692726135
1733751191388285400,5.225285400390625,0.038972485810518265,-0.15309983491897583,-0.20886532962322235
1733751191398261200,5.23526123046875,0.02860148996114731,-0.17163416743278503,-0.20616593956947327
1733751191408236300,5.245236328125,0.02312789484858513,-0.19395464658737183,-0.2244623899459839
1733751191418212400,5.25521240234375,0.020260028541088104,-0.20942915976047516,-0.2716752588748932
1733751191428187400,5.2651875,0.023135975003242493,-0.20069852471351624,-0.35139939188957214
1733751191438162400,5.275162353515625,0.03787337988615036,-0.16876976191997528,-0.44909751415252686
1733751191448138200,5.28513818359375,0.043130192905664444,-0.14680053293704987,-0.5253449082374573
1733751191458113300,5.29511328125,0.034765977412462234,-0.11829833686351776,-0.5516788959503174
1733751191468089300,5.30508935546875,0.0007313100504688919,-0.0882597491145134,-0.5188794136047363
1733751191478064400,5.315064453125,-0.05662044510245323,-0.05329645052552223,-0.45269858837127686
1733751191488040200,5.325040283203125,-0.1096639558672905,-0.03364977985620499,-0.3810987174510956
1733751191498015500,5.335015380859375,-0.1573915183544159,-0.027836505323648453,-0.33820411562919617
1733751191507990300,5.344990234375,-0.192275732755661,-0.028996311128139496,-0.34110990166664124
1733751191517967000,5.354967041015625,-0.21519556641578674,-0.054323166608810425,-0.39212745428085327
1733751191527942000,5.36494189453125,-0.227950781583786,-0.10318923741579056,-0.4862004220485687
1733751191537918200,5.374918212890625,-0.21048778295516968,-0.1644638627767563,-0.6079179048538208
1733751191547893000,5.38489306640625,-0.17099151015281677,-0.20598360896110535,-0.729686439037323
1733751191557869000,5.394869140625,-0.12680990993976593,-0.23553162813186646,-0.8321990966796875
1733751191567844000,5.404843994140625,-0.090473473072052,-0.24889270961284637,-0.8756728172302246
1733751191577819100,5.414819091796875,-0.07551249861717224,-0.2353636473417282,-0.8554036021232605
1733751191587795000,5.424794921875,-0.08404792845249176,-0.1865026354789734,-0.7857409119606018
1733751191597770000,5.43477001953125,-0.1088506281375885,-0.11144005507230759,-0.7019570469856262
1733751191607746000,5.44474609375,-0.15094932913780212,-0.05115088075399399,-0.626136839389801
1733751191617721000,5.45472119140625,-0.1835719496011734,0.009252166375517845,-0.5860698819160461
1733751191627697000,5.46469677734375,-0.2189512401819229,0.053606849163770676,-0.5980733036994934
1733751191637672000,5.474671875,-0.26616862416267395,0.03025781363248825,-0.6340388655662537
1733751191647648000,5.48464794921875,-0.25217345356941223,0.0015348221641033888,-0.6818732619285583
1733751191657623000,5.494623046875,-0.24615532159805298,-0.02524942345917225,-0.7326527237892151
1733751191667598000,5.50459814453125,-0.2164357751607895,-0.04956940934062004,-0.7555056214332581
1733751191677574100,5.51457421875,-0.15522021055221558,-0.05166551098227501,-0.7335134148597717
1733751191687549200,5.524549072265625,-0.1559283435344696,-0.04931127652525902,-0.6806877255439758
1733751191697525000,5.53452490234375,-0.0842079371213913,-0.01660984754562378,-0.608123779296875
1733751191707500000,5.5445,-0.10850395262241364,0.031974464654922485,-0.5429929494857788
1733751191717476000,5.55447607421875,-0.06194669008255005,0.08531978726387024,-0.5085384845733643
1733751191727451100,5.564451171875,-0.10296869277954102,0.12094542384147644,-0.5217046141624451
1733751191737426000,5.574426025390625,-0.07228820025920868,0.11799680441617966,-0.5698107481002808
1733751191747402000,5.584402099609375,-0.08728073537349701,0.11535415053367615,-0.6452059149742126
1733751191757377000,5.594376953125,-0.1094454750418663,0.08913370966911316,-0.7259271740913391
1733751191767353000,5.60435302734375,-0.11658886820077896,0.04966273531317711,-0.7973886132240295
1733751191777328000,5.614328125,-0.1123124212026596,-0.0015398978721350431,-0.8283700346946716
1733751191787304200,5.62430419921875,-0.09241621196269989,-0.03963002562522888,-0.8013067245483398
1733751191797279200,5.634279296875,-0.06781329214572906,-0.05786583200097084,-0.7219462394714355
1733751191807255000,5.644255126953125,-0.033715516328811646,-0.06902368366718292,-0.6178213953971863
1733751191817230000,5.65422998046875,-0.00457041384652257,-0.07238206267356873,-0.5032441020011902
1733751191827204900,5.664204833984375,-0.007207476068288088,-0.05134362354874611,-0.4092252254486084
1733751191837181200,5.67418115234375,0.04749796912074089,-0.010829558596014977,-0.3795289397239685
1733751191847156000,5.684156005859375,0.06991192698478699,0.04615037143230438,-0.4247856140136719
1733751191857132000,5.694132080078125,0.07179827243089676,0.09180069714784622,-0.5115942358970642
1733751191867107000,5.704107177734375,0.053837649524211884,0.10620386898517609,-0.6252874732017517
1733751191877083100,5.714083251953125,0.005187969654798508,0.10030251741409302,-0.7344174385070801
1733751191887058000,5.724057861328125,-0.04853091761469841,0.07952187210321426,-0.8322694301605225
1733751191897033000,5.734032958984375,-0.09658170491456985,0.046700719743967056,-0.8880532383918762
1733751191907009000,5.744009033203125,-0.14630025625228882,0.012882833369076252,-0.8839865922927856
1733751191916984000,5.753984130859375,-0.17536060512065887,-0.01202914584428072,-0.818015992641449
1733751191926959900,5.7639599609375,-0.18897521495819092,-0.03270033746957779,-0.7143425941467285
1733751191936935000,5.773934814453125,-0.1879524141550064,-0.054067596793174744,-0.6046883463859558
1733751191946911000,5.783910888671875,-0.16032983362674713,-0.042462870478630066,-0.5106050372123718
1733751191956886000,5.793885986328125,-0.1444215029478073,-0.048209864646196365,-0.4548743665218353
1733751191966861000,5.803861083984375,-0.1213526651263237,-0.05035797134041786,-0.4507962763309479
1733751191976837000,5.813837158203125,-0.09983807802200317,-0.0513879656791687,-0.4945158064365387
1733751191986812200,5.823812255859375,-0.08099620789289474,-0.07027430832386017,-0.5725182294845581
1733751191996788000,5.8337880859375,-0.07648082077503204,-0.09470201283693314,-0.6759107112884521
1733751192006763000,5.843762939453125,-0.08852709829807281,-0.11278381198644638,-0.7789279222488403
1733751192016739000,5.853739013671875,-0.12057574838399887,-0.13850989937782288,-0.86316978931427
1733751192026714000,5.863714111328125,-0.1361057013273239,-0.1014685183763504,-0.9042850136756897
1733751192036690000,5.87368994140625,-0.1622210294008255,-0.08186797052621841,-0.9129871726036072
1733751192046665000,5.8836650390625,-0.18807099759578705,-0.09373635053634644,-0.9184274673461914
1733751192056640300,5.89364013671875,-0.19618317484855652,-0.040945667773485184,-0.8901726007461548
1733751192066616000,5.903615966796875,-0.21319305896759033,-0.007738181389868259,-0.854228138923645
1733751192076591000,5.913591064453125,-0.2102571576833725,0.11564075201749802,-0.7885037660598755
1733751192086567200,5.923567138671875,-0.22092339396476746,0.261910080909729,-0.7186130881309509
1733751192096542200,5.933542236328125,-0.22840258479118347,0.4893139600753784,-0.6666134595870972
1733751192106518000,5.94351806640625,-0.3133486211299896,0.6301736235618591,-0.6127203702926636
1733751192116493000,5.9534931640625,-0.2921637296676636,0.7179607152938843,-0.5226479768753052
1733751192126469000,5.96346923828125,-0.2352469116449356,0.8010579943656921,-0.420702189207077
1733751192136444200,5.973444091796875,-0.10121046751737595,0.8040099740028381,-0.42205190658569336
1733751192146419000,5.9834189453125,0.031531330198049545,0.8051998615264893,-0.567628800868988
1733751192156395000,5.99339501953125,0.07379414141178131,0.7836360931396484,-0.7368171215057373
1733751192166370000,6.0033701171875,0.059865809977054596,0.7046528458595276,-0.8864353895187378
1733751192186321000,6.02332080078125,0.03708565980195999,0.1544693261384964,-0.7429335713386536
1733751192196297200,6.033297119140625,0.03679520636796951,-0.11041795462369919,-0.5264636278152466
1733751192206272000,6.04327197265625,-0.02068539336323738,-0.305797815322876,-0.349843829870224
1733751192216247000,6.0532470703125,-0.1256750077009201,-0.4573025703430176,-0.23286885023117065
1733751192226223000,6.06322314453125,-0.14623673260211945,-0.43204888701438904,-0.18237344920635223
1733751192236198000,6.073197998046875,-0.22571788728237152,-0.25013843178749084,-0.29891520738601685
1733751192246174200,6.08317431640625,-0.33167335391044617,-0.08100399374961853,-0.5305026173591614
1733751192256149000,6.09314892578125,-0.4343615174293518,-0.03744407370686531,-0.7752842307090759
1733751192266125000,6.103125,-0.49015820026397705,0.005286079365760088,-0.9716486930847168
1733751192276100000,6.11310009765625,-0.4562092125415802,0.13880117237567902,-0.9918478727340698
1733751192286076200,6.123076171875,-0.3414043188095093,0.35990291833877563,-0.8342816829681396
1733751192296051000,6.133051025390625,-0.2340553253889084,0.39333900809288025,-0.576233446598053
1733751192306026000,6.14302587890625,-0.160321444272995,0.22023487091064453,-0.36488234996795654
1733751192316002000,6.153001953125,-0.0954652652144432,0.007409388665109873,-0.21723394095897675
1733751192325977000,6.16297705078125,-0.037852831184864044,-0.06862811744213104,-0.0783972442150116
1733751192335953000,6.172952880859375,0.05249563232064247,-0.052742935717105865,0.0008934071520343423
1733751192345928000,6.182927978515625,0.09987087547779083,-0.038606345653533936,0.017678245902061462
1733751192355904000,6.192904052734375,0.10632249712944031,-0.03928365558385849,-0.0003868623171001673
1733751192365879000,6.202879150390625,0.09029080718755722,-0.0749465823173523,-0.01044429000467062
1733751192375854000,6.21285400390625,0.0540119893848896,-0.11744232475757599,0.004458761774003506
1733751192385830100,6.222830078125,0.03058123029768467,-0.07383732497692108,0.0724833533167839
1733751192395805200,6.23280517578125,0.05772000551223755,0.06433019042015076,0.20292071998119354
1733751192405781000,6.242781005859375,0.12015382200479507,0.20654965937137604,0.35435551404953003
1733751192415756000,6.252756103515625,0.18709714710712433,0.2708851993083954,0.503883957862854
1733751192425732000,6.262732177734375,0.24124321341514587,0.25206756591796875,0.6588599681854248
1733751192435707100,6.27270703125,0.3131847679615021,0.15177306532859802,0.7827571630477905
1733751192445683000,6.282682861328125,0.3490980565547943,0.027340859174728394,0.8235759735107422
1733751192455658000,6.292657958984375,0.3970155715942383,-0.08848928660154343,0.7862480282783508
1733751192465633300,6.30263330078125,0.43854865431785583,-0.20190691947937012,0.6864932179450989
1733751192475609000,6.312609130859375,0.4288139343261719,-0.2865890860557556,0.5827685594558716
1733751192485584100,6.322584228515625,0.357296347618103,-0.33152514696121216,0.4976605772972107
1733751192495560200,6.332560302734375,0.25723105669021606,-0.32007351517677307,0.4362597167491913
1733751192505535200,6.34253515625,0.17858684062957764,-0.26711416244506836,0.41772225499153137
1733751192515510500,6.352510498046875,0.08289172500371933,-0.17406412959098816,0.4676356613636017
1733751192525485600,6.362485595703125,-0.0387103445827961,-0.09032128751277924,0.573671817779541
1733751192535461400,6.37246142578125,-0.10114692151546478,0.03060615435242653,0.758874773979187
1733751192545436400,6.3824365234375,-0.15238428115844727,0.12614919245243073,0.9555811882019043
1733751192555411500,6.392411376953125,-0.26569682359695435,0.16123028099536896,1.1196331977844238
1733751192565387500,6.402387451171875,-0.19806665182113647,0.12444083392620087,1.1858561038970947
1733751192575362600,6.412362548828125,-0.10593630373477936,0.015596067532896996,1.1688686609268188
1733751192585338400,6.42233837890625,0.07602124661207199,-0.06322284787893295,1.0599396228790283
1733751192595313700,6.432313720703125,0.15359550714492798,-0.09773709625005722,0.9415200352668762
1733751192605289500,6.44228955078125,0.2310894876718521,-0.13040608167648315,0.8284249305725098
1733751192615264500,6.452264404296875,0.30098778009414673,-0.15380653738975525,0.7273047566413879
1733751192625239300,6.4622392578125,0.37029629945755005,-0.15578259527683258,0.6707091331481934
1733751192635215600,6.472215576171875,0.41116610169410706,-0.1448807567358017,0.6752672791481018
1733751192645190400,6.4821904296875,0.4310727119445801,-0.13494157791137695,0.7383160591125488
1733751192655166500,6.49216650390625,0.4394659996032715,-0.14663508534431458,0.8356870412826538
1733751192665141500,6.5021416015625,0.441784530878067,-0.17394420504570007,0.9409176111221313
1733751192675117600,6.51211767578125,0.413062185049057,-0.22243136167526245,1.0436139106750488
1733751192685092400,6.52209228515625,0.35991960763931274,-0.26036199927330017,1.1331759691238403
1733751192695068400,6.532068359375,0.29294389486312866,-0.2985039949417114,1.2178961038589478
1733751192705043500,6.54204345703125,0.23466941714286804,-0.29220905900001526,1.2719357013702393
1733751192715018500,6.5520185546875,0.17017951607704163,-0.26368215680122375,1.2958400249481201
1733751192724994300,6.561994384765625,0.15373742580413818,-0.16977748274803162,1.3018778562545776
1733751192734969300,6.57196923828125,0.11710774898529053,-0.08385566622018814,1.3145780563354492
1733751192744945400,6.5819453125,0.06765151768922806,-0.03775874525308609,1.3210612535476685
1733751192754920400,6.59192041015625,0.08098433911800385,0.07826105505228043,1.3258172273635864
1733751192764896500,6.601896484375,0.08794956654310226,0.20386186242103577,1.3385753631591797
1733751192774871300,6.611871337890625,0.056201398372650146,0.22604648768901825,1.3497432470321655
1733751192784847600,6.62184765625,0.06435199826955795,0.2868373990058899,1.331846833229065
1733751192794822400,6.631822509765625,0.07089171558618546,0.3301052749156952,1.2775487899780273
1733751192804797400,6.64179736328125,0.10152498632669449,0.3258817493915558,1.2161506414413452
1733751192814773500,6.6517734375,0.12222917377948761,0.2554319500923157,1.147540807723999
1733751192824748500,6.66174853515625,0.17353391647338867,0.11864826083183289,1.0885264873504639
1733751192834724400,6.671724365234375,0.1865406036376953,-0.03708723932504654,1.0539311170578003
1733751192844699400,6.681699462890625,0.20962248742580414,-0.19834670424461365,1.043710470199585
1733751192854675500,6.691675537109375,0.23946267366409302,-0.3270817697048187,1.0588546991348267
1733751192864650500,6.701650390625,0.26028114557266235,-0.3765140473842621,1.0723222494125366
1733751192874625500,6.71162548828125,0.260174423456192,-0.38579338788986206,1.0741740465164185
1733751192884601300,6.721601318359375,0.2662450969219208,-0.33386918902397156,1.0604736804962158
1733751192894576600,6.73157666015625,0.2747909724712372,-0.23020896315574646,1.03560209274292
1733751192904552400,6.741552490234375,0.2634914219379425,-0.1140594482421875,0.9993194341659546
1733751192914527500,6.751527587890625,0.2149655967950821,-0.006757951341569424,0.9566511511802673
1733751192924503600,6.761503662109375,0.20685388147830963,0.06481663137674332,0.8981130123138428
1733751192934478600,6.771478515625,0.15084952116012573,0.07362546026706696,0.8191635608673096
1733751192944454400,6.781454345703125,0.15184101462364197,0.040779367089271545,0.7064913511276245
1733751192954429400,6.791429443359375,0.10066159069538116,0.011150439269840717,0.5861769914627075
1733751192964404500,6.801404541015625,0.13571198284626007,0.0024821164552122355,0.48464828729629517
1733751192974380500,6.811380615234375,0.08005540817975998,0.05505305901169777,0.36081573367118835
1733751192984355300,6.821355224609375,0.1247568354010582,0.07056651264429092,0.32101505994796753
1733751192994331400,6.831331298828125,0.12652334570884705,0.13864119350910187,0.2950645983219147
1733751193004306400,6.841306396484375,0.1587667614221573,0.19850905239582062,0.3133051097393036
1733751193014282500,6.851282470703125,0.13428150117397308,0.24735213816165924,0.32231253385543823
1733751193024257500,6.861257568359375,0.13168838620185852,0.23532050848007202,0.3280561864376068
1733751193034233600,6.871233642578125,0.08878383785486221,0.17738786339759827,0.28692498803138733
1733751193044208600,6.881208740234375,0.05591297894716263,0.11402859538793564,0.2400546818971634
1733751193054183400,6.891183349609375,0.07352845370769501,0.07004169374704361,0.20028463006019592
1733751193064159500,6.901159423828125,0.11386176198720932,0.04266360402107239,0.14081890881061554
1733751193074134300,6.91113427734375,0.09735517203807831,0.05419506877660751,0.0766289159655571
1733751193084110600,6.921110595703125,0.12322218716144562,0.06174912303686142,0.02195102535188198
1733751193094085400,6.93108544921875,0.21591411530971527,0.06718707084655762,-0.011074391193687916
1733751193104061400,6.9410615234375,0.20168592035770416,0.05370881035923958,-0.023397104814648628
1733751193114036500,6.951036376953125,0.2255788892507553,0.009886710904538631,-0.0035328532103449106
1733751193124012500,6.961012451171875,0.17753413319587708,-0.0816357433795929,0.016648314893245697
1733751193133987300,6.9709873046875,0.15606993436813354,-0.14783549308776855,0.03256674110889435
1733751193143962400,6.98096240234375,0.07957275956869125,-0.2035488337278366,0.005514348857104778
1733751193153938400,6.9909384765625,0.06064528971910477,-0.18155384063720703,-0.038096241652965546
1733751193163913500,7.00091357421875,-0.003034883411601186,-0.1288144737482071,-0.09382501989603043
1733751193173889300,7.01088916015625,-0.01433857437223196,-0.08982667326927185,-0.15073375403881073
1733751193183864300,7.0208642578125,-0.022044964134693146,-0.0451260507106781,-0.20847295224666595
1733751193193840400,7.03084033203125,-0.026124490424990654,0.015431124716997147,-0.2717553377151489
1733751193203815400,7.0408154296875,-0.026236077770590782,0.07257670164108276,-0.3314617872238159
1733751193213790500,7.05079052734375,-0.06034731864929199,0.09348337352275848,-0.36261439323425293
1733751193223766500,7.0607666015625,-0.1391233652830124,0.05839889124035835,-0.35548484325408936
1733751193233741600,7.070741455078125,-0.20022757351398468,0.007378121372312307,-0.29848647117614746
1733751193243717400,7.08071728515625,-0.2566804587841034,-0.0871739536523819,-0.2422727346420288
1733751193253692400,7.0906923828125,-0.2762933075428009,-0.16469642519950867,-0.22413741052150726
1733751193263668500,7.10066845703125,-0.24628029763698578,-0.17869453132152557,-0.2684396207332611
1733751193273643500,7.1106435546875,-0.177592933177948,-0.1779804527759552,-0.3695169687271118
1733751193283619300,7.120619384765625,-0.1025831326842308,-0.20594950020313263,-0.4928852319717407
1733751193293594400,7.130594482421875,-0.05890628322958946,-0.20108874142169952,-0.6149569749832153
1733751193303569700,7.140569580078125,-0.031606219708919525,-0.1400565356016159,-0.7214943170547485
1733751193313545500,7.15054541015625,-0.03379950299859047,-0.06528545171022415,-0.788275957107544
1733751193323520500,7.1605205078125,-0.05267971381545067,-0.0036258152686059475,-0.811051070690155
1733751193333496600,7.17049658203125,-0.08889678865671158,0.04331069439649582,-0.7806451916694641
1733751193343471600,7.1804716796875,-0.1494767963886261,0.06612679362297058,-0.7124501466751099
1733751193353447400,7.190447509765625,-0.20817448198795319,0.07660658657550812,-0.6471509337425232
1733751193363422500,7.20042236328125,-0.25458353757858276,0.06417415291070938,-0.6134965419769287
1733751193373398500,7.2103984375,-0.2726415693759918,0.04138270765542984,-0.6017309427261353
1733751193383373600,7.22037353515625,-0.2644805610179901,0.0027042883448302746,-0.6152190566062927
1733751193393348400,7.230348388671875,-0.2584801912307739,-0.08370755612850189,-0.6615084409713745
1733751193403324400,7.240324462890625,-0.20871129631996155,-0.15269459784030914,-0.7061107754707336
1733751193413299500,7.250299560546875,-0.19144190847873688,-0.17326827347278595,-0.757122278213501
1733751193423275500,7.260275634765625,-0.14502006769180298,-0.1645275205373764,-0.7782712578773499
1733751193433250300,7.270250244140625,-0.1493660807609558,-0.174467995762825,-0.7758232355117798
1733751193443226600,7.2802265625,-0.10452056676149368,-0.18829087913036346,-0.7547290921211243
1733751193453201400,7.290201416015625,-0.13066235184669495,-0.20324595272541046,-0.7338778972625732
1733751193463176400,7.300176513671875,-0.12034100294113159,-0.18374735116958618,-0.7468131184577942
1733751193473152500,7.310152587890625,-0.13573101162910461,-0.1816476583480835,-0.7959089279174805
1733751193483127300,7.320127197265625,-0.14467070996761322,-0.1918339878320694,-0.8693897724151611
1733751193493103600,7.330103515625,-0.16804243624210358,-0.22243282198905945,-0.9425914287567139
1733751193503078400,7.340078369140625,-0.18215905129909515,-0.24476076662540436,-0.9989657402038574
1733751193513054500,7.350054443359375,-0.20625455677509308,-0.30305108428001404,-1.0180027484893799
1733751193523029200,7.360029296875,-0.2044774293899536,-0.2619071304798126,-0.9853720664978027
1733751193533005600,7.370005615234375,-0.19543538987636566,-0.265774130821228,-0.9212536811828613
1733751193542980400,7.37998046875,-0.19351498782634735,-0.1726393848657608,-0.8258350491523743
1733751193552956400,7.389956298828125,-0.15517817437648773,-0.12059200555086136,-0.7539989352226257
1733751193562931500,7.399931396484375,-0.1112527996301651,-0.10188010334968567,-0.7053704261779785
1733751193572906500,7.409906494140625,-0.11781133711338043,-0.16111838817596436,-0.6807314157485962
1733751193582882300,7.41988232421875,-0.15480610728263855,-0.21990527212619781,-0.6855128407478333
1733751193592857300,7.429857421875,-0.1807021051645279,-0.2170877605676651,-0.7314925789833069
1733751193602833400,7.43983349609375,-0.170587420463562,-0.11894574016332626,-0.8152338266372681
1733751193612808400,7.449808349609375,-0.11569799482822418,-0.02776266448199749,-0.8961600065231323
1733751193622784300,7.4597841796875,-0.045508261770009995,0.03541577234864235,-0.9564952254295349
1733751193632759300,7.46975927734375,0.0016139374347403646,0.07156842201948166,-0.9787805080413818
1733751193642734600,7.479734619140625,0.020404668524861336,0.08473668992519379,-0.9596920013427734
1733751193652710400,7.48971044921875,0.029425881803035736,0.10709021240472794,-0.9034491777420044
1733751193662685400,7.499685546875,0.036934662610292435,0.14433425664901733,-0.8408808708190918
1733751193672661500,7.50966162109375,0.04852916672825813,0.16959895193576813,-0.8128937482833862
1733751193682636500,7.519636474609375,0.0586976483464241,0.1704287827014923,-0.7971584796905518
1733751193692612400,7.5296123046875,0.0676487535238266,0.18733863532543182,-0.7915384769439697
1733751193702587400,7.53958740234375,0.03371262550354004,0.14838218688964844,-0.8104093670845032
1733751193712563500,7.5495634765625,0.05518520623445511,0.21500557661056519,-0.8226350545883179
1733751193722538500,7.55953857421875,0.08853410929441452,0.2144998461008072,-0.8316706418991089
1733751193732513500,7.569513427734375,0.08264476805925369,0.20195753872394562,-0.8170047998428345
1733751193742489300,7.5794892578125,0.09592489153146744,0.26820340752601624,-0.792303740978241
1733751193752464600,7.589464599609375,0.08069267123937607,0.27041834592819214,-0.7710554003715515
1733751193762440400,7.5994404296875,0.06038340553641319,0.2652542293071747,-0.7472200989723206
1733751193772415500,7.60941552734375,0.029905149713158607,0.19558021426200867,-0.7245460748672485
1733751193782391300,7.619391357421875,0.025756744667887688,0.08654400706291199,-0.6869235634803772
1733751193792366600,7.62936669921875,0.0021117236465215683,-0.10670407861471176,-0.6403788328170776
1733751193802342400,7.63934228515625,-0.000019337981939315796,-0.18796752393245697,-0.5640432834625244
1733751193812317400,7.6493173828125,0.012360245920717716,-0.20169071853160858,-0.43302738666534424
1733751193822292200,7.659292236328125,0.04498130455613136,-0.22625410556793213,-0.3074875771999359
1733751193832268500,7.6692685546875,0.04907983914017677,-0.24958157539367676,-0.2083020657300949
1733751193842243300,7.679243408203125,-0.02141164056956768,-0.23499757051467896,-0.16347813606262207
1733751193852219400,7.689219482421875,-0.06648370623588562,-0.16262640058994293,-0.17126478254795074
1733751193862194400,7.6991943359375,-0.04203881323337555,-0.1022900864481926,-0.19831131398677826
1733751193872170500,7.70917041015625,-0.021830163896083832,-0.04381397366523743,-0.21006640791893005
1733751193882145300,7.719145263671875,-0.03467991575598717,0.04265673831105232,-0.17911328375339508
1733751193892121300,7.729121337890625,-0.06560761481523514,0.122525654733181,-0.08714617043733597
1733751193902096400,7.739096435546875,-0.09277212619781494,0.21539142727851868,0.05845363810658455
1733751193912071400,7.749071533203125,-0.11343777179718018,0.33615243434906006,0.2520832121372223
1733751193922047500,7.759047607421875,-0.10827017575502396,0.4654678404331207,0.4525148570537567
1733751193932022300,7.769022216796875,-0.10187646001577377,0.5540028810501099,0.6244648098945618
1733751193941998600,7.77899853515625,-0.07491142302751541,0.5821114778518677,0.7233730554580688
1733751193951973400,7.788973388671875,-0.02032448537647724,0.5291685461997986,0.7494897842407227
1733751193961949400,7.798949462890625,0.02348637767136097,0.3891832232475281,0.714418351650238
1733751193971924500,7.808924560546875,0.06408307701349258,0.22974775731563568,0.6458006501197815
1733751193981900500,7.818900634765625,0.08579423278570175,0.03442966192960739,0.5783361196517944
1733751193991875300,7.828875244140625,0.0983838364481926,-0.15749993920326233,0.5232859253883362
1733751194001850400,7.838850341796875,0.11614418774843216,-0.26340585947036743,0.47893020510673523
1733751194011826400,7.848826416015625,0.1437406688928604,-0.2634829580783844,0.4545897841453552
1733751194021801500,7.858801513671875,0.1576700657606125,-0.2041168510913849,0.4498416483402252
1733751194031777300,7.86877734375,0.16059772670269012,-0.11358345299959183,0.47146111726760864
1733751194041752300,7.87875244140625,0.16928628087043762,-0.030396156013011932,0.518517017364502
1733751194051728400,7.888728271484375,0.1809910237789154,0.04410451278090477,0.5740309357643127
1733751194061703400,7.898703369140625,0.19381840527057648,0.09513761103153229,0.6294622421264648
1733751194071679200,7.90867919921875,0.19626358151435852,0.10935881733894348,0.6755774617195129
1733751194081654300,7.918654296875,0.19492453336715698,0.11144992709159851,0.6976619958877563
1733751194091629600,7.928629638671875,0.18266330659389496,0.10832749307155609,0.7133288979530334
1733751194101605400,7.93860546875,0.1688351184129715,0.12749452888965607,0.7166981101036072
1733751194111580400,7.948580322265625,0.14201326668262482,0.1288825124502182,0.7169390916824341
1733751194121556500,7.958556396484375,0.14244043827056885,0.18609413504600525,0.7104673385620117
1733751194131531500,7.968531494140625,0.1436266452074051,0.2110929787158966,0.7058064341545105
1733751194141507300,7.97850732421875,0.12836405634880066,0.18509680032730103,0.7094925045967102
1733751194151482400,7.988482421875,0.11020974814891815,0.14292308688163757,0.7204563617706299
1733751194161458400,7.99845849609375,0.11535631120204926,0.13578608632087708,0.7186134457588196
1733751194171433500,8.00843359375,0.11199411749839783,0.14532913267612457,0.7133009433746338
1733751194191384300,8.02838427734375,0.14755721390247345,0.16686534881591797,0.7113391160964966
1733751194201359600,8.038359619140625,0.14118054509162903,0.15692536532878876,0.7052084803581238
1733751194211335400,8.04833544921875,0.13659611344337463,0.14445321261882782,0.6887295246124268
1733751194221310500,8.058310546875,0.12594106793403625,0.126528799533844,0.674375593662262
1733751194231286500,8.06828662109375,0.1217627301812172,0.10819116234779358,0.6773238778114319
1733751194241261600,8.078261474609375,0.11008530855178833,0.10676663368940353,0.6962254047393799
1733751194251237400,8.0882373046875,0.09590259194374084,0.1322527974843979,0.7147180438041687
1733751194261212400,8.09821240234375,0.08198917657136917,0.15140971541404724,0.7363399863243103
1733751194271187500,8.1081875,0.07377974689006805,0.16457879543304443,0.7518792748451233
1733751194281163500,8.11816357421875,0.06862066686153412,0.1604200005531311,0.7549927830696106
1733751194291138300,8.12813818359375,0.07086634635925293,0.12811815738677979,0.7467426061630249
1733751194301114400,8.1381142578125,0.07260538637638092,0.09177587181329727,0.7249278426170349
1733751194311089400,8.14808935546875,0.06793346256017685,0.05899345129728317,0.7129911184310913
1733751194321065500,8.1580654296875,0.05862518399953842,0.034276120364665985,0.7005725502967834
1733751194331040300,8.168040283203124,0.05807287618517876,0.02677108906209469,0.6826041340827942
1733751194341016600,8.1780166015625,0.051327090710401535,0.021470865234732628,0.6579251289367676
1733751194350991400,8.187991455078125,0.053244367241859436,0.044814709573984146,0.6295878887176514
1733751194360967400,8.197967529296875,0.04081326723098755,0.047152698040008545,0.6038212180137634
1733751194370942500,8.2079423828125,0.05529910698533058,0.05396377667784691,0.567640483379364
1733751194380917200,8.217917236328125,0.06233437731862068,0.05235336348414421,0.5285876393318176
1733751194390893600,8.2278935546875,0.08536870032548904,0.03398773446679115,0.4955446124076843
1733751194400868400,8.237868408203125,0.0912683978676796,-0.006532259285449982,0.4750422537326813
1733751194410844400,8.247844482421876,0.12907537817955017,0.026335250586271286,0.4517563581466675
1733751194420819500,8.2578193359375,0.10944123566150665,-0.03145720809698105,0.43656596541404724
1733751194430795500,8.26779541015625,0.1660960167646408,0.016699813306331635,0.4249981641769409
1733751194440770300,8.277770263671876,0.15141907334327698,-0.05037323012948036,0.3918412923812866
1733751194450746600,8.28774658203125,0.20959897339344025,-0.01184716634452343,0.35202428698539734
1733751194460721400,8.297721435546874,0.18118144571781158,-0.08349046111106873,0.3212921917438507
1733751194470696400,8.307696533203124,0.23078902065753937,-0.039266105741262436,0.3149256408214569
1733751194480672300,8.31767236328125,0.17173528671264648,-0.08020634949207306,0.306443989276886
1733751194490647300,8.327647216796874,0.1715124249458313,0.005832820199429989,0.2959436774253845
1733751194500623400,8.337623291015625,0.1437058299779892,0.035626135766506195,0.27287670969963074
1733751194510598400,8.347598388671875,0.09088943153619766,0.07400386780500412,0.25752031803131104
1733751194520574000,8.357573974609375,0.11702436208724976,0.13758310675621033,0.23436306416988373
1733751194530548700,8.367548828125,0.07310784608125687,0.1217794120311737,0.20183752477169037
1733751194540525000,8.377525146484375,0.09900975227355957,0.12881042063236237,0.16500280797481537
1733751194550499800,8.387499755859375,0.11548600345849991,0.10872463136911392,0.1367282122373581
1733751194560475000,8.397474853515625,0.16270864009857178,0.07954011112451553,0.10204878449440002
1733751194570451000,8.407450927734375,0.12197186797857285,0.030970977619290352,0.07318677753210068
1733751194580426000,8.417426025390625,0.18617720901966095,0.013160822913050652,0.0394597053527832
1733751194590401800,8.42740185546875,0.15753638744354248,-0.03975890949368477,0.0026795915327966213
1733751194600376800,8.437376953125,0.1751563996076584,-0.0669761449098587,-0.035423848778009415
1733751194610353000,8.447352783203126,0.1285851150751114,-0.09063956141471863,-0.0769776850938797
1733751194620328000,8.457327880859374,0.15048588812351227,-0.09995982050895691,-0.14244139194488525
1733751194630303700,8.4673037109375,0.08097255975008011,-0.1137305200099945,-0.2016654908657074
1733751194640278800,8.47727880859375,0.07587447017431259,-0.07639247179031372,-0.24346619844436646
1733751194650254000,8.487254150390624,0.076662078499794,-0.04471011459827423,-0.27320319414138794
1733751194660230000,8.49722998046875,0.07628151029348373,-0.023848773911595345,-0.2845296263694763
1733751194670205000,8.507204833984375,0.061611879616975784,0.003566930303350091,-0.28567051887512207
1733751194680181000,8.517180908203125,0.04788781329989433,0.04417960345745087,-0.2726207673549652
1733751194690156000,8.527156005859375,0.028226027265191078,0.07006783038377762,-0.26194140315055847
1733751194700131800,8.5371318359375,0.016592806205153465,0.0849652886390686,-0.2600734531879425
1733751194710107000,8.54710693359375,0.008952130563557148,0.0624944306910038,-0.2818973660469055
1733751194720083000,8.5570830078125,-0.002289338270202279,0.02627171017229557,-0.32750293612480164
1733751194730058000,8.56705810546875,-0.005687311291694641,-0.0029931257013231516,-0.40229275822639465
1733751194740033800,8.57703369140625,0.003325890749692917,-0.005455218255519867,-0.484678715467453
1733751194750008800,8.5870087890625,0.01620880514383316,-0.01585518755018711,-0.5318752527236938
1733751194759984000,8.596984130859376,0.012639369815587997,-0.01886109821498394,-0.5346564054489136
1733751194769960000,8.6069599609375,-0.003365539712831378,0.00510329520329833,-0.5109612941741943
1733751194779935000,8.61693505859375,-0.018154872581362724,0.057678885757923126,-0.4699738919734955
1733751194789911000,8.6269111328125,-0.02627202309668064,0.11566664278507233,-0.4257862865924835
1733751194799886000,8.636885986328124,-0.03692013770341873,0.15769770741462708,-0.40314966440200806
1733751194809862000,8.64686181640625,-0.06256862729787827,0.161773219704628,-0.42705678939819336
1733751194819837000,8.6568369140625,-0.08318495750427246,0.1335410475730896,-0.48517122864723206
1733751194829813000,8.66681298828125,-0.09384961426258087,0.09444091469049454,-0.5548820495605469
1733751194839788000,8.6767880859375,-0.09744275361299515,0.05446446314454079,-0.6124329566955566
1733751194849762800,8.6867626953125,-0.09454362094402313,0.014571510255336761,-0.6609543561935425
1733751194859739000,8.69673876953125,-0.09636256098747253,-0.017176032066345215,-0.6981371641159058
1733751194869714000,8.7067138671875,-0.10817891359329224,-0.03261033445596695,-0.6966292262077332
1733751194879690000,8.71668994140625,-0.11984223127365112,-0.02369646728038788,-0.668010950088501
1733751194889664800,8.726664794921875,-0.13429991900920868,0.004334151279181242,-0.6356814503669739
1733751194899641000,8.73664111328125,-0.15228210389614105,0.0191383957862854,-0.6175320148468018
1733751194909615900,8.746615966796876,-0.16158488392829895,0.030032940208911896,-0.6156737208366394
1733751194919592000,8.756592041015624,-0.16700974106788635,0.042666979134082794,-0.6364644765853882
1733751194929567000,8.76656689453125,-0.16721008718013763,0.04740297049283981,-0.6645132899284363
1733751194939541800,8.776541748046874,-0.17017072439193726,0.047825347632169724,-0.7130805253982544
1733751194949518000,8.78651806640625,-0.1826103776693344,0.0703401044011116,-0.7793667912483215
1733751194959492900,8.796492919921874,-0.2036038041114807,0.08776277303695679,-0.8336007595062256
1733751194969469000,8.806468994140625,-0.22820653021335602,0.1104164645075798,-0.8736022114753723
1733751194979444000,8.81644384765625,-0.2510167956352234,0.1287427395582199,-0.9005446434020996
1733751194989420000,8.826419921875,-0.26812082529067993,0.1349700540304184,-0.9131746292114258
1733751194999394800,8.836394775390625,-0.2738415598869324,0.13387523591518402,-0.9073330163955688
1733751195009371100,8.84637109375,-0.2622874081134796,0.12811698019504547,-0.8834726214408875
1733751195019346000,8.856345947265625,-0.24233844876289368,0.18293948471546173,-0.8164464235305786
1733751195029322000,8.866322021484375,-0.19529403746128082,0.19548891484737396,-0.7487489581108093
1733751195039296800,8.876296875,-0.13729996979236603,0.17018169164657593,-0.7057426571846008
1733751195049271800,8.886271728515625,-0.09706886112689972,0.14856697618961334,-0.6836939454078674
1733751195059247900,8.896247802734376,-0.07963501662015915,0.14669451117515564,-0.6851882338523865
1733751195069223000,8.906222900390626,-0.05567997694015503,0.13356681168079376,-0.7024479508399963
1733751195079198700,8.91619873046875,-0.051146477460861206,0.12369394302368164,-0.7244126200675964
1733751195089174000,8.926174072265624,-0.048993971198797226,0.11567164212465286,-0.728394091129303
1733751195099149800,8.93614990234375,-0.06536123156547546,0.12376473098993301,-0.7184149622917175
1733751195109124900,8.946124755859374,-0.08699158579111099,0.15085430443286896,-0.7030947804450989
1733751195119101000,8.956100830078125,-0.09752199053764343,0.17080670595169067,-0.6920764446258545
1733751195129076000,8.966075927734375,-0.09989617764949799,0.18773551285266876,-0.6893782615661621
1733751195139051000,8.976051025390625,-0.10317665338516235,0.19857484102249146,-0.6805527806282043
1733751195149026800,8.98602685546875,-0.09010601788759232,0.1922810673713684,-0.6786544322967529
1733751195159001900,8.996001953125,-0.08894434571266174,0.17783793807029724,-0.6812640428543091
1733751195168978000,9.00597802734375,-0.09414561092853546,0.14695851504802704,-0.6798547506332397
1733751195178953000,9.015952880859375,-0.10335375368595123,0.13168714940547943,-0.6770933270454407
1733751195188928800,9.0259287109375,-0.1175013855099678,0.11665660887956619,-0.6542073488235474
1733751195198904000,9.035904052734375,-0.12731780111789703,0.09895244985818863,-0.5971198678016663
1733751195208879900,9.0458798828125,-0.13153895735740662,0.07523071765899658,-0.5148316621780396
1733751195218855000,9.05585498046875,-0.12447039783000946,0.04373937100172043,-0.42123058438301086
1733751195228830000,9.065829833984376,-0.10896775871515274,0.017214881256222725,-0.3397265672683716
1733751195238806000,9.075805908203124,-0.09456325322389603,-0.008818583562970161,-0.2865890562534332
1733751195248781000,9.085781005859374,-0.07263607531785965,-0.0451134629547596,-0.27336567640304565
1733751195258756900,9.0957568359375,-0.06186652183532715,-0.09675402194261551,-0.29767605662345886
1733751195268732000,9.10573193359375,-0.07139351963996887,-0.1594342142343521,-0.35370782017707825
1733751195278708000,9.1157080078125,-0.09943607449531555,-0.2121938318014145,-0.41859495639801025
1733751195288683000,9.12568310546875,-0.14216755330562592,-0.22661352157592773,-0.460835337638855
1733751195298658800,9.135658935546875,-0.18667802214622498,-0.2100534439086914,-0.47795361280441284
1733751195308634000,9.145634033203125,-0.21380768716335297,-0.16706977784633636,-0.4740390181541443
1733751195318610000,9.15560986328125,-0.23572629690170288,-0.11091621965169907,-0.46803784370422363
1733751195328585000,9.1655849609375,-0.2741107940673828,-0.06307190656661987,-0.4588039815425873
1733751195338559700,9.175559814453125,-0.24586395919322968,-0.02767929807305336,-0.4442974627017975
1733751195348536000,9.1855361328125,-0.20369333028793335,0.00728269387036562,-0.4284105598926544
1733751195358510800,9.1955107421875,-0.18979109823703766,0.011683302000164986,-0.4126691222190857
1733751195368487000,9.20548681640625,-0.18023045361042023,-0.0029565549921244383,-0.3991503119468689
1733751195378462000,9.2154619140625,-0.1735011786222458,-0.03216557204723358,-0.38337641954421997
1733751195388438000,9.22543798828125,-0.1722606122493744,-0.05869820713996887,-0.37605342268943787
1733751195398413000,9.2354130859375,-0.17182758450508118,-0.053906116634607315,-0.3640039563179016
1733751195408388900,9.245388916015624,-0.16094014048576355,-0.027933156117796898,-0.33530813455581665
1733751195418364000,9.255364013671874,-0.1850007325410843,-0.028516121208667755,-0.2743382453918457
1733751195428339000,9.2653388671875,-0.12441196292638779,0.046938154846429825,-0.18055182695388794
1733751195438315000,9.27531494140625,-0.0760875716805458,0.07818316668272018,-0.059191323816776276
1733751195448289800,9.285289794921875,-0.037672821432352066,0.06960724294185638,0.06526662409305573
1733751195458266000,9.29526611328125,-0.01620880886912346,0.06753449887037277,0.17115069925785065
1733751195468241000,9.305240966796875,-0.070796437561512,0.04719432443380356,0.2623172998428345
1733751195478217000,9.315217041015625,-0.03383762389421463,-0.030387550592422485,0.32807233929634094
1733751195488191700,9.325191650390625,0.005881533958017826,-0.0757322758436203,0.3818213939666748
1733751195498168000,9.33516796875,0.019392281770706177,-0.09906316548585892,0.44689229130744934
1733751195508142800,9.345142822265625,0.03566884249448776,-0.10484416037797928,0.5095071196556091
1733751195518118000,9.355117919921875,0.017213404178619385,-0.12199651449918747,0.5710407495498657
1733751195528093700,9.36509375,0.05008688569068909,-0.07779911905527115,0.6207462549209595
1733751195538069000,9.375069091796876,0.09415128827095032,-0.05126391351222992,0.6534807682037354
1733751195548044800,9.385044921875,0.10085509717464447,-0.03743593394756317,0.6841128468513489
1733751195558019800,9.395019775390624,0.10775960981845856,0.0021543544717133045,0.7126526236534119
1733751195567996000,9.404995849609374,0.09991315752267838,-0.005659082904458046,0.7572764158248901
1733751195577971000,9.414970947265624,0.09409867972135544,-0.0363679938018322,0.8117889165878296
1733751195587947000,9.424947021484375,0.10582449287176132,-0.08046798408031464,0.8566131591796875
1733751195597921800,9.434921875,0.12308044731616974,-0.12417631596326828,0.8921309113502502
1733751195607898000,9.444898193359375,0.14836789667606354,-0.165013387799263,0.9199967980384827
1733751195617873000,9.454872802734375,0.17904697358608246,-0.18530240654945374,0.9238682389259338
1733751195627848000,9.464847900390625,0.21354027092456818,-0.19125616550445557,0.9107113480567932
1733751195637823700,9.47482373046875,0.22724676132202148,-0.19102846086025238,0.8932846784591675
1733751195647799000,9.484799072265625,0.2303813099861145,-0.1839950531721115,0.8803949952125549
1733751195657774800,9.49477490234375,0.22193987667560577,-0.16883474588394165,0.875918984413147
1733751195667750000,9.50475,0.20160821080207825,-0.14795424044132233,0.8824763298034668
1733751195677726000,9.514725830078126,0.15986423194408417,-0.1335071325302124,0.9186082482337952
1733751195687701000,9.524700927734376,0.13926641643047333,-0.0861324891448021,0.9662660360336304
1733751195697676800,9.5346767578125,0.08979393541812897,-0.12280075252056122,1.0287678241729736
1733751195707651800,9.54465185546875,0.06212720274925232,-0.08149363100528717,1.1004126071929932
1733751195717627000,9.554626953125,0.06590249389410019,-0.04373054578900337,1.1517887115478516
1733751195727603000,9.56460302734375,0.06895479559898376,-0.047515805810689926,1.1901869773864746
1733751195737578000,9.574577880859374,0.03409348428249359,-0.12582604587078094,1.2080498933792114
1733751195747553800,9.5845537109375,0.04480135440826416,-0.10445321351289749,1.2010362148284912
1733751195757529000,9.594529052734375,0.08182995021343231,-0.0960000678896904,1.1791496276855469
1733751195767505000,9.6045048828125,0.12509095668792725,-0.11800065636634827,1.1472476720809937
1733751195777480000,9.61447998046875,0.15467014908790588,-0.14465384185314178,1.115560531616211
1733751195787456000,9.6244560546875,0.16378219425678253,-0.17610110342502594,1.0834131240844727
1733751195797431000,9.63443115234375,0.1652839481830597,-0.20839166641235352,1.0666182041168213
1733751195807405800,9.64440576171875,0.10993150621652603,-0.2672915756702423,1.0652942657470703
1733751195817382000,9.6543818359375,0.10276919603347778,-0.2334982007741928,1.066304087638855
1733751195827357000,9.66435693359375,0.10000385344028473,-0.21377812325954437,1.0685060024261475
1733751195837333000,9.6743330078125,0.061534758657217026,-0.2411588877439499,1.0779229402542114
1733751195847308000,9.68430810546875,0.04792994260787964,-0.24229128658771515,1.0929521322250366
1733751195857283800,9.694283935546874,0.03705652430653572,-0.2589895725250244,1.1101391315460205
1733751195867259100,9.704259033203124,0.053278032690286636,-0.23774877190589905,1.1124354600906372
1733751195877235000,9.71423486328125,0.055190980434417725,-0.23495590686798096,1.1048235893249512
1733751195887210000,9.7242099609375,0.049206849187612534,-0.2329120635986328,1.0818196535110474
1733751195897184800,9.734184814453124,0.04997650161385536,-0.22578464448451996,1.0447343587875366
1733751195907161000,9.7441611328125,0.039114296436309814,-0.21359282732009888,1.0029984712600708
1733751195917136000,9.754135986328125,0.020454322919249535,-0.2171766310930252,0.9714674353599548
1733751195927112000,9.76411181640625,0.016530660912394524,-0.21478551626205444,0.9452588558197021
1733751195937086700,9.774086669921875,0.03312375396490097,-0.20127689838409424,0.9039950370788574
1733751195947063000,9.78406298828125,0.05727176368236542,-0.17829899489879608,0.8574569821357727
1733751195957037800,9.794037841796875,0.08203276991844177,-0.1464366614818573,0.7960047721862793
1733751195967014000,9.804013916015625,0.10570937395095825,-0.07284684479236603,0.7513911724090576
1733751195976989000,9.813989013671875,0.08953652530908585,-0.03924441337585449,0.7306345105171204
1733751195986965000,9.823965087890626,0.08728494495153427,-0.13234300911426544,0.6431556940078735
1733751195996939800,9.833939697265626,0.08261695504188538,-0.16997267305850983,0.5653274655342102
1733751196006914800,9.843914794921876,0.06819020211696625,-0.17664049565792084,0.5235442519187927
1733751196016891000,9.853890869140624,0.08086125552654266,-0.203303262591362,0.5091844797134399
1733751196026866000,9.863865966796874,0.05820358544588089,-0.20221658051013947,0.5065237879753113
1733751196036842000,9.873842041015624,0.0511627197265625,-0.19892410933971405,0.5093470215797424
1733751196046816800,9.883816650390624,0.07944418489933014,-0.18765613436698914,0.505662739276886
1733751196056793000,9.89379296875,0.07458951324224472,-0.1664256751537323,0.4757338762283325
1733751196066768000,9.903767822265625,0.138995960354805,-0.14400982856750488,0.4470777213573456
1733751196076744000,9.913743896484375,0.1846286952495575,-0.1252763569355011,0.4010756015777588
1733751196086719000,9.923718994140625,0.15457013249397278,-0.07786517590284348,0.34101706743240356
1733751196096694000,9.933694091796875,0.1672326624393463,-0.054277293384075165,0.3029114902019501
1733751196106669800,9.943669921875,0.13407514989376068,-0.014192638918757439,0.28464558720588684
1733751196116644900,9.953644775390625,0.07076700776815414,0.049497123807668686,0.27870139479637146
1733751196126621000,9.963620849609375,0.032682329416275024,0.10343964397907257,0.2756243050098419
1733751196136596000,9.973595947265625,0.002919106977060437,0.17050442099571228,0.26461905241012573
1733751196146571800,9.98357177734375,-0.011637575924396515,0.24022778868675232,0.23927684128284454
1733751196156546800,9.993546875,-0.019876863807439804,0.2884259521961212,0.2151706963777542
1733751196166523000,10.00352294921875,-0.02328748069703579,0.31416332721710205,0.20454709231853485
1733751196176498000,10.013497802734374,-0.027646809816360474,0.31055739521980286,0.19177457690238953
1733751196196449000,10.033448974609374,-0.004281073808670044,0.20673391222953796,0.12160846590995789
1733751196206424000,10.043424072265625,0.0348627045750618,0.12240789830684662,0.07383312284946442
1733751196216400000,10.05339990234375,0.05411176756024361,0.10299239307641983,0.0007288176566362381
1733751196226375000,10.063375,0.058548860251903534,0.08088788390159607,-0.06593729555606842
1733751196236351000,10.07335107421875,0.09337421506643295,0.047852709889411926,-0.11890996247529984
1733751196246326000,10.083325927734375,0.11774822324514389,0.006326679140329361,-0.13195733726024628
1733751196256301800,10.0933017578125,0.10539568215608597,-0.034324344247579575,-0.10204017162322998
1733751196266276900,10.10327685546875,0.07579025626182556,-0.07217777520418167,-0.06213429570198059
1733751196276252000,10.113251953125,0.07356572151184082,-0.09983576834201813,-0.032421939074993134
1733751196286228000,10.12322802734375,-0.04394403472542763,-0.10029791295528412,-0.028868133202195168
1733751196296203000,10.133203125,-0.08799431473016739,-0.10920938104391098,-0.042033735662698746
1733751196306178800,10.1431787109375,-0.08467023074626923,-0.13152138888835907,-0.07954426854848862
1733751196316154000,10.153154052734376,-0.06363046169281006,-0.12380220741033554,-0.15637966990470886
1733751196326130000,10.1631298828125,-0.04048847034573555,-0.14456146955490112,-0.23733623325824738
1733751196336105000,10.17310498046875,-0.015389244072139263,-0.13382360339164734,-0.3198920786380768
1733751196346081000,10.1830810546875,-0.0007741728331893682,-0.08109783381223679,-0.39025554060935974
1733751196356056000,10.19305615234375,0.00925662275403738,-0.008984765037894249,-0.4259818196296692
1733751196366030800,10.20303076171875,0.0013068292755633593,0.06367173045873642,-0.42972350120544434
1733751196376007000,10.2130068359375,-0.028822310268878937,0.07931327074766159,-0.3872434198856354
1733751196385982000,10.22298193359375,-0.05341101810336113,0.06824344396591187,-0.33350569009780884
1733751196395958000,10.2329580078125,-0.08703209459781647,0.023041611537337303,-0.2877046465873718
1733751196405932800,10.242932861328125,-0.10537885129451752,-0.03245559334754944,-0.2754749655723572
1733751196415908900,10.252908935546875,-0.09480876475572586,-0.08935802429914474,-0.31217920780181885
1733751196425884000,10.2628837890625,-0.07146263867616653,-0.131290003657341,-0.39447638392448425
1733751196435860000,10.27285986328125,-0.029360994696617126,-0.19183723628520966,-0.49799132347106934
1733751196445834800,10.282834716796875,0.012105295434594154,-0.25186723470687866,-0.6110138893127441
1733751196455809800,10.292809814453125,0.04868407920002937,-0.3273595869541168,-0.7046330571174622
1733751196465785900,10.302785888671876,0.07393435388803482,-0.3533119559288025,-0.7746224403381348
1733751196475761000,10.312760986328126,0.07598073035478592,-0.34871506690979004,-0.812851071357727
1733751196485737000,10.322737060546874,0.05432913452386856,-0.3319934010505676,-0.8050983548164368
1733751196495712000,10.3327119140625,0.023979220539331436,-0.2703995406627655,-0.7492159008979797
1733751196505688000,10.34268798828125,-0.01246862392872572,-0.18539200723171234,-0.6641415953636169
1733751196515662800,10.352662841796874,-0.04549048840999603,-0.11827608197927475,-0.5945422649383545
1733751196525639200,10.36263916015625,-0.06948976218700409,-0.06603549420833588,-0.5588521957397461
1733751196535614000,10.372614013671875,-0.0695776492357254,-0.023992974311113358,-0.5677362680435181
1733751196545589000,10.382589111328125,-0.07464130222797394,-0.014490100555121899,-0.6149888038635254
1733751196555564800,10.392564697265625,-0.06201924756169319,-0.008111829869449139,-0.6891255974769592
1733751196565540000,10.4025400390625,-0.08597109466791153,-0.030226415023207664,-0.7689428925514221
1733751196575516000,10.412515869140625,-0.0633494034409523,-0.06558067351579666,-0.829338014125824
1733751196585491000,10.422490966796875,-0.10619377344846725,-0.13320285081863403,-0.8452395796775818
1733751196595466800,10.432466796875,-0.10824999958276749,-0.14968568086624146,-0.8214130997657776
1733751196605442000,10.442442138671876,-0.15798264741897583,-0.14289875328540802,-0.7716829776763916
1733751196615417900,10.45241796875,-0.1686270385980606,-0.08277921378612518,-0.7099112272262573
1733751196625393000,10.462392822265626,-0.18597158789634705,-0.026943065226078033,-0.6520937085151672
1733751196635368000,10.472367919921876,-0.18052728474140167,0.026178739964962006,-0.610190212726593
1733751196645344000,10.482343994140624,-0.15080147981643677,0.08878986537456512,-0.600696861743927
1733751196655319000,10.492319091796874,-0.1564606875181198,0.13682875037193298,-0.6296963095664978
1733751196665294800,10.502294921875,-0.09107304364442825,0.19125796854496002,-0.711808443069458
1733751196675270100,10.512270263671875,-0.09356709569692612,0.23539294302463531,-0.8059719800949097
1733751196685246000,10.522245849609375,-0.053526315838098526,0.29114869236946106,-0.8910992741584778
1733751196695221000,10.532220947265625,-0.07415968924760818,0.3682520091533661,-0.9370002150535583
1733751196705196800,10.54219677734375,-0.15761348605155945,0.4525080621242523,-0.9179471731185913
1733751196715172000,10.552172119140625,-0.15659189224243164,0.514875590801239,-0.8439788818359375
1733751196725147100,10.562147216796875,-0.17572471499443054,0.5552830696105957,-0.7524898052215576
1733751196735123000,10.572123046875,-0.18324653804302216,0.5734890103340149,-0.6586834192276001
1733751196745098000,10.582097900390625,-0.18782086670398712,0.5786616206169128,-0.591454029083252
1733751196755074000,10.592073974609375,-0.23496466875076294,0.5394465923309326,-0.5541859865188599
1733751196765049000,10.602049072265626,-0.133371964097023,0.4327007234096527,-0.5538634657859802
1733751196775025000,10.61202490234375,-0.04955190792679787,0.3440600633621216,-0.5906731486320496
1733751196785000200,10.622000244140626,-0.028512943536043167,0.24204806983470917,-0.6591993570327759
1733751196794976000,10.63197607421875,-0.041912902146577835,0.1431441307067871,-0.7391551733016968
1733751196804951000,10.641950927734374,-0.06629277020692825,0.06941787898540497,-0.8240140676498413
1733751196814926800,10.6519267578125,-0.10669904947280884,0.03727378323674202,-0.8720897436141968
1733751196824902100,10.661902099609375,-0.15402062237262726,0.046365343034267426,-0.8865187764167786
1733751196834877000,10.671876953125,-0.18719401955604553,0.06402743607759476,-0.8458043932914734
1733751196844853000,10.68185302734375,-0.19094279408454895,0.08294128626585007,-0.7603870034217834
1733751196854827800,10.691827880859375,-0.1695411056280136,0.11428269743919373,-0.6526924967765808
1733751196864804000,10.70180419921875,-0.13590416312217712,0.14405396580696106,-0.5372374653816223
1733751196874779000,10.71177880859375,-0.10056694597005844,0.17945696413516998,-0.44117483496665955
1733751196884755000,10.7217548828125,-0.055021561682224274,0.19998781383037567,-0.3862713575363159
1733751196894729700,10.731729736328125,-0.03176524117588997,0.20213857293128967,-0.3918600082397461
1733751196904706000,10.7417060546875,-0.037520527839660645,0.15937358140945435,-0.4381559491157532
1733751196914680800,10.751680908203125,0.012331186793744564,0.0723169818520546,-0.5291077494621277
1733751196924655900,10.76165576171875,-0.005598628427833319,0.030311567708849907,-0.6179124116897583
1733751196934632000,10.7716318359375,-0.04964917525649071,-0.01149020716547966,-0.698179304599762
1733751196944607000,10.78160693359375,-0.10334755480289459,-0.05367574095726013,-0.7502304911613464
1733751196954583000,10.7915830078125,-0.15798203647136688,-0.07238418608903885,-0.7777971625328064
1733751196964557800,10.801557861328124,-0.20065754652023315,-0.06250037252902985,-0.7934759259223938
1733751196974534100,10.8115341796875,-0.24118579924106598,-0.006498620379716158,-0.8014821410179138
1733751196984509000,10.821509033203125,-0.235417440533638,0.05640295892953873,-0.7955190539360046
1733751196994485000,10.831485107421875,-0.22576799988746643,0.09165335446596146,-0.7842589616775513
1733751197004459800,10.841459716796875,-0.21204568445682526,0.10360953956842422,-0.7643660306930542
1733751197014435000,10.85143505859375,-0.20046865940093994,0.11413435637950897,-0.7385674715042114
1733751197024411000,10.861410888671875,-0.1516721099615097,0.11927225440740585,-0.6810246706008911
1733751197034386000,10.871385986328125,-0.13030317425727844,0.09576772153377533,-0.5972989201545715
1733751197044362000,10.881362060546875,-0.08808679133653641,0.11227170377969742,-0.46980565786361694
1733751197054337000,10.8913369140625,-0.05973530933260918,0.10818561911582947,-0.3096884489059448
1733751197064312800,10.901312744140625,-0.08564183115959167,0.12373177707195282,-0.13016077876091003
1733751197074287900,10.911287841796875,-0.07363151013851166,0.10798689723014832,0.031908560544252396
1733751197084264000,10.921263916015626,-0.056338291615247726,0.07123687118291855,0.13038864731788635
1733751197094239000,10.931239013671876,-0.036900945007801056,0.048709992319345474,0.14896579086780548
1733751197104214000,10.941214111328126,-0.003600081894546747,0.028266843408346176,0.09373819082975388
1733751197114189800,10.95118994140625,0.023807041347026825,0.04777742549777031,0.018751300871372223
1733751197124165000,10.9611650390625,0.022817887365818024,0.06829226016998291,-0.03962287679314613
1733751197134141000,10.971140869140624,0.016036415472626686,0.09074857085943222,-0.059248242527246475
1733751197144116000,10.981115966796875,0.02229117974638939,0.11875054985284805,-0.012851083651185036
1733751197154092000,10.991092041015625,0.030318746343255043,0.1642698347568512,0.09201940894126892
1733751197164067000,11.001067138671875,0.043975308537483215,0.19256238639354706,0.24702130258083344
1733751197174043000,11.01104296875,0.06198626756668091,0.18514442443847656,0.42416760325431824
1733751197184018000,11.021017822265625,0.08635275065898895,0.14667393267154694,0.5876634120941162
1733751197193993000,11.030992919921875,0.11579932272434235,0.0678398385643959,0.7042653560638428
1733751197203969000,11.040968994140625,0.14268092811107635,-0.030412329360842705,0.7652316689491272
1733751197213944000,11.050944091796875,0.1523924171924591,-0.13294056057929993,0.7782934308052063
1733751197223919900,11.060919921875,0.14270074665546417,-0.21584045886993408,0.7593023180961609
1733751197233895200,11.070895263671876,0.12932156026363373,-0.253316193819046,0.7245736122131348
1733751197243871000,11.08087109375,0.1016620397567749,-0.24360747635364532,0.6871501803398132
1733751197253846000,11.090845947265626,0.07170546799898148,-0.2016270011663437,0.6657578349113464
1733751197263822000,11.100822021484374,0.04334514960646629,-0.12408056855201721,0.6597245931625366
1733751197273797000,11.110797119140624,0.023181289434432983,-0.03927407041192055,0.6785995364189148
1733751197283772000,11.12077197265625,0.017945708706974983,0.017409145832061768,0.7340881824493408
1733751197293748000,11.130748046875,0.01762213557958603,0.03308610990643501,0.8269158601760864
1733751197303722800,11.14072265625,0.02664751373231411,0.0025057937018573284,0.9297011494636536
1733751197313699000,11.150698974609375,0.04848890006542206,-0.05389809608459473,1.0244601964950562
1733751197323673900,11.160673828125,0.0790407732129097,-0.10392525792121887,1.0873456001281738
1733751197333650000,11.17064990234375,0.11051055043935776,-0.1449051946401596,1.1083859205245972
1733751197343625000,11.180625,0.1287807822227478,-0.1776709109544754,1.090550422668457
1733751197353601000,11.19060107421875,0.1453576385974884,-0.20838329195976257,1.0444358587265015
1733751197363575800,11.200575927734375,0.15402176976203918,-0.22042672336101532,0.9876869916915894
1733751197373550800,11.21055078125,0.15659357607364655,-0.2274601310491562,0.9405133724212646
1733751197383527200,11.220527099609376,0.14825017750263214,-0.20952360332012177,0.9015730619430542
1733751197393502000,11.230501953125,0.1361093670129776,-0.19135284423828125,0.8812552690505981
1733751197403478000,11.24047802734375,0.12954679131507874,-0.17681732773780823,0.8797709941864014
1733751197413452800,11.250452880859376,0.13364805281162262,-0.1495332419872284,0.9105094075202942
1733751197423429000,11.26042919921875,0.14797340333461761,-0.1188371479511261,0.9679164290428162
1733751197433404000,11.27040380859375,0.17418663203716278,-0.08664458990097046,1.0355298519134521
1733751197443380000,11.2803798828125,0.2091677337884903,-0.05585835129022598,1.0936026573181152
1733751197453355000,11.29035498046875,0.2375495731830597,-0.03428567945957184,1.128970742225647
1733751197463331000,11.3003310546875,0.2691912353038788,-0.049070555716753006,1.1191269159317017
1733751197473305900,11.310305908203125,0.2945602536201477,-0.07797358185052872,1.0842770338058472
1733751197483281000,11.320281005859375,0.30402672290802,-0.10693811625242233,1.0315738916397095
1733751197493257000,11.330257080078125,0.2995206415653229,-0.12455067038536072,0.9656147956848145
1733751197503232000,11.34023193359375,0.2918861210346222,-0.12877485156059265,0.9077888131141663
1733751197513207800,11.350207763671875,0.29790353775024414,-0.12297741323709488,0.8650509715080261
1733751197523183400,11.360183349609375,0.27557605504989624,-0.0967559814453125,0.8533607721328735
1733751197533159200,11.3701591796875,0.2596255838871002,-0.044917818158864975,0.8602189421653748
1733751197543134500,11.380134521484376,0.22329513728618622,0.010881073772907257,0.8868793845176697
1733751197553110300,11.3901103515625,0.1676478534936905,0.05764884501695633,0.9112856388092041
1733751197563085300,11.400085205078126,0.1722133904695511,0.126203715801239,0.9656335115432739
1733751197573060400,11.410060302734376,0.15797053277492523,0.08011157810688019,0.9381121397018433
1733751197583036400,11.420036376953124,0.20259645581245422,0.0030401586554944515,0.8799856305122375
1733751197593011500,11.430011474609374,0.23811396956443787,-0.041639428585767746,0.80642169713974
1733751197602987300,11.4399873046875,0.27472156286239624,-0.06245214119553566,0.7349735498428345
1733751197612962300,11.44996240234375,0.3014330565929413,-0.07283474504947662,0.656251072883606
1733751197622938400,11.4599384765625,0.3066042959690094,-0.11221814155578613,0.6009349226951599
1733751197632913400,11.469913330078125,0.24744512140750885,-0.14854446053504944,0.5696888566017151
1733751197642889200,11.47988916015625,0.25951191782951355,-0.18465250730514526,0.5648080110549927
1733751197652864500,11.489864501953125,0.18015772104263306,-0.17700152099132538,0.5581128001213074
1733751197662839300,11.49983935546875,0.19387780129909515,-0.16744741797447205,0.558966338634491
1733751197672815400,11.5098154296875,0.13971522450447083,-0.12334707379341125,0.5485432744026184
1733751197682790400,11.519790283203125,0.10719113796949387,-0.08165020495653152,0.5393129587173462
1733751197692766500,11.529766357421876,0.04251067712903023,-0.07434781640768051,0.5390138626098633
1733751197702741500,11.539741455078126,0.07415233552455902,-0.09066814929246902,0.5501295328140259
1733751197712717300,11.54971728515625,0.03908010572195053,-0.08465339988470078,0.521044909954071
1733751197722692400,11.5596923828125,0.002529403194785118,-0.1022883951663971,0.47320401668548584
1733751197732668400,11.56966845703125,0.010612895712256432,-0.1225300207734108,0.40002965927124023
1733751197742643500,11.5796435546875,0.024756118655204773,-0.13111166656017303,0.3221256732940674
1733751197752618200,11.5896181640625,0.05518033728003502,-0.11339446157217026,0.26093393564224243
1733751197762594300,11.59959423828125,0.07720959186553955,-0.08262542635202408,0.17989252507686615
1733751197772569300,11.6095693359375,0.0317733995616436,-0.06419768929481506,0.104170061647892
1733751197782545400,11.61954541015625,0.00988173857331276,-0.03228446841239929,0.062465839087963104
1733751197792520200,11.629520263671875,0.00540203507989645,-0.014120912179350853,0.06069856882095337
1733751197802496500,11.63949658203125,0.004345624707639217,0.005946174263954163,0.08167292177677155
1733751197812471300,11.64947119140625,-0.0029839270282536745,0.012070379219949245,0.0919436663389206
1733751197822447400,11.659447265625,0.016883328557014465,0.04037875309586525,0.08559326827526093
1733751197832422100,11.669422119140625,0.030434289947152138,0.02575293742120266,0.04110623523592949
1733751197842398500,11.6793984375,0.03774413466453552,0.027407027781009674,-0.01010102778673172
1733751197852373200,11.689373291015626,0.03437230736017227,0.02768479473888874,-0.03669242560863495
1733751197862348300,11.699348388671876,0.05283600091934204,0.020492129027843475,-0.029666472226381302
1733751197872324400,11.709324462890624,0.023901289328932762,-0.0018216976895928383,0.013349169865250587
1733751197882299400,11.71929931640625,-0.005034893285483122,-0.025263577699661255,0.06268502026796341
1733751197892275500,11.729275390625,-0.02676575444638729,-0.04713665321469307,0.09295077621936798
1733751197902250200,11.739250244140624,-0.009570715948939323,-0.05536738038063049,0.08278540521860123
1733751197912226600,11.7492265625,-0.00030344794504344463,-0.07242918759584427,0.03924405202269554
1733751197922201300,11.759201416015625,0.006639532744884491,-0.07101032882928848,-0.02988157607614994
1733751197932177400,11.769177490234375,0.023688290268182755,-0.06282110512256622,-0.1096336618065834
1733751197942152200,11.779152099609375,0.03276127576828003,-0.03793114051222801,-0.18652606010437012
1733751197952127500,11.78912744140625,0.024928651750087738,-0.00623979140073061,-0.24974976480007172
1733751197962103300,11.799103271484375,0.012958294712007046,0.025400435552001,-0.2777474820613861
1733751197972078300,11.809078369140625,-0.022388774901628494,0.01704024150967598,-0.25781747698783875
1733751197982054100,11.81905419921875,-0.057233914732933044,-0.007430252153426409,-0.19778119027614594
1733751197992029400,11.829029541015625,-0.10995624959468842,-0.09921636432409286,-0.1425677388906479
1733751198002005200,11.839005126953126,-0.1571926772594452,-0.1894986927509308,-0.11993928998708725
1733751198011980300,11.848980224609376,-0.15310604870319366,-0.2718638777732849,-0.12627734243869781
1733751198021956400,11.858956298828126,-0.1315232366323471,-0.3433437645435333,-0.1681268811225891
1733751198031931400,11.868931396484374,-0.09843159466981888,-0.35632428526878357,-0.2600027322769165
1733751198041906400,11.878906494140624,-0.0563429519534111,-0.3485319912433624,-0.38924089074134827
1733751198051882200,11.88888232421875,-0.027097178623080254,-0.3476984202861786,-0.5393081903457642
1733751198061857300,11.898857177734374,-0.01261509582400322,-0.34405744075775146,-0.6931986808776855
1733751198071833300,11.908833251953125,-0.012567425146698952,-0.3163938522338867,-0.8254104852676392
1733751198081808400,11.918808349609375,-0.0431225523352623,-0.21763485670089722,-0.8709519505500793
1733751198091784200,11.9287841796875,-0.1049979031085968,-0.1123981773853302,-0.8081626296043396
1733751198101759500,11.938759521484375,-0.17418353259563446,-0.024579990655183792,-0.7001151442527771
1733751198111735300,11.9487353515625,-0.23929941654205322,0.0029238059651106596,-0.6127533316612244
1733751198121710300,11.95871044921875,-0.2821092903614044,0.006189189851284027,-0.562903881072998
1733751198131685400,11.968685302734375,-0.28929927945137024,0.05904175341129303,-0.5349244475364685
1733751198141661400,11.978661376953125,-0.2517697513103485,0.0999218076467514,-0.5587261915206909
1733751198151636500,11.988636474609375,-0.21185405552387238,0.14679023623466492,-0.6329939961433411
1733751198161612300,11.9986123046875,-0.1980452686548233,0.1759295016527176,-0.7283622026443481
1733751198171587300,12.00858740234375,-0.13599015772342682,0.191722571849823,-0.8387742042541504
1733751198181563400,12.0185634765625,-0.1313726007938385,0.16568094491958618,-0.9119574427604675
1733751198201514200,12.03851416015625,-0.08788406103849411,0.12700527906417847,-0.8963453769683838
1733751198211489500,12.048489501953124,-0.039170850068330765,0.1103605180978775,-0.794704258441925
1733751198221465300,12.05846533203125,-0.07931586354970932,0.10402259975671768,-0.675917387008667
1733751198231440400,12.0684404296875,-0.05964895337820053,0.1253603845834732,-0.5732261538505554
1733751198241415200,12.078415283203125,-0.09101967513561249,0.18442130088806152,-0.5221063494682312
1733751198251391500,12.0883916015625,-0.07961335778236389,0.23916123807430267,-0.5255969762802124
1733751198261366300,12.0983662109375,-0.02879365161061287,0.2751843333244324,-0.5775537490844727
1733751198271342300,12.10834228515625,-0.02349475957453251,0.27671486139297485,-0.6731255650520325
1733751198281317000,12.118317138671875,-0.02285335212945938,0.2192104458808899,-0.7730826139450073
1733751198291293400,12.12829345703125,0.016765696927905083,0.09490342438220978,-0.8877719044685364
1733751198301268200,12.138268310546875,-0.008108015172183514,0.049736980348825455,-0.9470582008361816
1733751198311244300,12.148244384765626,-0.022575104609131813,0.08807717263698578,-0.9141532182693481
1733751198321219300,12.15821923828125,-0.025949083268642426,0.1680031567811966,-0.8085203766822815
1733751198331194400,12.1681943359375,-0.046041302382946014,0.21665644645690918,-0.6900451183319092
1733751198341170400,12.17817041015625,-0.07111404091119766,0.20428572595119476,-0.6218698620796204
1733751198351145200,12.188145263671874,-0.10134252160787582,0.15619462728500366,-0.6094182729721069
1733751198361121500,12.19812158203125,-0.09881224483251572,0.07496249675750732,-0.6197528839111328
1733751198371096300,12.208096435546874,-0.12171782553195953,0.02679150551557541,-0.6326489448547363
1733751198381072400,12.218072265625,-0.18902114033699036,-0.014233516529202461,-0.6336231827735901
1733751198391047200,12.228047119140625,-0.15695428848266602,-0.06247162073850632,-0.6303208470344543
1733751198401023500,12.2380234375,-0.1125832051038742,-0.06928404420614243,-0.6449366807937622
1733751198410998300,12.247998291015625,-0.10796128958463669,-0.07001108676195145,-0.6645210385322571
1733751198420974300,12.257974365234375,-0.12212476134300232,-0.0785028338432312,-0.68219393491745
1733751198430949400,12.267949462890625,-0.12890277802944183,-0.08362115919589996,-0.7021098732948303
1733751198440924400,12.27792431640625,-0.1297653168439865,-0.09957174211740494,-0.7242785692214966
1733751198450900200,12.287900146484375,-0.12435485422611237,-0.10485146194696426,-0.7192137837409973
