time,seconds_elapsed,z,y,x
1733751486901890000,0.02189013671875,0.26474983758330345,-0.27223814751207825,0.07422609668374061
1733751486911865900,0.031865966796875,0.2356710608814843,-0.255405086132884,0.10648293716609478
1733751486921841000,0.0418408203125,0.26491993345320225,-0.18484920239448546,0.079050155839324
1733751486931817000,0.05181689453125,0.27418577444851394,-0.12850830649137496,0.12755319772362708
1733751486941793000,0.06179296875,0.16106444044755772,-0.11345219165682792,0.13560147962272168
1733751486951768800,0.071768798828125,0.015313907254207879,-0.13718670298755167,0.011945873859524727
1733751486961744100,0.081744140625,0.07572366003142669,-0.10783552081882954,0.05648702637553215
1733751486971720000,0.091719970703125,0.15539048646437004,-0.06092062490880489,0.023959259997308253
1733751486981696000,0.101696044921875,0.1558826721617952,-0.01460135680437088,-0.2204509693905711
1733751486991672000,0.111672119140625,0.151143934935797,0.06668284169733524,-0.1991708654746413
1733751487001647000,0.121647216796875,0.20378595805466174,0.16249708533287047,-0.07246084057688712
1733751487011623000,0.131622802734375,0.19610535869048906,0.25592940226793287,0.011481471218168735
1733751487021599000,0.141598876953125,0.2036836667239666,0.34021804328262806,-0.022027415151894093
1733751487031575000,0.151574951171875,0.05014092701813206,0.31179683544039727,-0.11724749228656291
1733751487041550800,0.16155078125,-0.09711829370511695,0.27069033354818817,-0.16870003162622452
1733751487051526100,0.171526123046875,-0.1113181022375822,0.24082418759465216,-0.12915098830908536
1733751487061502000,0.181501953125,0.028401370630599557,0.14123217898607254,-0.030502398030459878
1733751487071478000,0.19147802734375,0.17508596980366856,0.03011632132232189,0.008885024984180926
1733751487081454000,0.2014541015625,0.29520635064542294,-0.007666004583239555,0.0708823392137885
1733751487091429000,0.21142919921875,0.395092410297133,-0.035468788266181946,0.17156857279986143
1733751487101405000,0.221405029296875,0.47401455584261565,-0.07740121958851814,0.19470628728121517
1733751487111381000,0.231381103515625,0.5107487609347329,0.03301964154839516,0.11568214266598224
1733751487121357000,0.241357177734375,0.38386016459967937,0.2326537406206131,0.019740765519440172
1733751487131331800,0.251331787109375,0.19106150103807448,0.4114402819752693,-0.04544686918407678
1733751487141308200,0.26130810546875,-0.025350093301199375,0.5942839897662401,-0.1296656598329544
1733751487151284000,0.271283935546875,-0.1922896180609241,0.6988976259291172,-0.248429986423254
1733751487161259800,0.281259765625,-0.2577110980529338,0.76810267958045,-0.1864621905490756
1733751487171235000,0.291235107421875,-0.34124680180847644,0.8987497516661882,-0.17263386394381522
1733751487181211000,0.3012109375,-0.47573768984079357,1.066443821120262,-0.24184330150932073
1733751487191187000,0.31118701171875,-0.5729501829016953,1.1189239499419927,-0.317239318755269
1733751487201163000,0.3211630859375,-0.5269044710416346,0.9571241992235183,-0.10966244398504495
1733751487211139000,0.33113916015625,-0.3945248030096292,0.7448626737684011,0.22226064916104077
1733751487221113900,0.34111376953125,-0.25643333320207895,0.4716635722696781,0.4295017161056399
1733751487231090200,0.351090087890625,-0.15608962944336235,0.05467793112695217,0.481046609903872
1733751487241066000,0.36106591796875,-0.03098550537228584,-0.3504237954765558,0.42050797004997725
1733751487251041800,0.371041748046875,0.23113237627223132,-0.6322533626765012,0.44900399669408797
1733751487261017000,0.38101708984375,0.38703831971175967,-0.8162111691892147,0.5839823759824038
1733751487270993000,0.390992919921875,0.377615169262886,-0.8450310209602117,0.6656777856335043
1733751487280969000,0.400968994140625,0.36725086550638075,-0.7361883689254521,0.6933803238123655
1733751487290945000,0.410945068359375,0.24212131473310292,-0.5245090272724628,0.37665743014663455
1733751487300920000,0.420920166015625,0.04694602170065045,-0.4475239872694015,0.1145537231579423
1733751487310895900,0.430895751953125,-0.021780966110154985,-0.2957382655650377,0.11423691229373216
1733751487320872200,0.4408720703125,-0.22720935760959982,-0.2470744801610708,0.06182809514254331
1733751487330848000,0.450847900390625,-0.3794406311243772,-0.33571488664448257,0.096834818854928
1733751487340823800,0.46082373046875,-0.2826536699991673,-0.3845727333158254,0.20411416709572075
1733751487350799000,0.470799072265625,-0.08740180459916591,-0.4421002086549997,0.31667525513172146
1733751487360775000,0.48077490234375,0.0820125127762556,-0.4815227029830217,0.3722475047498941
1733751487370751000,0.4907509765625,0.05997472236081958,-0.378435837996006,0.30931203288733955
1733751487380727000,0.50072705078125,-0.10262626173794269,-0.12157879948914051,0.21427637240886688
1733751487390702000,0.5107021484375,-0.24854455271363257,0.16567571536898612,-0.045562604518234726
1733751487400678000,0.520677978515625,-0.2552596863128245,0.30566695438325403,-0.18210954829752443
1733751487410654000,0.530654052734375,-0.2028121445864439,0.3882698342680931,-0.30996319027245045
1733751487420630000,0.540630126953125,-0.1612793801061809,0.4093623066574335,-0.3974301690623164
1733751487430605000,0.55060498046875,-0.15376608186662197,0.30570494830608363,-0.35585181187465786
1733751487440581000,0.5605810546875,-0.1502004983395338,0.20377835927009583,-0.21146774472892282
1733751487450557000,0.570556884765625,-0.09767243872284889,0.07010287927389144,-0.03132102093696594
1733751487460533000,0.580532958984375,0.012743819304183125,-0.08406126199960708,0.03172697138935327
1733751487470507800,0.5905078125,0.18855923589356244,-0.12427344540059566,0.00023030162453651428
1733751487480484000,0.600484130859375,0.20377251405119895,-0.06305588337182998,-0.03918094065710902
1733751487490460000,0.6104599609375,0.11047595232501625,-0.008922726646065712,-0.017031068169325588
1733751487500436000,0.62043603515625,0.04054185374677181,-0.033386136773228645,0.041177667432278395
1733751487510412000,0.630412109375,-0.0016970131762325763,-0.0021767595171928405,0.05001593066528439
1733751487520386800,0.64038671875,-0.010331570530682802,0.039521278527379036,0.009936725994199513
1733751487530363100,0.650363037109375,-0.0161832191683352,0.04131576072871685,0.014749533103406428
1733751487540339000,0.6603388671875,-0.10187924276292323,0.080958035287261,-0.009427315167337656
1733751487550315000,0.67031494140625,-0.1413723911743611,0.08794131830334663,0.009009820407629012
1733751487560289800,0.680289794921875,-0.13319836400374768,0.11896189498901366,0.10309475603252649
1733751487570266000,0.69026611328125,-0.08066518982052802,0.12013736850917339,0.17734890976697207
1733751487580242000,0.700241943359375,0.020407485799863935,0.11790449489057063,0.29250220625326034
1733751487590218000,0.710218017578125,0.12887429025955496,0.05393851093649864,0.35185134406164287
1733751487600193000,0.720193115234375,0.24683482618629932,-0.0028659108251333234,0.34473332874998447
1733751487610168800,0.7301689453125,0.33140169962048527,-0.05151566770374775,0.23899784895032644
1733751487620145200,0.740145263671875,0.29980069269835946,-0.057070963743329046,0.023148089744895694
1733751487630121000,0.750120849609375,0.2129682854849845,-0.0024006314009428023,-0.22571064348444342
1733751487640097000,0.760096923828125,0.15399506831690668,-0.00621054507791996,-0.2315770512998104
1733751487650071800,0.77007177734375,0.10129764348268508,0.004780804535746574,-0.1266710080616176
1733751487660048100,0.780048095703125,-0.08883622131645678,-0.004098082968592644,0.031102848141640424
1733751487670024000,0.79002392578125,-0.22937749542891978,-0.06142682086527347,0.19134937806874514
1733751487680000000,0.8,-0.15166114547662435,-0.11473171007335185,0.2767670231133699
1733751487689975000,0.80997509765625,-0.0152671272367239,0.11513678374290466,0.40261064044013617
1733751487699950800,0.819950927734375,-0.09164309543073176,0.1749392182767391,0.2844191453017294
1733751487709927200,0.82992724609375,-0.10614676401428878,0.2747206119775772,0.17721987655982374
1733751487719903000,0.839903076171875,0.04951324184015393,0.2461386606156826,0.0727637690462172
1733751487729878000,0.8498779296875,0.22558453288674354,0.2584030989050865,-0.15895283685475586
1733751487739853800,0.859853759765625,0.28636487254202364,0.2912368624925613,-0.3330883375331759
1733751487749830000,0.869829833984375,0.35995968558490277,0.22981004162728785,-0.36008389648646116
1733751487759806000,0.879805908203125,0.5157226403571665,0.28762510173618794,-0.4189418897770345
1733751487769782000,0.889781982421875,0.43139644381105896,0.1564525444716215,-0.4545603156469762
1733751487779757000,0.899757080078125,0.27749840612784027,0.12718436441123485,-0.49322643864974375
1733751487789732900,0.90973291015625,0.24702201932147144,0.23611060307621953,-0.17271350505128502
1733751487799709200,0.919709228515625,0.2444996612370014,0.15614391691386698,0.18895619932189583
1733751487809685000,0.92968505859375,0.2585609198153019,0.046833062845468516,0.289194396879524
1733751487819660000,0.939659912109375,0.34446590998545285,-0.016187164691090584,0.37692265695407984
1733751487829635800,0.9496357421875,0.4248515522122383,-0.029134909069538115,0.4500273483924567
1733751487839612000,0.95961181640625,0.3899913973636925,-0.05056231250166893,0.39328342464640736
1733751487849588000,0.969587890625,0.21339038335457444,0.024216741889715194,0.18246464534550905
1733751487859562800,0.979562744140625,-0.22548209542557596,-0.010852233403921127,0.11682225261181592
1733751487869539000,0.9895390625,-0.46298225316405295,0.42803485842347144,0.15376549734473227
1733751487879515000,0.999514892578125,-0.07183072597980499,0.34389000979363915,0.48450054975003
1733751487889491000,1.009490966796875,0.2895072622209787,-0.04951718736290931,0.46411914823949335
1733751487899466000,1.019466064453125,0.6979571302086115,-0.11252689350545406,0.21056875006258485
1733751487909442000,1.029442138671875,0.6326904389195144,-0.22579028459191322,0.15248817088529468
1733751487919417900,1.03941796875,0.38185821366012096,-0.15203765063881874,0.06219809749871492
1733751487929394000,1.049393798828125,0.02285992045328021,-0.09318389513194561,0.003679273034632206
1733751487939370000,1.059369873046875,-0.14196283134818077,-0.17294249150156973,-0.013578443497419357
1733751487949344800,1.0693447265625,-0.10837386547923088,-0.22792028235793113,0.02217106140628457
1733751487959321000,1.079321044921875,-0.008509908061474562,-0.29821546933352944,0.042161856164038176
1733751487969297000,1.089296875,-0.03487725211381912,-0.34432606312334535,-0.007328004800528288
1733751487979273000,1.09927294921875,-0.19567630135715006,-0.2979261309981346,0.01922185621187091
1733751487989248000,1.109248046875,-0.36360768669843674,-0.29988018767535685,0.024669600223749876
1733751487999224000,1.11922412109375,-0.41635201941430566,-0.3144476422101259,0.05909267882928252
1733751488009199900,1.129199951171875,-0.24778701234459877,-0.32075463339984417,-0.014576806885004043
1733751488019176000,1.139176025390625,-0.10607552540898323,-0.2645516846626997,-0.06717296330183745
1733751488029151000,1.14915087890625,-0.09401917691230774,-0.1976362032532692,-0.09597221067622304
1733751488039126800,1.159126708984375,-0.14754720735177396,-0.1503267550677061,-0.12369462259933352
1733751488049103000,1.16910302734375,-0.26274770398065445,-0.06445698234140873,-0.1549295726880431
1733751488059079000,1.179078857421875,-0.3438343340836465,0.039649288821220395,-0.09907777547612785
1733751488069054700,1.1890546875,-0.3757937990546226,0.07647358334958552,-0.046292087836563585
1733751488079030000,1.199030029296875,-0.3902073782019317,0.08956512011289595,-0.08597410988360643
1733751488089005800,1.209005859375,-0.5250134696632623,0.16028174737095832,-0.10034268084540962
1733751488098982000,1.21898193359375,-0.5137947410345077,0.26306466097533704,0.01650733655616641
1733751488108958000,1.2289580078125,-0.4682308213420212,0.3246615777105093,0.1754711331963539
1733751488118933000,1.23893310546875,-0.3897755626559257,0.32699674265980716,0.13185747078880666
1733751488128908800,1.24890869140625,-0.26714038598164913,0.3682505440682173,-0.07327464117780327
1733751488138885000,1.258885009765625,-0.17509002492427825,0.34328853676915166,-0.15832023803964257
1733751488148861000,1.26886083984375,-0.04365384828746319,0.26404256609678267,-0.16332579124197363
1733751488158836000,1.2788359375,0.029153467639535663,0.17603987299501894,-0.16683935232087968
1733751488168812000,1.28881201171875,0.1123624967239797,0.13944880270063875,-0.22532792777717112
1733751488178787800,1.298787841796875,0.20405001581832766,0.10945698454082012,-0.0801154469832778
1733751488188764000,1.308763916015625,0.2899012299746275,0.16859890933930874,0.21798341023325918
1733751488198738700,1.31873876953125,0.7312678636580705,0.6542518439948558,0.27793445945754647
1733751488208715000,1.328715087890625,0.36631168496012684,0.5758803180694579,-0.053749125844240186
1733751488218690800,1.33869091796875,-0.5085847513012588,0.261184838578105,0.7669327590182423
1733751488228667100,1.348667236328125,-0.39879239732623095,0.6978706209689378,0.7633069697365165
1733751488238642000,1.358641845703125,-0.6957149042397737,1.017521092519164,0.3913885508105159
1733751488248618000,1.368617919921875,-0.9945943904399871,0.9882710326373576,0.6933852922484278
1733751488258594000,1.378593994140625,-0.9920756856173276,0.8724994581222534,0.8373308218464255
1733751488268569900,1.38856982421875,-0.7153916646122932,0.9215431827545165,0.7453072026655078
1733751488278546000,1.3985458984375,-0.34134543987736105,0.9133265585511923,0.44745062977224587
1733751488288520700,1.408520751953125,0.015473609594255686,0.8349030101776123,0.1732642708018422
1733751488298497000,1.4184970703125,0.31582316834703084,0.7146013910174369,0.12512655509859322
1733751488308472800,1.428472900390625,0.42266310225725173,0.5648106425225734,0.021037235070765017
1733751488318449000,1.438448974609375,0.26033961992561816,0.505215128737688,-0.062065118768811225
1733751488328424000,1.448423828125,0.07718377744555473,0.48167701676189895,0.10214636926651001
1733751488338400000,1.45839990234375,-0.17717603741809726,0.4754360765457153,0.4088385750442743
1733751488348376000,1.4683759765625,-0.5557390089251101,0.5024216986268758,0.5301993478685617
1733751488358352000,1.478351806640625,-0.9901974706552922,0.5979670621931552,0.5329197127431631
1733751488368327000,1.488326904296875,-1.1461414810828865,0.6214356160640716,0.5524436206415295
1733751488378302700,1.498302734375,-1.0959354346729815,0.5191536377191543,0.4654354915350675
1733751488388279000,1.508279052734375,-0.8551140235573053,0.3879746507138014,0.44471535958945746
1733751488398254800,1.5182548828125,-0.7380396958805621,0.2709352482199669,0.5874962293222546
1733751488408231000,1.52823095703125,-0.5068872997336089,0.207657246530056,0.6384554321870207
1733751488418206000,1.5382060546875,-0.16131342850625513,0.17885902206897736,0.7441419582784176
1733751488428181800,1.548181640625,0.19811229633241892,0.17984277240931987,0.8443968147099018
1733751488438158000,1.558157958984375,0.4058303331390023,0.2186491806656122,0.5565846659690141
1733751488448134000,1.5681337890625,0.35030133814066644,0.4312736942142248,0.22696254324167967
1733751488458109000,1.57810888671875,0.18207988381162285,0.4587760336458683,0.02254763963371515
1733751488468084700,1.588084716796875,-0.07304696990177034,0.33838673620223997,0.24787206027954814
1733751488478061000,1.59806103515625,-0.13633505459427833,0.3588993628770113,0.6177464061573147
1733751488488036900,1.608036865234375,-0.09169044170379638,0.4128437190324068,0.7543561860397457
1733751488498012000,1.618011962890625,0.06974646705165505,0.49261459036171434,0.6201037829384207
1733751488507988000,1.627988037109375,0.22820041447356343,0.5108990195930004,0.46236529030948875
1733751488517963800,1.6379638671875,0.4315136404499411,0.46750352998077865,0.4515744317039847
1733751488527940000,1.647940185546875,0.5369768791794777,0.4274176033079624,0.6205275613084436
1733751488537915000,1.657914794921875,0.42190643867105243,0.3431570193439722,0.5463721917733549
1733751488547891000,1.667890869140625,0.10491904885023831,0.29615152254104615,0.37687194968014953
1733751488557866800,1.67786669921875,0.0462152232080698,0.34538463226556776,0.23824936867058275
1733751488567843000,1.687843017578125,0.26018822875618935,0.2943050178915262,0.09335282195806503
1733751488577817900,1.69781787109375,0.6511253825373947,0.18565525808036326,0.21882921340763567
1733751488587794000,1.7077939453125,1.129987341878563,0.12143792971372604,0.5902618946433067
1733751488597770000,1.71777001953125,1.3776048428751528,-0.0032961189359426496,0.6261655671954155
1733751488607745800,1.727745849609375,1.3758125526309013,-0.13862579587996005,0.6311024390757084
1733751488617720800,1.737720947265625,1.241151130337268,-0.19715455721616743,0.6690852559894322
1733751488627697000,1.74769677734375,1.114724306295067,-0.15238193403184414,0.6935100876718759
1733751488637673000,1.7576728515625,0.8789332905620336,-0.014466332247853278,0.45175767931640143
1733751488647648800,1.767648681640625,0.7274526892840861,0.021385902377963065,-0.20572715525031088
1733751488657624800,1.777624755859375,0.6256336522758007,0.040894904968142506,-0.664382192865014
1733751488667600000,1.787599853515625,0.4902463999256491,0.20600129601657388,-0.5780097313135862
1733751488677576000,1.797575927734375,0.4490555807508528,0.3746972359895706,-0.30975276239216326
1733751488687552000,1.807552001953125,0.2412165479131043,0.5422662177592515,-0.039811785906553265
1733751488697527800,1.81752783203125,0.1514054902151227,0.6373030472815037,0.2674918297678232
1733751488707502800,1.8275029296875,0.16564079018607736,0.7136456977277994,0.3073597297757864
1733751488717479000,1.83747900390625,0.07826338937580585,0.7719821513622999,0.2030868698745966
1733751488727455000,1.847455078125,-0.06678425624519586,0.7664625111579895,-0.10276245533823966
1733751488737430800,1.8574306640625,-0.21007176032587885,0.6503957530885934,-0.3522363978564739
1733751488747406000,1.867406005859375,-0.2353629995793104,0.4975485396325588,-0.43348903217613693
1733751488757382000,1.8773818359375,-0.35949747490063305,0.4908610246926546,-0.5453384648114442
1733751488767358000,1.88735791015625,-0.5570499453932046,0.46093934915959833,0.032926118046045304
1733751488777334000,1.897333984375,-0.8747701795332133,0.43892976192533967,0.5175660762667655
1733751488787309000,1.90730908203125,-1.0995708685658871,0.46749593119621274,0.36314474536180497
1733751488797284900,1.917284912109375,-1.072176081161946,0.4542775531828403,0.41825288459956644
1733751488807261000,1.927260986328125,-0.8608858849570155,0.40396950770318507,0.6191197403371334
1733751488817237000,1.937237060546875,-0.566379060883075,0.3046463791638613,0.6140349844187498
1733751488827212300,1.94721240234375,-0.06908917218670249,0.17856266947090624,0.4625573057502508
1733751488837188400,1.957188232421875,0.40036534573137755,0.0029909985095262527,0.23671090705692766
1733751488847164200,1.9671640625,0.5070676247365773,-0.21331424937844276,0.07815291473865509
1733751488857140200,1.97714013671875,0.41968218675032254,-0.3280903831154108,0.11958324175775051
1733751488867115300,1.987115234375,0.43664252777099605,-0.36244273457229137,0.2853220854908228
1733751488877091000,1.997091064453125,0.38786943677365776,-0.46150049017369743,0.2254243738889694
1733751488887067400,2.0070673828125,0.1090321832574904,-0.45320144838392734,0.20435703594088553
1733751488897043200,2.017043212890625,-0.37414530119523404,-0.3800654850244522,0.4715010751843452
1733751488907019300,2.027019287109375,-0.5166331793308258,-0.2141273193269968,0.8983148673802613
1733751488916994300,2.036994384765625,-0.4227151247054338,-0.12906769393980502,0.8882920705378055
1733751488926970400,2.046970458984375,-0.12117957103848456,-0.11546411600112914,0.5595423467308283
1733751488936946200,2.0569462890625,0.2175428268589079,-0.26874504469931126,0.05605623374283313
1733751488946922200,2.066922119140625,0.5187577702693641,-0.4144371257036924,-0.09586392799615859
1733751488956897300,2.076897216796875,0.6809938665784895,-0.5033861597448587,-0.09851999546289443
1733751488966873000,2.086873046875,0.5262180231474339,-0.5504384182989597,0.015022797086834907
1733751488976849400,2.096849365234375,0.2999363017767668,-0.49808337716162204,0.36173254047632214
1733751488986825200,2.1068251953125,0.004372223734855652,-0.4227332448840141,0.56959144705832
1733751488996800300,2.11680029296875,-0.07369476628601551,-0.474058358451724,0.5414134003221989
1733751489006776300,2.1267763671875,0.12207520470395683,-0.5832160677850247,0.545292287582159
1733751489016752000,2.136752197265625,0.37960955795049667,-0.6965104385316372,0.4555366133332252
1733751489026728200,2.146728271484375,0.3389700890481472,-0.7314303607434034,0.44874622254073615
1733751489036703200,2.156703125,0.23687881096974014,-0.6092302144855261,0.616007745796442
1733751489046679300,2.16667919921875,0.03333016880229115,-0.5480629213392734,0.6496797137737274
1733751489056655000,2.176655029296875,-0.035304537615180015,-0.6781868463337422,0.4499608590275049
1733751489066631400,2.18663134765625,0.10326689772903919,-0.8201987775206565,0.273814603048563
1733751489076606200,2.196606201171875,0.23288988746404646,-0.8438678223997355,0.3586632160335779
1733751489086582300,2.206582275390625,0.4282020316839218,-0.8924117808163166,0.4292249449908733
1733751489096558300,2.216558349609375,0.4877969609469175,-0.9144862499803305,0.5595902775257825
1733751489106534100,2.2265341796875,0.5037738438881934,-0.8833049297749995,0.7635591909319162
1733751489116509200,2.23650927734375,0.5467572455681861,-0.9632418053209781,0.6443605645775795
1733751489126485000,2.246485107421875,0.7313865946669131,-1.0515963806003332,0.39643502054512497
1733751489136461300,2.25646142578125,0.8895810143698006,-1.024841060143709,0.45005438252985475
1733751489146437000,2.26643701171875,0.6378952410209924,-0.8967010024428367,0.3095850046098232
1733751489156412200,2.276412109375,0.25868374247737225,-0.7678180174201726,-0.02597323016822338
1733751489166388200,2.28638818359375,0.0021061054337769745,-0.6209352653264999,0.2481032386869192
1733751489176364300,2.2963642578125,-0.2701525734096765,-0.5259849450439215,0.5310188475579023
1733751489186340400,2.30634033203125,-0.26624782105609773,-0.5132774391621351,0.5301134231507778
1733751489196316200,2.316316162109375,-0.09972761768698692,-0.4508797274380922,0.5029080208390951
1733751489206291200,2.326291259765625,0.23009704187512398,-0.42114159177839755,0.5340694673001766
1733751489216267000,2.33626708984375,0.5968098549820482,-0.5816811133027077,0.28327801244258877
1733751489226243300,2.346243408203125,0.9453069201797246,-0.8798100733965635,-0.20813012473881243
1733751489236219100,2.35621923828125,1.3063247365154325,-1.035147350102663,-0.6080044720828532
1733751489246194200,2.366194091796875,1.4320646012067795,-1.0286883832216263,-0.5207978977948426
1733751489256170200,2.376170166015625,1.3260380295060574,-0.9461661673575639,-0.19919453861117362
1733751489266146300,2.386146240234375,1.0966405142024158,-0.8161439491719007,0.23306232142150402
1733751489276122400,2.396122314453125,0.8571494749076664,-0.6652081222951411,0.3076350395858288
1733751489286097400,2.406097412109375,0.5661373610816895,-0.5711433526754379,0.1508843889504671
1733751489296073200,2.4160732421875,0.19219006667658686,-0.546711506730318,-0.0039344168394804
1733751489306049000,2.426049072265625,0.049194969671219585,-0.411881011480093,-0.1810965718626976
1733751489316025300,2.436025390625,-0.05936755024790764,-0.19538345589041708,-0.24899112743735313
1733751489326000000,2.446000244140625,-0.21988135280907153,-0.02069499750435352,-0.15444178917109966
1733751489335976200,2.45597607421875,-0.28189386460781096,0.020069559082388878,-0.019359364986419676
1733751489345952300,2.4659521484375,-0.28271818660274145,0.1473036078542471,0.15240765299499034
1733751489355928000,2.475927978515625,-0.07833060939311981,0.2658329566448927,0.2211731461852789
1733751489365903000,2.485903076171875,0.10008359151780605,0.2771568992137909,0.21309037749469278
1733751489375879200,2.495879150390625,0.2561731478959322,0.1563514221847057,-0.008239420557022094
1733751489385855200,2.505855224609375,0.2689246390499174,0.010447159734368324,-0.08599252232313155
1733751489395831000,2.5158310546875,0.23060528365820646,-0.0022831425011157988,-0.043451603713631624
1733751489405806300,2.525806396484375,0.011582885766029357,0.036301731958985325,0.05083469970226288
1733751489415782100,2.5357822265625,-0.16215324033126233,0.03242050661146641,-0.038116087904572486
1733751489425758200,2.54575830078125,-0.22830372871756552,0.0139817636013031,-0.09061667499244212
1733751489435734300,2.555734375,-0.23667481283023953,0.05748831237256526,-0.08356091126203537
1733751489445709300,2.565709228515625,0.007761573912203311,0.06927402723431587,-0.04228606706559658
1733751489455685000,2.57568505859375,0.31233766431882976,0.031515082204341884,0.14297113160789013
1733751489465661200,2.5856611328125,0.43083778701499104,0.03426058152019977,0.24822365019619463
1733751489475637200,2.59563720703125,0.41957229663506146,0.03281155175566673,0.21698738493323325
1733751489485612000,2.605612060546875,0.20549816880002617,0.04406476717591285,0.09002396979629992
1733751489495588400,2.61558837890625,-0.022588848426938056,0.10580898342728615,0.01926291887462139
1733751489505564200,2.625564208984375,-0.08503653677254915,-0.04327683166861534,-0.03645078504085541
1733751489515540200,2.635540283203125,-0.16587372215911744,-0.26703356460630895,0.11325579230189323
1733751489525516300,2.645516357421875,-0.16245470749586818,-0.32856676845550536,0.43877720171213147
1733751489535491300,2.6554912109375,-0.06443535503149032,-0.3825701613217592,0.624476883456111
1733751489545467100,2.665467041015625,0.07741758620142936,-0.35633915700018404,0.5476467417538166
1733751489555443200,2.675443115234375,0.3102450759537518,-0.29380642071962354,0.44674423506855965
1733751489565419300,2.685419189453125,0.448280358594656,-0.21433248651027678,0.5249690459996461
1733751489575394000,2.69539404296875,0.5318523757725954,-0.20256547634899616,0.48673079302012917
1733751489585370400,2.705370361328125,0.6331967810064554,-0.33722003051042554,0.28545360291600225
1733751489595346200,2.71534619140625,0.7891986591011285,-0.6507745232731104,-0.10233575435876846
1733751489605322200,2.725322265625,0.862194044946134,-0.8545265790581703,-0.29677053122222424
1733751489615297300,2.73529736328125,0.9002864597141742,-0.9879226575911044,-0.12141045718491077
1733751489625273300,2.7452734375,0.7942939364135265,-1.0091817187190055,0.18290683615505693
1733751489635249200,2.755249267578125,0.6565691810265183,-0.8809639196068048,0.4776233574569225
1733751489645225200,2.76522509765625,0.42925913952142,-0.7784113076269626,0.44767947009205816
1733751489655200300,2.7752001953125,0.2264659918963909,-0.6748030491143464,0.2106669497400522
1733751489665176000,2.785176025390625,0.1549633288271725,-0.6680640962481499,0.022241642424464223
1733751489675152400,2.79515234375,0.08316226733326912,-0.6388619671612977,-0.003958966758847236
1733751489685128200,2.805128173828125,0.028943185889720915,-0.5871382096648216,0.13793255291879175
1733751489695103200,2.815103271484375,0.11689794819653034,-0.6192050805330276,0.28762276364862915
1733751489705079300,2.825079345703125,0.3820940682426095,-0.8262035708934068,0.28324118756353855
1733751489715055000,2.83505517578125,0.5405281419202685,-0.9657067341297865,0.28066929124891754
1733751489725031200,2.84503125,0.5940381983116269,-0.9227987357735633,0.3465630283951759
1733751489735006200,2.855006103515625,0.6504068590044975,-0.7285644499182701,0.4794049801766872
1733751489744982300,2.864982177734375,0.5709335093170405,-0.570695608907938,0.4968418526679277
1733751489754958000,2.8749580078125,0.47782501750886436,-0.483331213709712,0.29287352378368375
1733751489764934400,2.884934326171875,0.3362637526988983,-0.3481733862012625,0.12622925564348697
1733751489774909200,2.8949091796875,0.2719245515182614,-0.1970651253670454,0.07590075189769267
1733751489784885200,2.90488525390625,0.3559735385581851,-0.2507043610960245,-0.08460720544457435
1733751489794861300,2.914861328125,0.5083586874604225,-0.45106268278956413,-0.19775953737199306
1733751489804837000,2.924837158203125,0.5941396128594875,-0.6991513084292411,-0.11047931332588196
1733751489814812200,2.934812255859375,0.6248954011291266,-0.8160691303700208,0.2230067913532257
1733751489824787500,2.944787353515625,0.6792980224460363,-0.7203904958128928,0.5232558123409747
1733751489834763500,2.954763427734375,0.7678177251592277,-0.4956050043493509,0.904973740747571
1733751489844739300,2.9647392578125,0.7326695471495389,-0.399722956174612,1.0323860686957835
1733751489854715600,2.974715576171875,0.6262438931286335,-0.3899123407781124,0.7629980499178171
1733751489864690400,2.9846904296875,0.6045505322366953,-0.30603228056430815,0.6628536681234836
1733751489874666500,2.99466650390625,0.572611087140441,-0.3451800496041775,0.3224602682739496
1733751489884642300,3.004642333984375,0.29871815815865993,-0.46165889560580253,0.027640871119499207
1733751489894618600,3.01461865234375,0.11169394981265067,-0.3903641761988401,-0.15488251867592334
1733751489904593400,3.024593505859375,-0.02855477109402418,-0.1704699639081955,-0.37724487464576956
1733751489914569500,3.034569580078125,-0.17211890015900133,0.029368133303523062,-0.5793447793096304
1733751489924545500,3.044545654296875,-0.34165012191236016,0.2839180639117956,-0.45685412567257877
1733751489934521300,3.054521240234375,-0.40844811442196366,0.4082762649863958,-0.12811287743300198
1733751489944496400,3.064496337890625,-0.23506840054690836,0.2948532994240522,0.06561550472676754
1733751489954472400,3.074472412109375,0.38888416677415366,0.26741116574704643,0.3846075123682618
1733751489964448500,3.084448486328125,0.9900818814516067,0.05308160184621811,0.4310948305159807
1733751489974424300,3.09442431640625,1.3285878601193428,-0.11991934184432029,0.5225976406931877
1733751489984399600,3.104399658203125,1.1517863551020622,-0.11417349166870117,0.5308204023763538
1733751489994375400,3.11437548828125,0.7415870130985975,0.11070552329719066,0.48625937611609693
1733751490004351500,3.1243515625,0.414835185110569,0.3341273251920938,0.5238827120676637
1733751490014327600,3.13432763671875,0.27437340597510335,0.3492600123941898,0.38915655397474763
1733751490024302600,3.144302490234375,0.1612543917953968,0.2839227400869131,0.484711269891262
1733751490034278400,3.1542783203125,0.061464230266213414,0.2319213346928358,0.797950120833516
1733751490044254500,3.16425439453125,-0.05460077423751354,0.24518705897927282,0.7142813652828335
1733751490054230500,3.17423046875,-0.1776151594877243,0.30774142256975173,0.4013964423447847
1733751490064205300,3.184205322265625,-0.17407061874866483,0.49498424210250375,0.408785091291368
1733751490074181600,3.194181640625,-0.2718751594185829,0.7744038255512714,0.7035643025659024
1733751490084157400,3.204157470703125,-0.358148252248764,0.9223381325244903,0.6854957080423831
1733751490094133500,3.214133544921875,-0.48642742615938184,0.9550111525923013,0.5998028993181884
1733751490104108500,3.224108642578125,-0.6308902576297521,1.0330857413977383,0.46438159856796263
1733751490114084600,3.234084716796875,-0.8275567390680313,1.222056407636404,0.6015566111177205
1733751490124060400,3.244060302734375,-1.1075696122348309,1.4091905060976744,0.7676562509872019
1733751490134036500,3.254036376953125,-1.417956580877304,1.5928350088775156,0.7756846591420471
1733751490144011500,3.264011474609375,-1.4347767827749252,1.7117612480312585,0.40006855474188924
1733751490153987300,3.2739873046875,-1.273452248352766,1.6731237666010856,0.0707141430400312
1733751490163963600,3.283963623046875,-0.974419032895565,1.507292568409443,0.2036187847942114
1733751490173939500,3.293939453125,-0.5388999561965465,1.4585253226310013,0.4299200145829469
1733751490183914500,3.30391455078125,-0.7067074228972197,1.094722990143299,0.3436157959621399
1733751490193890600,3.313890625,-0.688444620975852,1.0897983932226896,0.09378894835300743
1733751490203866400,3.323866455078125,-0.6590168664395809,1.0149638092517852,-0.059127092555537816
1733751490213842400,3.333842529296875,-0.5620727419912814,0.813450472304225,-0.042079146316647525
1733751490223817500,3.3438173828125,-0.37126200084388256,0.5869768816232681,0.15422697737663985
1733751490233793500,3.35379345703125,-0.2711000833928585,0.4721949026674032,0.3768552908062935
1733751490243769300,3.363769287109375,-0.3735287767320871,0.517386043524742,0.36277675229962913
1733751490253745700,3.37374560546875,-0.4991150582969188,0.5083955123394728,0.3201919580157846
1733751490263720400,3.383720458984375,-0.6224655436336993,0.4695622160762548,0.15310560866389422
1733751490273696500,3.393696533203125,-0.5222364061653614,0.44135728133320806,0.08302402790635824
1733751490283672600,3.403672607421875,-0.3827537011951208,0.3282552182883024,0.1408324390787631
1733751490293648400,3.4136484375,-0.29404607469439503,0.19660510663986205,0.2836662811078131
1733751490303624400,3.42362451171875,-0.12630348992347717,0.15637129592895507,0.4757195331295952
1733751490313599500,3.433599609375,-0.04484101224541664,0.08382803776562213,0.4205613442050293
1733751490323575600,3.443575439453125,-0.03508125025331974,0.01285889705121517,0.2471493720281869
1733751490333551400,3.45355126953125,-0.07817512657046317,0.0346644861459732,0.07890764209609478
1733751490343527700,3.463527587890625,-0.21159633954465387,0.05807108069658279,-0.02390946603883058
1733751490353502500,3.47350244140625,-0.20509587160944937,0.014704817178845404,-0.09933852703785523
1733751490363478500,3.483478515625,-0.10916939977109431,0.04076572563052177,-0.13461756488559767
1733751490373454600,3.49345458984375,-0.01907820995748043,0.04894435591101646,-0.11076613091062754
1733751490383430400,3.503430419921875,0.084029697817564,-0.06625497167408466,-0.20641652575396
1733751490393405400,3.513405517578125,0.016700374910235405,-0.05423427901268005,-0.28494965371554715
1733751490403381500,3.523381591796875,-0.14876958875358104,0.08784311862587928,-0.210280452906806
1733751490413357600,3.533357666015625,-0.3982371015310287,0.25977497178018094,-0.19424758372828363
1733751490423333400,3.54333349609375,-0.5862737017899752,0.39872926896214483,-0.36750001796185966
1733751490433308400,3.553308349609375,-0.5507108054995536,0.4866162267297506,-0.40481750283464785
1733751490443284500,3.563284423828125,-0.2796048768877983,0.4885480715751648,-0.3072708459159359
1733751490453260500,3.573260498046875,-0.05421732787787914,0.42465281476974487,-0.22633420047657563
1733751490463236600,3.583236572265625,-0.03585457271337509,0.3768137897521257,-0.21608236238490788
1733751490473211600,3.593211669921875,-0.08319792316854,0.387024218121171,-0.1640936520756222
1733751490483187500,3.6031875,-0.14179332000017164,0.4015694608241319,-0.13065941097750328
1733751490493163500,3.61316357421875,-0.30744916162490843,0.3457306692242622,-0.11532826946070417
1733751490503139600,3.6231396484375,-0.35282208878993987,0.3310340353518724,0.08693767595244571
1733751490513114400,3.6331142578125,-0.17818039215505121,0.2475625559389591,0.26063732423055913
1733751490523090400,3.64309033203125,-0.017027122646570206,0.1221148060619831,0.2250707929446362
1733751490533066500,3.65306640625,0.11600070709586142,0.011214052453637123,0.20824171362081542
1733751490543042300,3.663042236328125,0.12448445780277251,-0.027359716090559958,0.27653801839677616
1733751490553017300,3.673017333984375,0.15389818381369114,0.01265197630226612,0.39623295863438396
1733751490562993400,3.682993408203125,0.1776794568955898,0.07055413017272949,0.6017972149405628
1733751490572969500,3.692969482421875,0.10346154351830482,0.12616788084506989,0.5835115070676431
1733751490582945500,3.702945556640625,0.05159457815885544,0.19279460844099522,0.4862626640517264
1733751490592920600,3.712920654296875,-0.08704173911511898,0.3712818745881319,0.38523744430225343
1733751490602896400,3.722896484375,-0.21635434772670267,0.5941337676405907,0.3406796329123899
1733751490612872400,3.73287255859375,-0.20173662430942058,0.6840647984564304,0.3077406553847715
1733751490622848500,3.7428486328125,-0.18141221368312835,0.7046078202694654,0.3359336074290797
1733751490632823600,3.752823486328125,-0.18172317932844162,0.8527484634697436,0.4776604015316814
1733751490642799400,3.76279931640625,-0.24008944357931614,1.032254551270604,0.5612031926151365
1733751490652775400,3.772775390625,-0.45801849327683447,1.267631579375267,0.5447238400444389
1733751490662751500,3.78275146484375,-0.7030190897732973,1.3494833486318587,0.4882607060011476
1733751490672726300,3.792726318359375,-0.9053957655519247,1.3180068448722362,0.5198010322446003
1733751490682702600,3.80270263671875,-1.1714303822487593,1.3913164112329481,0.5745929086074233
1733751490692678400,3.812678466796875,-1.304970837688446,1.5026415277332066,0.4476469560619443
1733751490702654500,3.822654541015625,-1.3258470369786024,1.4968641133755445,0.3017415976330638
1733751490712630500,3.832630615234375,-1.3090788575291632,1.5625889236956834,0.27228059841431673
1733751490722605600,3.84260546875,-1.253615913504362,1.5691478438198565,0.40628209549449384
1733751490732581400,3.852581298828125,-0.9940227280318736,1.5036252780735493,0.5327419450234622
1733751490742557400,3.862557373046875,-0.596872837215662,1.3008879522889851,0.6054276073321699
1733751490752532500,3.872532470703125,-0.35322307080626486,1.1157838983505963,0.6228565887778997
1733751490762508300,3.88250830078125,-0.27592998776733874,0.9963450334995985,0.5807420788869262
1733751490772484600,3.892484619140625,-0.30162849264740943,0.8673077346980571,0.6066514500387012
1733751490782460400,3.90246044921875,-0.43901042594611644,0.756649557673931,0.7747282352000474
1733751490792436500,3.9124365234375,-0.5224515102207661,0.6038730713665486,0.9516488365523517
1733751490802411500,3.92241162109375,-0.5061965409904718,0.3761193777471781,1.1457380148485303
1733751490812387600,3.9323876953125,-0.46440147231221196,0.17667232567965982,1.3031519516982137
1733751490822364400,3.942364501953125,-0.36447394813895223,0.029494390031695364,1.309427378705889
1733751490832340200,3.95234033203125,-0.29157120901346206,-0.19785832157135008,1.1377448241375385
1733751490842315300,3.962315185546875,-0.35310149025321,-0.19890461575388907,1.096504028341174
1733751490852291300,3.972291259765625,-0.43065527005493637,-0.2044897224098444,1.0877154494687915
1733751490862267100,3.98226708984375,-0.41738837672471996,-0.20052140330076215,0.960222749760747
1733751490872243500,3.992243408203125,-0.3383762148082256,-0.15052490798830986,0.8204501219332218
1733751490882218200,4.00221826171875,-0.1330155547827482,-0.13423545196652412,0.6575719283282756
1733751490892194300,4.0121943359375,0.020194646766781805,-0.20894903990626335,0.45842064433693885
1733751490902170400,4.02217041015625,0.08970540536642074,-0.18738485835194588,0.34299072286635635
1733751490912146400,4.032146484375,-0.04916705875098705,-0.07466916427612304,0.35194968986958264
1733751490922121200,4.042121337890625,-0.3262485546410084,0.03439794416427612,0.4916840315133333
1733751490932097300,4.05209716796875,-0.35746845329105853,0.16569325102567672,0.5818465329974889
1733751490942073300,4.0620732421875,-0.2792325364440679,0.13109656941890716,0.5495838472962379
1733751490952049200,4.072049072265625,-0.1740735413581133,0.10325111563801764,0.41659634956419467
1733751490962024200,4.082024169921875,-0.02946750202476978,0.10083353310227393,0.2244853394731879
1733751490972000300,4.092000244140625,0.029044308176636693,0.09379121337532996,0.12217998025268316
1733751490981976300,4.101976318359375,0.03625146307647228,0.1336129361540079,0.14974983196258543
1733751490991952400,4.111952392578125,-0.03518120349645614,0.2210287692785263,0.16031915677189826
1733751491001927400,4.121927490234375,-0.06497077708244324,0.2709206351727247,0.09111527216434478
1733751491011903200,4.1319033203125,-0.10202537323534489,0.30027298638522626,0.2575187172859907
1733751491021879300,4.14187939453125,-0.20222382330447433,0.36028935593068595,0.3326403015047312
1733751491031855400,4.15185546875,-0.2395721417069435,0.4097141888350248,0.3109054395586252
1733751491041830400,4.161830322265625,-0.3162514767616987,0.40350247471332545,0.33928923799991606
1733751491051806200,4.17180615234375,-0.407705187100172,0.389333079585433,0.44388884563744063
1733751491061782300,4.1817822265625,-0.3231049959182739,0.30897008758187294,0.5657528918087482
1733751491071758300,4.19175830078125,-0.2337947273492813,0.13706103078126908,0.5096721081465483
1733751491081733000,4.201733154296875,-0.07791559885144234,0.021958733829855918,0.3244166630387306
1733751491091709400,4.21170947265625,0.0818728120446205,-0.10556991397440432,0.15181903945207595
1733751491101685200,4.221685302734375,0.15802695418149232,-0.24427929648458957,-0.1007692356944084
1733751491111661300,4.231661376953125,0.0629836949184537,-0.271477684533596,-0.1363444069445133
1733751491121636400,4.24163623046875,-0.01544832902252674,-0.24479016861617564,0.13923954386413095
1733751491131612400,4.2516123046875,-0.020958909137547013,-0.2956722145915031,0.517283752194047
1733751491141588200,4.261588134765625,-0.02289718372374773,-0.4114852901607752,0.6496902351677417
1733751491151564300,4.271564208984375,-0.1351703947290778,-0.47593467371761794,0.678392013517022
1733751491161539300,4.281539306640625,-0.24825609116107225,-0.36421266685426235,0.7230167526632547
1733751491171515100,4.29151513671875,-0.2361298922985792,-0.12982757239639758,0.7316507254958152
1733751491181491500,4.301491455078125,-0.17558540722578764,-0.00046878655552864073,0.6264671804904938
1733751491191467300,4.31146728515625,0.01826777035742998,0.1275304013699293,0.4708201071828603
1733751491201442300,4.3214423828125,0.2121595263853669,0.18710779497623442,0.2579717217504978
1733751491211418400,4.33141845703125,0.2067062294155359,0.19548516269922256,0.028535774132609364
1733751491221394200,4.341394287109375,0.09651479312032461,0.24181261411011218,-0.1577162807971239
1733751491231370200,4.351370361328125,-0.10313625708669423,0.16983984931111334,-0.06947568728625773
1733751491241345300,4.36134521484375,-0.2848839863345027,0.15747779586613178,0.1353390292942524
1733751491251321300,4.3713212890625,-0.34485943934768437,0.22210136694610116,0.20524317112565038
1733751491261297200,4.381297119140625,-0.3318403832986951,0.29829028813540936,0.16162556319534777
1733751491271273500,4.3912734375,-0.17157997097671032,0.32953999740183354,0.15684534318149088
1733751491281248300,4.401248291015625,-0.05335282000303268,0.289350025832653,0.03686404201686382
1733751491291224300,4.411224365234375,-0.07389291920661926,0.2601414670050144,-0.06962707845568657
1733751491301200400,4.421200439453125,0.013417407716810702,0.144200381141901,0.028975334593653677
1733751491311176200,4.43117626953125,0.06727028619647026,0.046294718185067175,0.31235856097638603
1733751491321151200,4.441151123046875,0.07692205776944756,0.022819734573364257,0.6055079790920018
1733751491331127300,4.451127197265625,0.16039222200810907,0.05100421105027198,0.7477607332974672
1733751491341103400,4.461103271484375,0.2888482137903571,0.012592939591407774,0.6433014109134674
1733751491351079200,4.4710791015625,0.47755263030827044,-0.13709668661653995,0.4304723147034645
1733751491361054500,4.481054443359375,0.643479397828877,-0.30342706650197504,0.3834674024224281
1733751491371030300,4.4910302734375,0.6482885516762733,-0.5206248793154955,0.4128653463423252
1733751491381006300,4.50100634765625,0.6444903284370899,-0.6733411598682403,0.6153618491083384
1733751491390982400,4.510982421875,0.6056599547833204,-0.8248667693316936,0.6381722313314676
1733751491400957400,4.52095751953125,0.5369125817716122,-1.0641869821041823,0.49861763016879557
1733751491410933200,4.530933349609375,0.39580373690426346,-1.0838099664628504,0.6041711775302887
1733751491420909300,4.540909423828125,0.28196941406205295,-0.9113345079511403,0.7729489505678415
1733751491430885400,4.550885498046875,0.34568653782159087,-0.9189543353050946,0.6457312684088945
1733751491440860200,4.560860107421875,0.45387949377596376,-1.0017278955817221,0.4511643895983696
1733751491450836500,4.57083642578125,0.5878253151461482,-1.010857542976737,0.3865343887776136
1733751491460812300,4.580812255859375,0.6530040358908474,-1.0238409431904554,0.3856716344684362
1733751491470788400,4.590788330078125,0.6827671598613262,-0.9768068048149346,0.5311754994243383
1733751491480763100,4.60076318359375,0.6557536268599331,-0.8470581428736448,0.7874532767385244
1733751491490739500,4.610739501953125,0.5386345832586288,-0.7877507983803749,0.84911858253479
1733751491500715300,4.62071533203125,0.4617971350327134,-0.869758634981513,0.8145569722414017
1733751491510691300,4.63069140625,0.492859505033493,-0.9691489835381507,0.6538818416386842
1733751491520666400,4.640666259765625,0.5583047677598894,-0.9134802878081798,0.5880149924993515
1733751491530642200,4.65064208984375,0.7176121171407401,-0.8920803569048643,0.47352702805399893
1733751491540618500,4.660618408203125,0.9264917450726031,-0.9478279630899429,0.2912988218128681
1733751491550594300,4.67059423828125,0.9790117675133049,-0.8761725936770438,0.12229483880400657
1733751491560569300,4.6805693359375,0.7877866003461181,-0.7315852590441704,0.22045827591419218
1733751491570545200,4.690545166015625,0.5888461826264858,-0.6147533618211746,0.42378129263222214
1733751491580521500,4.700521484375,0.5303125989846885,-0.567498858693242,0.3616308336675167
1733751491590497300,4.710497314453125,0.5076667596735059,-0.49578152996003627,0.21101883191764353
1733751491600472300,4.720472412109375,0.5344679650984704,-0.5757008698493242,0.0008633388310670852
1733751491610448400,4.730448486328125,0.49481136975362894,-0.704988928541541,-0.15005378334522246
1733751491620424200,4.740424072265625,0.5698556509524584,-0.773999920925498,-0.20635259367227554
1733751491630400500,4.750400390625,0.5711809082068503,-0.7763204728275537,-0.22356267167031763
1733751491640376300,4.760376220703125,0.5029566822864115,-0.6404425143510103,-0.10020634111464023
1733751491650351400,4.770351318359375,0.5459491440556943,-0.5359656563103199,-0.06282967340052127
1733751491660327200,4.7803271484375,0.6348118149876594,-0.6354577116757631,-0.23899814121127128
1733751491670303200,4.79030322265625,0.6261136908777057,-0.7091092233419418,-0.3287228358000517
1733751491680278300,4.8002783203125,0.6459403811149299,-0.6057236676692962,-0.07619944258332252
1733751491690254300,4.81025439453125,0.506902205041796,-0.4282148911654949,0.28263153123259543
1733751491700230400,4.82023046875,0.3186860104322433,-0.32811376399099823,0.3283645238816738
1733751491710206200,4.830206298828125,0.2816805141180754,-0.29395956545472146,0.09392682245373725
1733751491720182500,4.8401826171875,0.37584932863414283,-0.2572609431326389,-0.014710077875852583
1733751491730157300,4.8501572265625,0.5579338886208832,-0.3412169911921024,-0.005550035342574119
1733751491740133400,4.86013330078125,0.6906770562030374,-0.5364584082633257,0.022072131076455115
1733751491750109200,4.870109130859375,0.6089286011904478,-0.6329109498023986,0.1489408536672592
1733751491760085200,4.880085205078125,0.47105274689495563,-0.5786503673046827,0.3067436437040567
1733751491770060300,4.890060302734375,0.3015620032824576,-0.476346761649847,0.43099546179473397
1733751491780036000,4.9000361328125,0.1399614283978939,-0.375099387049675,0.4396820415973663
1733751491790012400,4.910012451171875,0.08979133008420467,-0.2601724466651678,0.4766267476350069
1733751491799988200,4.91998828125,0.13067922078967092,-0.15327391443550586,0.4038572795003652
1733751491809963300,4.92996337890625,0.1701487691298127,-0.016098317363858222,0.19694354481399057
1733751491819939300,4.939939208984375,0.3051362085074186,-0.0776952340990305,-0.1241974575549364
1733751491829915100,4.9499150390625,0.5670033302612603,-0.35450258922278877,-0.2875666495472193
1733751491839891000,4.959890869140625,0.8781190515697002,-0.7735130141913891,-0.28573592698872086
1733751491849866200,4.9698662109375,0.7797954554617404,-1.1193062272578478,0.0712812754034996
1733751491859842000,4.979842041015625,0.4502443521440029,-1.1736679320424794,0.6582037964910269
1733751491869817900,4.98981787109375,0.09636194064617157,-0.9628215340822934,1.1647007817327975
1733751491879794200,4.999794189453125,-0.13497574893981218,-0.6557517271637916,1.148431783977151
1733751491889769000,5.00976904296875,-0.1360163440339267,-0.36175241422057147,0.5823468837350606
1733751491899745000,5.0197451171875,-0.006232172387838363,-0.23659341815710067,0.044316111588478084
1733751491909721000,5.02972119140625,0.22764438802599907,-0.28395079713761806,-0.3053898910075426
1733751491919697200,5.039697265625,0.920725436630845,-0.36058278591930865,-0.6443810228437185
1733751491929672000,5.049671875,1.5185178729094564,-0.7408692202180623,-0.8120376828968524
1733751491939648300,5.059648193359375,1.4873910593703388,-1.104404426202178,-0.450648841291666
1733751491949624000,5.0696240234375,0.9611611996546388,-1.0808534547448159,0.1440916600704193
1733751491959599900,5.079599853515625,0.6568003594338894,-0.8082564107924699,0.2763105115175247
1733751491969575200,5.0895751953125,0.5023147311210632,-0.7961088768810033,0.11923135958015918
1733751491979551000,5.099551025390625,0.342016032615304,-0.9047527914732694,0.19468962840735912
1733751491989527000,5.109527099609375,0.3622992344483733,-0.9728753105849027,0.47094168773591516
1733751491999503000,5.119503173828125,0.6460545090138912,-1.0547574749797581,0.6265449219018221
1733751492009478100,5.12947802734375,0.9445698380768298,-1.1514186908334494,0.5974076747447252
1733751492019454000,5.139453857421875,0.9883753697946667,-1.1722551426351069,0.519631776624918
1733751492029430300,5.14943017578125,0.6597746990695595,-0.953544002649188,0.5381646276593208
1733751492039406000,5.159406005859375,0.24298925667405127,-0.4651736257284879,0.5618488701075315
1733751492049381000,5.169381103515625,0.01701513994783163,0.02561199564039707,0.49324528948068613
1733751492059357200,5.179357177734375,-0.43877837075591086,0.09195698368549346,0.27332477370500563
1733751492069333000,5.1893330078125,-0.5183665789946913,0.522567245554924,0.14694003523886204
1733751492079309000,5.19930908203125,-0.5040726807042956,0.8176981928765773,0.04592588487267494
1733751492089283800,5.209283935546875,-0.28346476718634367,0.6303852307170629,-0.31535540470480916
1733751492099260200,5.21926025390625,-0.024224925196170807,0.19603753588497638,-0.5788672249257564
1733751492109236000,5.229236083984375,0.4712845098242163,-0.09396715446412562,-0.5200117158532143
1733751492119212000,5.2392119140625,0.9001455899387597,-0.4339093034148216,-0.10545242507457732
1733751492129187000,5.24918701171875,0.8907032233327626,-0.6302940453022718,0.3483487427681684
1733751492139163100,5.2591630859375,0.5301172225430607,-0.393335300964117,0.8053864083141088
1733751492149139200,5.26913916015625,0.0321767609834671,0.0916419263869524,1.280496029384434
1733751492159115000,5.279114990234375,-0.42432548251152036,0.4940332249879837,1.4863827591106296
1733751492169090000,5.289090087890625,-0.8793284273594617,0.5909434471666812,1.137139113329351
1733751492179065900,5.29906591796875,-1.1279980677574872,0.6754454386711121,0.5802972577288746
1733751492189042200,5.309042236328125,-1.0324310768812894,0.7261655720829964,0.18324147493690252
1733751492199018000,5.31901806640625,-0.7961831111609935,0.7061871984153986,-0.11652473096996545
1733751492208993000,5.328992919921875,-0.45351738246530293,0.6403484063267707,-0.4012020888164639
1733751492218969000,5.338968994140625,-0.08898176726698875,0.583757919576764,-0.5213838809892535
1733751492228945000,5.34894482421875,0.1014098716855049,0.44329964757263657,-0.5236000957340001
1733751492238921200,5.358921142578125,0.17156418888568878,0.2835170818954706,-0.3102031365081668
1733751492248896000,5.36889599609375,0.26926819179058076,0.22214286800026892,0.056878948302567005
1733751492258872000,5.3788720703125,0.47554830474853516,0.11962649637758731,0.375604706223309
1733751492268847900,5.388847900390625,0.6082426647529006,0.0030079496443271635,0.48937604683190583
1733751492278824200,5.39882421875,0.5638333219230175,-0.08947802635133266,0.4948194069296121
1733751492288799000,5.408799072265625,0.4664689262360334,-0.1952916859537363,0.33445085805803537
1733751492298775000,5.418775146484375,0.2697548062637448,-0.19824001436531544,0.37055999005436896
1733751492308751000,5.428751220703125,0.09777414553165435,-0.1582861896395683,0.6369885745048522
1733751492318727000,5.438726806640625,-0.04959668233990669,-0.17031272751986978,0.7555182155564427
1733751492328702000,5.448701904296875,-0.1969686792552471,-0.06405833841264248,0.7369733818233013
1733751492338678000,5.458677978515625,-0.21636779173016546,0.027843115693330762,0.5679208834975957
1733751492348654000,5.468654052734375,-0.10770692600309849,0.12011691024303435,0.5565288441285491
1733751492358630000,5.4786298828125,-0.11597557265460491,0.1260802025616169,0.5496637806646526
1733751492368605200,5.488605224609375,-0.0405573435768485,0.36968437626361844,0.589009848755598
1733751492378581000,5.4985810546875,0.08029080355018377,0.6523480562001467,0.5213939639918506
1733751492388557000,5.50855712890625,0.06279518660902976,0.6785100869387388,0.23417320527285337
1733751492398533000,5.518533203125,0.1454950971275568,0.6812731219112873,-0.08787278311178087
1733751492408508200,5.528508056640625,0.0888140094846487,0.7069406471312045,-0.4377950588069856
1733751492418484000,5.53848388671875,-0.15829846459925173,0.8697796777695417,-0.36629677965193985
1733751492428460000,5.5484599609375,-0.320896672219038,1.0545482161432504,-0.062048606025427576
1733751492438436000,5.55843603515625,-0.2651654326468706,1.1422229924648999,0.24423823382183907
1733751492448411000,5.568410888671875,-0.09918635041713714,0.9847089562416076,0.2838715944215655
1733751492458387200,5.57838720703125,-0.04025193088948727,0.8105939138293266,0.12377601727247238
1733751492468363000,5.588363037109375,-0.04079027554988861,0.7347621355146169,0.032762159655988214
1733751492478339000,5.598339111328125,-0.19040742104351518,0.7330623458594083,0.055057797290012235
1733751492488314000,5.608314208984375,-0.3779775728344917,0.7242793199449777,0.030402956243976948
1733751492498290200,5.618290283203125,-0.41327042001187797,0.6961725848793983,0.06539937775805592
1733751492508266000,5.628265869140625,-0.2720627909451723,0.6384422804445028,0.12940678970105945
1733751492518242000,5.638241943359375,-0.04346738580465317,0.5339186606526375,0.17496924808882175
1733751492528217000,5.648217041015625,0.09221651140451431,0.44192076043486594,0.07224405602104962
1733751492538193000,5.65819287109375,-0.08573942434489727,0.46461073114871976,0.08702873350307345
1733751492548169200,5.668169189453125,-0.2660661808788776,0.6155827983826399,0.19755499124322085
1733751492558145000,5.67814501953125,-0.25159108080267906,0.6153758776336908,0.199208530603908
1733751492568120000,5.6881201171875,-0.14838848048150538,0.48318449871540065,0.09064085958562791
1733751492578096000,5.69809619140625,-0.11027122353315352,0.3499316280454397,0.052684528820030385
1733751492588072000,5.708072021484375,-0.10039572620689868,0.260990777310729,0.002923486231267452
1733751492598048000,5.718048095703125,-0.12672960638105868,0.20035072290897368,0.022968604992143808
1733751492608023000,5.72802294921875,-0.16663257770240306,0.21611644731760024,0.07913878397084773
1733751492617999000,5.7379990234375,-0.21159633954465387,0.23903730417788027,0.10555743808532134
1733751492627975000,5.747974853515625,-0.25692776565551756,0.31060324174165727,0.09409576754616573
1733751492637951200,5.757951171875,-0.33350422485768794,0.3788105165272951,0.11274462790936231
1733751492647926000,5.767926025390625,-0.37773558077216146,0.4513824162632227,0.17316884760335086
1733751492657902000,5.777902099609375,-0.43926293940246103,0.5713192937642335,0.24557629575887693
1733751492667878100,5.787878173828125,-0.5222527727782726,0.6859358530253171,0.21996477504251524
1733751492677854000,5.79785400390625,-0.5845008468985557,0.7913438544362783,0.14579480159333907
1733751492687829000,5.8078291015625,-0.6586456950396299,0.9187146813303232,0.056719099832046774
1733751492697805000,5.81780517578125,-0.6188531983554363,1.0451385827630757,0.0481188009402249
1733751492707781000,5.827781005859375,-0.5452975482791662,1.054556399449706,-0.018546014193363953
1733751492717757000,5.8377568359375,-0.35795886715650554,1.026419269245863,-0.07176410418411251
1733751492727732000,5.84773193359375,-0.19221417820453643,0.9057663524299859,-0.01752758526528487
1733751492737708000,5.8577080078125,-0.18668869278132916,0.8113081995785236,0.11291419405629857
1733751492747684000,5.86768408203125,-0.16633271797299384,0.7148837150901556,0.23002803175952286
1733751492757660200,5.87766015625,-0.1999801360309124,0.5417611908465624,0.3968604794155806
1733751492767635200,5.88763525390625,-0.2520025842130184,0.44248657762408256,0.5193877387359738
1733751492777611000,5.897611083984375,-0.3258995950728655,0.38236733222603797,0.5574888482671231
1733751492787587000,5.907587158203125,-0.37839258337616916,0.3573375203877687,0.6265497442074119
1733751492797563100,5.917563232421875,-0.3610065642893314,0.47308571402728555,0.7866801004089414
1733751492807538000,5.927537841796875,-0.25569091733694077,0.5387713613808155,0.8406684418365359
1733751492817514000,5.937513916015625,-0.2404389876693487,0.5634136352062225,0.6693974637437612
1733751492827489300,5.9474892578125,-0.2681359728902578,0.7425590730011463,0.4367261144012213
1733751492837465300,5.95746533203125,-0.2969324437856674,0.845364198437333,0.3214162391137331
1733751492847440100,5.967440185546875,-0.3256336376130581,0.8134142319470643,0.2950678189575672
1733751492857416400,5.97741650390625,-0.3984019367039203,0.7678893290907144,0.32154578377753495
1733751492867392300,5.987392333984375,-0.46900575123727317,0.7881430125683545,0.40406704979352653
1733751492877368300,5.997368408203125,-0.49188627608716484,0.8091735256373882,0.3147949943430722
1733751492887343400,6.00734326171875,-0.45456806056201454,0.842768336725235,0.16018208638876674
1733751492897319400,6.0173193359375,-0.325465879830718,0.8652239141613245,-0.10096753474548459
1733751492907295200,6.027295166015625,-0.3034323271989822,0.9088619803577661,-0.357455447679013
1733751492917271300,6.037271240234375,-0.44849546265006063,0.9878519304424523,-0.3606600889392197
1733751492927246300,6.047246337890625,-0.659050184187293,1.0321282945424317,-0.17338702039867637
1733751492937222100,6.05722216796875,-0.655704380890727,1.0231810179769991,0.019295944361388682
1733751492947198500,6.067198486328125,-0.5312573324888944,0.911616832023859,0.22340733497813342
1733751492957174300,6.07717431640625,-0.47670682713389395,0.7684867104619741,0.44955271661803126
1733751492967149300,6.0871494140625,-0.4607195689290762,0.6788420953720807,0.5634374544732272
1733751492977125400,6.09712548828125,-0.6200830324113369,0.6619482437163591,0.5566768742971122
1733751492987101400,6.107101318359375,-0.770626060578227,0.7087702006459236,0.569805966591835
1733751492997077200,6.1170771484375,-0.8337392270952463,0.7530787134498357,0.5971113221466541
1733751493007052500,6.127052490234375,-0.7329857734918593,0.7901894237041472,0.5030038824290037
1733751493017028400,6.1370283203125,-0.5840040032923222,0.8057996652901173,0.3895987447842955
1733751493027004200,6.147004150390625,-0.39108138455748553,0.7041705978959798,0.42764352101832626
1733751493036980500,6.15698046875,-0.3167360454082489,0.6016507191419601,0.5937535361513495
1733751493046955300,6.166955322265625,-0.5117223186746239,0.6813385883629322,0.8711959743082522
1733751493056931300,6.176931396484375,-0.7671978396952152,0.7771452332139015,1.1494120271861552
1733751493066907400,6.186907470703125,-0.8244605266183614,0.7107587441146374,1.242882922565937
1733751493076883200,6.19688330078125,-0.7732225068122148,0.5641296745210885,1.2849743438422678
1733751493086858200,6.206858154296875,-0.7851166504845023,0.4031687127143144,1.241652211727202
1733751493096834300,6.216834228515625,-0.6864388341113925,0.2833136682778597,1.1316735413998364
1733751493106810400,6.226810302734375,-0.5669397635057568,0.04890285485684871,0.9616326165586709
1733751493116786200,6.2367861328125,-0.5129436771631241,-0.06666939769387245,0.860469120849669
1733751493126761200,6.24676123046875,-0.6153858145058154,0.006270166310667991,0.972429028122127
1733751493136737300,6.2567373046875,-0.6158616153240204,0.06629997985959053,1.0966484052479266
1733751493146713300,6.26671337890625,-0.457995112401247,0.0013823942691087723,0.9945768547832965
1733751493156689400,6.276689453125,-0.3938736456245184,-0.04976327107846737,0.8216498531118035
1733751493166664400,6.28666455078125,-0.3397159389793873,-0.09320084626674652,0.6391735173285007
1733751493176640300,6.29664013671875,-0.3085509853869676,-0.06425999846458434,0.48265579866617914
1733751493186616300,6.3066162109375,-0.18465338756144045,-0.03779401634335518,0.2961734421119094
1733751493196592400,6.31659228515625,0.13559388083815574,-0.14976795214116573,0.13568389720916746
1733751493206567200,6.326567138671875,0.3505021214097738,-0.2049427268743515,0.2049684458374977
1733751493216543200,6.336543212890625,0.28439766412228346,-0.07694879964590072,0.44204175646603105
1733751493226519300,6.346519287109375,0.11115531289130448,0.04880582422316074,0.7679922049432992
1733751493236495400,6.356495361328125,0.09814970084577798,0.060464697834849354,0.8680103300094604
1733751493246470100,6.36647021484375,0.2018535286873579,-0.16513444809913636,0.7121130813330412
1733751493256446500,6.376446533203125,0.3991439872428775,-0.43607612605988977,0.4932961428850889
1733751493266422300,6.38642236328125,0.3980518080919981,-0.6434872888743877,0.2387041267007589
1733751493276398300,6.3963984375,0.16723872690200806,-0.7056254728794098,0.02379939326047897
1733751493286373400,6.406373291015625,-0.08129676572233438,-0.6598416268259286,-0.034793080961704255
1733751493296349200,6.41634912109375,-0.31768150956481694,-0.5852858597964048,0.09645663319230079
1733751493306325200,6.4263251953125,-0.3415896238967776,-0.5788719011008739,0.1021159741282463
1733751493316301300,6.43630126953125,-0.2289798744134605,-0.5050929636627436,0.04215045798718929
1733751493326276400,6.4462763671875,0.08135434112846851,-0.41206455135345454,0.02643207985162735
1733751493336252200,6.456252197265625,0.4239158787973225,-0.43397243177890776,0.1289677406966686
1733751493346228500,6.466228515625,0.6003706162035465,-0.36235739437639714,0.3867091608226299
1733751493356204300,6.476204345703125,0.4019967463254928,-0.04152560408711433,0.6302402692884206
1733751493366179300,6.486179443359375,0.0681327482447028,0.3006470803946256,0.814908854418993
1733751493376155400,6.4961552734375,-0.14889467643797397,0.5019026431888342,0.7453454888492822
1733751493386131200,6.506131103515625,-0.26223171728253364,0.527401241582632,0.36131752993464467
1733751493396107300,6.516107177734375,-0.1551705418370664,0.5427011020451784,-0.07885083387494086
1733751493406082300,6.526082275390625,0.07910363959223031,0.5382248334139585,-0.32348376610279084
1733751493416058400,6.536058349609375,0.20020795343741773,0.5136638081312179,-0.4516080417126417
1733751493426034200,6.5460341796875,0.23390710168257353,0.5207359384745359,-0.46309038971364497
1733751493436010200,6.55601025390625,0.22390286341011523,0.45722237446308134,-0.26484453012943265
1733751493445985300,6.5659853515625,0.07981529499292374,0.2978612490683794,0.06396306134462357
1733751493455961300,6.57596142578125,0.11740589771866798,0.08675064721405505,0.3791039465159178
1733751493465937400,6.5859375,0.20465265788659454,-0.07960369806885718,0.590973842304945
1733751493475913200,6.595913330078125,0.29089082553386686,-0.19357377611994742,0.7791098112851381
1733751493485888300,6.60588818359375,0.32433716806173324,-0.23640929376184938,1.0223714551597833
1733751493495864300,6.6158642578125,0.4031511770576238,-0.4003191685020923,0.9967407548189162
1733751493505840400,6.62584033203125,0.4575077672757208,-0.5159317530632018,0.8536123868227005
1733751493515816200,6.635816162109375,0.3969036609701812,-0.5194967520684004,0.7425292623847722
1733751493525791500,6.64579150390625,0.36173853182569143,-0.5281868390023708,0.6568278319627047
1733751493535767300,6.655767333984375,0.3678559917926788,-0.5878396359324455,0.5811778399556875
1733751493545743000,6.6657431640625,0.43883039320409295,-0.7239052259355783,0.4053215068340301
1733751493555719400,6.675719482421875,0.4470109231807291,-0.8618933084338903,0.35082185488343237
1733751493565694200,6.685694091796875,0.4840020987085998,-0.9481722464829683,0.39584932961165903
1733751493575670300,6.695670166015625,0.5500486883290112,-1.102750229254365,0.5067839854896068
1733751493585646300,6.705646240234375,0.5597196029938757,-1.2990876248687504,0.5502426034659147
1733751493595622400,6.715622314453125,0.542504118168354,-1.4073843334585427,0.5443979690909385
1733751493605597200,6.72559716796875,0.478007534468919,-1.4183207380145788,0.4777630581885576
1733751493615573500,6.735573486328125,0.44265798866823314,-1.4375591069698332,0.3714192372322082
1733751493625549300,6.74554931640625,0.42520767217352984,-1.4319395135223865,0.20487959851026533
1733751493635525000,6.755525146484375,0.4011708168953657,-1.362204298517108,0.03153904760181904
1733751493645500400,6.76550048828125,0.4089683389037847,-1.3049702531665563,-0.1451513982564211
1733751493655476200,6.775476318359375,0.47331660017371174,-1.164990704590082,-0.27687632870674134
1733751493665452300,6.785452392578125,0.48185456528589127,-1.0060907669663428,-0.2509621352493763
1733751493675428400,6.795428466796875,0.5359218171685933,-0.8491255967974662,0.020973814445734023
1733751493685403400,6.8054033203125,0.48895782141983507,-0.8267039216309785,0.267037071737647
1733751493695379200,6.815379150390625,0.5091682502776385,-0.9243658389598131,0.37161037589013574
1733751493705355500,6.82535546875,0.49871115367114544,-1.04076694355011,0.5062199218660592
1733751493715331300,6.835331298828125,0.5484001904696226,-1.1610668091446161,0.5316530538082123
1733751493725306400,6.845306396484375,0.5076935015499592,-1.2745143246263264,0.5370230564087629
1733751493735282400,6.855282470703125,0.4807032032936811,-1.1900456508696078,0.6222679752349853
1733751493745258200,6.86525830078125,0.601176233498007,-1.0956792679548264,0.5832622450143099
1733751493755234300,6.875234375,0.6822435743786395,-1.0800544133216141,0.4806254618823528
1733751493765209000,6.885208984375,0.6760381438672542,-1.0208826779067515,0.3685077336996794
1733751493775185400,6.895185302734375,0.605755816373229,-0.9487140982747078,0.1884334906220436
1733751493785161200,6.9051611328125,0.6511299125820398,-0.9993424617499113,0.0449906498491764
1733751493795137300,6.91513720703125,0.7621990084946155,-0.9993979913294315,0.020582769301533698
1733751493805112300,6.9251123046875,0.7088217847026884,-1.0245990680813788,0.038521746096014976
1733751493815088400,6.93508837890625,0.7656709223888813,-1.1781991457313299,0.10581482864618301
1733751493825064700,6.945064697265625,0.8072152311764657,-1.412652629250288,0.0756511610507965
1733751493835040500,6.95504052734375,0.6886329831548035,-1.6154454846143722,0.1326718559116125
1733751493845015600,6.965015625,0.5090172974996269,-1.6246037735819816,0.41314182519614695
1733751493854991400,6.974991455078125,0.35066768723502756,-1.5120803872078656,0.6661807667195797
1733751493864967700,6.9849677734375,0.3950970499396324,-1.3559651118665932,0.6860632787972688
1733751493874943500,6.994943603515625,0.6776287740595638,-1.21208621776402,0.4284726653188467
1733751493884918500,7.00491845703125,1.1747275240980088,-1.1232792225420474,-0.026990882778167722
1733751493894894600,7.01489453125,1.645640131869912,-1.0930635324984788,-0.44736090566217895
1733751493904870400,7.024870361328125,1.9770615591041742,-1.1175608448952437,-0.6445826828956603
1733751493914846700,7.0348466796875,1.9039666584074497,-1.1480243722200394,-0.43598201803565023
1733751493924821500,7.044821533203125,1.4670838921397924,-1.2238999896764755,-0.15486147588789462
1733751493934797600,7.054797607421875,0.7864077132083475,-1.2263619958758354,-0.2281792255550623
1733751493944773600,7.064773681640625,-0.447632269949466,-0.8250783662557601,0.31909634479880333
1733751493954749700,7.074749755859375,-1.9987245248578487,0.033869536375999446,1.4288970770865679
1733751493964724500,7.084724365234375,-2.3780823000043627,0.6646902359008788,1.7572399736583233
1733751493974700500,7.094700439453125,-1.2770581638902425,0.6669342154353857,0.8490642219990492
1733751493984676600,7.104676513671875,0.3797771696023643,0.11043079800903796,-0.08335399051308631
1733751493994652400,7.11465234375,1.4263808564819396,-0.43632220977544783,-0.6742448307096958
1733751494004627500,7.12462744140625,1.85655725697875,-0.7831810062468052,-0.9760966107189655
1733751494014603500,7.134603515625,1.6708619591489433,-1.1892045238703488,-0.8578408181726932
1733751494024579600,7.14457958984375,1.1634499048888682,-1.5543395662665367,-0.44622810223996634
1733751494034555600,7.1545556640625,0.4730751926332712,-1.7208727752476929,0.04981178639531135
1733751494044530700,7.16453076171875,-0.3748011347554624,-1.672719861975312,0.6137327866017818
1733751494054506500,7.174506591796875,-0.8620083131156862,-1.5005840106815098,0.8383785773336887
1733751494064482600,7.184482666015625,-0.8805651295475662,-1.2874328429102897,0.6504863539814949
1733751494074458600,7.194458740234375,-0.41446927440762515,-1.064334866142273,0.4419470639199018
1733751494084433700,7.20443359375,0.10693974102288484,-0.7115209606587887,0.2720230434566736
1733751494094409500,7.214409423828125,0.37004765661805866,-0.27096213622689247,0.14978431875407694
1733751494104385500,7.224385498046875,0.6903796806916594,0.002526303607225418,0.05270458522737026
1733751494114361600,7.234361572265625,0.6864759512513876,0.10260288086235522,0.1441442670404911
1733751494124336400,7.24433642578125,0.4413812467306852,0.16574059729874133,0.4741010285496711
1733751494134312700,7.254312744140625,0.20745997039228675,0.22422084331810474,0.8336310905456542
1733751494144288500,7.26428857421875,-0.09942395856529473,0.2739449514299631,1.1364186901003122
1733751494154264600,7.2742646484375,-0.5076622296288609,0.4209808482587337,1.3155243804067374
1733751494164239600,7.284239501953125,-0.7696969630345701,0.6709276689857244,1.2890244960159063
1733751494174215700,7.294215576171875,-0.7750412466719746,0.8783557829350233,1.0016074840724467
1733751494184191500,7.30419140625,-0.7325143565878272,1.1273358044564723,0.49756315267980095
1733751494194166800,7.314166748046875,-0.6985282080948353,1.3209884910315275,-0.011056523804366588
1733751494204142600,7.324142578125,-0.6994888698205352,1.423161748304963,-0.3142600106835365
1733751494214118400,7.334118408203125,-0.7120140048727392,1.518577348011732,-0.37644700226634736
1733751494224094700,7.3440947265625,-0.6206602477774024,1.4845675263822078,-0.5528264824792742
1733751494234069500,7.354069580078125,-0.5422586189746856,1.2928963690131903,-0.45892070281356573
1733751494244045600,7.364045654296875,-0.42394934267550705,1.1691600992292166,0.15975363184362648
1733751494254021600,7.374021728515625,-0.28143822979480027,1.0299906979918478,0.620336422650516
1733751494263997400,7.38399755859375,-0.059954702486097806,0.800997817966342,0.8194675406366586
1733751494273972500,7.393972412109375,0.09902823724597692,0.5803939961016178,0.8934659660443663
1733751494283948500,7.403948486328125,0.11586217540800571,0.47014381535649297,0.8854328817144036
1733751494293924600,7.413924560546875,0.0562888734549284,0.44052083050906654,0.8712272462293505
1733751494303900400,7.423900390625,-0.009790449391305446,0.3573042026400566,0.8220362220808863
1733751494313875500,7.43387548828125,-0.0275496857047081,0.3007113778024912,0.6352388082280754
1733751494323851500,7.4438515625,-0.08237900800108909,0.2310503970772028,0.43108021746873854
1733751494333827600,7.45382763671875,-0.13081015369296073,0.2190121687591076,0.334874928689003
1733751494343803600,7.4638037109375,-0.0844374018356204,0.20863807426095007,0.23971564183086155
1733751494353778700,7.47377880859375,-0.03469225093573332,0.1871042878448963,0.16155834317803383
1733751494363754500,7.48375439453125,-0.026184827092289923,0.2566483641922474,0.25783991206437346
1733751494373730600,7.49373046875,0.059795420271158216,0.41297699002325533,0.3880310570761561
1733751494383706600,7.50370654296875,0.07698328643739223,0.5095891060382127,0.4399857007190585
1733751494393681400,7.513681396484375,0.14457126028090714,0.6100462070435285,0.38606969387531276
1733751494403657500,7.523657470703125,0.22791502166092395,0.7179203063070774,0.19533932448774574
1733751494413633500,7.533633544921875,0.25369039116948844,0.7828928369551896,-0.01623933326974511
1733751494423609600,7.543609619140625,0.23724369875937698,0.7958294754177332,-0.09994228335097431
1733751494433584400,7.55358447265625,0.2618392108336091,0.7722627218693494,-0.18225480198711155
1733751494443560700,7.563560791015625,0.26555267839878793,0.7495973010748624,-0.20516806006282567
1733751494453536500,7.57353662109375,0.2322872453957796,0.6978419793963432,-0.1447261585816741
1733751494463512600,7.5835126953125,0.1626747799873352,0.607762480020523,-0.04890431616157293
1733751494473487600,7.593487548828125,0.019524200159311292,0.6341764396935701,0.05604878108873963
1733751494483463400,7.60346337890625,-0.10054127215743064,0.6217571031033993,0.08200564464405179
1733751494493439500,7.613439453125,-0.16487141324877738,0.49125440792441366,0.10199643940180539
1733751494503415600,7.62341552734375,-0.20100509516447781,0.47255146102011203,0.11215002301707863
1733751494513390600,7.633390625,-0.2550304076015949,0.49188744513094423,0.10799597207754849
1733751494523366400,7.643366455078125,-0.3054047963157296,0.5485024818003177,0.10696326802894472
1733751494533342700,7.6533427734375,-0.22084581392705438,0.5958733047842979,0.12870908976048231
1733751494543318500,7.663318603515625,-0.07634118914157152,0.5837982515871525,0.28156521717533467
1733751494553293600,7.67329345703125,0.044722938823699945,0.6336743353903294,0.41708281790688634
1733751494563269600,7.68326953125,0.12520166616141795,0.6522668076574802,0.46511984971463677
1733751494573245400,7.693245361328125,0.08885141888558865,0.7480097396224736,0.4031818644568324
1733751494583221800,7.7032216796875,0.01034019222855568,0.8317045063972472,0.27855025326833127
1733751494593196500,7.713196533203125,-0.049424248382449146,0.8542337335914373,0.06320026027858257
1733751494603172600,7.723172607421875,-0.09406623092442751,0.7507219211906194,-0.12590309242904185
1733751494613148400,7.7331484375,-0.24914602573812006,0.5426280368089675,-0.16738105798214672
1733751494623124500,7.74312451171875,-0.4965960612133145,0.4259346712738275,-0.20875380959510803
1733751494633099500,7.753099609375,-0.5820578376606106,0.3293143719524145,-0.23547457019500434
1733751494643075600,7.76307568359375,-0.5619149210810661,0.2548094583272934,-0.32665888900756834
1733751494653051600,7.7730517578125,-0.45738720963597296,0.24514964957833288,-0.30279994757957757
1733751494663027500,7.78302734375,-0.40170068598836656,0.32898411708474157,-0.22256072808615862
1733751494673002500,7.79300244140625,-0.3401449780464172,0.4658814817368984,-0.2003824332214892
1733751494682978600,7.802978515625,-0.2234747011259198,0.5655430484503507,-0.18595446022264658
1733751494692954600,7.81295458984375,-0.09728928462415933,0.5627256529420613,0.014876812744885682
1733751494702930400,7.822930419921875,-0.14625702141076324,0.5371960748881102,0.2116013810459524
1733751494712905700,7.83290576171875,-0.3013534750983119,0.5664981572180986,0.24012926413305102
1733751494722881500,7.842881591796875,-0.4313447136238217,0.5506652127921581,0.19048487019389868
1733751494732857300,7.852857421875,-0.5904284833818674,0.5054910230696201,0.11350348345264792
1733751494742833700,7.862833740234375,-0.6936772609323263,0.454776150354743,0.08002119282856583
1733751494752808400,7.872808349609375,-0.6612108693525195,0.4348848704487085,0.03671571958735585
1733751494762784500,7.882784423828125,-0.6099772334605456,0.419296256172657,0.012172668352723121
1733751494772760600,7.892760498046875,-0.5423723084822297,0.5151233592897654,0.07702960979714989
1733751494782736600,7.902736572265625,-0.531631134237349,0.6653887395590543,0.12345423797219991
1733751494792711400,7.91271142578125,-0.6764613377153873,0.8601771521657705,0.18241583776772022
1733751494802687700,7.922687744140625,-0.8694406550735234,1.081172019174695,0.18631971333846448
1733751494812663600,7.93266357421875,-1.0010235467046498,1.2660165453940628,0.17589914935007692
1733751494822639400,7.942639404296875,-0.9027332683444023,1.301858258625865,0.16318696729317306
1733751494832614700,7.95261474609375,-0.8384031272530555,1.1953525251060724,0.17222133762016892
1733751494842590700,7.9625908203125,-0.8019540957778691,1.178508357810974,0.2640085176967084
1733751494852566800,7.97256689453125,-0.7668155623793601,1.0824030222743748,0.3623280221514404
1733751494862542600,7.98254248046875,-0.6332692617207765,1.029458783072233,0.28490941303670403
1733751494872518000,7.992517822265625,-0.3532791849076748,0.9038421063691378,0.003961450976878405
1733751494882493700,8.00249365234375,-0.17770985203385353,0.8134229997754097,-0.17200667195618152
1733751494892469800,8.0124697265625,-0.25089842236340043,0.8243927220791578,-0.1846779374808073
1733751494902445800,8.02244580078125,-0.44092853452712294,0.889460529795289,-0.07846314973160624
1733751494912420900,8.0324208984375,-0.5489069709479808,0.9204279149889946,0.14856705191880465
1733751494922396700,8.042396728515625,-0.6154734927892684,0.9144307204008102,0.44624593015760183
1733751494932372700,8.052372802734375,-0.7000818672776222,1.040845269483328,0.7213342064037919
1733751494942348800,8.062348876953125,-0.797180013243854,1.1465315033137797,0.9434776589259505
1733751494952323600,8.072323486328125,-0.6991568613871931,1.1015011059761046,1.13618020516932
1733751494962300000,8.0822998046875,-0.4912643447965383,0.9259060541391372,1.1821186572626232
1733751494972275700,8.092275634765626,-0.2068506063222885,0.727193746086955,1.116620056913793
1733751494982251500,8.10225146484375,-0.11713409503996372,0.4930044664621353,1.1299483250424265
1733751494992226800,8.112226806640624,-0.29206396096646786,0.3619908991515636,1.0888049982711672
1733751495002202600,8.12220263671875,-0.5025257435232401,0.32698622126579285,1.0285159492641687
1733751495012178700,8.1321787109375,-0.5425280835658312,0.23350129736065864,0.9880904153734446
1733751495022154800,8.14215478515625,-0.4121232958033681,0.1425309866249561,0.8053411078676581
1733751495032129800,8.1521298828125,-0.2629208685904741,0.0010275894820690155,0.5938847613155841
1733751495042105600,8.162105712890625,-0.1281494100511074,-0.12917583048939704,0.4473606134012341
1733751495052082000,8.17208203125,-0.06448007095605135,-0.16737316693663595,0.4677016829013824
1733751495062057700,8.1820576171875,-0.06956833400577306,-0.04349836546480655,0.45318186690062284
1733751495072032800,8.19203271484375,-0.09815291571617125,0.18059212947189807,0.4965872933849692
1733751495082008800,8.2020087890625,-0.1651186660081148,0.37790567664206026,0.49690615007579325
1733751495091984600,8.211984619140624,-0.12870090645402668,0.47144379203915593,0.4539999052852392
1733751495101960700,8.221960693359375,-0.18909546166211366,0.5177221436113119,0.45190965500771996
1733751495111935500,8.231935546875,-0.3138224960491061,0.6250783564805984,0.5425795214921235
1733751495121911800,8.241911865234375,-0.4156158140942454,0.5876490817964076,0.5493003541797399
1733751495131887600,8.2518876953125,-0.29076982950270175,0.4265834905713796,0.40796529934108255
1733751495141864000,8.261864013671875,-0.050077159333229065,0.2799146734893322,0.2971557311475277
1733751495151838700,8.271838623046875,0.09387713809311389,0.12257540931105614,0.1280804364681244
1733751495161814800,8.281814697265625,0.09771598560363054,0.044049569606781004,0.0641968701004982
1733751495171790800,8.291790771484376,-0.04417231920361519,-0.018610592445731163,0.026115853509306907
1733751495181766000,8.301765869140626,-0.11327888091653585,-0.15248188727498055,-0.017515198424458502
1733751495191741700,8.31174169921875,-0.24667159844860434,-0.12146890937387943,0.13842530487179755
1733751495201717500,8.321717529296874,-0.37531682919263837,0.06058686290979385,0.3927607159465551
1733751495211693800,8.33169384765625,-0.3345274304255843,0.18310323550999164,0.5256739793986082
1733751495221668600,8.341668701171875,-0.26311288403123617,0.23803777174651622,0.5948685116559267
1733751495231644700,8.351644775390625,-0.12452478981316088,0.3233896580785513,0.6175491300195455
1733751495241620700,8.361620849609375,-0.07913754186183214,0.358959568631649,0.6125087977647781
1733751495251596800,8.3715966796875,0.0008060556858777999,0.32570962545871734,0.5389578238636255
1733751495261571600,8.381571533203125,0.08866758675128221,0.24744857417047023,0.5369803863108158
1733751495271548000,8.3915478515625,0.02970014173686504,0.16049275977313518,0.6526110910505056
1733751495281523700,8.401523681640626,-0.1545277138888836,0.15086042355298995,0.8420897068113088
1733751495291499500,8.41149951171875,-0.26669103477895256,0.2224871513932943,0.9561842880249023
1733751495301474800,8.421474853515624,-0.4181372953958809,0.33447043954133987,0.8675199161440134
1733751495311450600,8.43145068359375,-0.3950308528356254,0.5080652574717999,0.6262345407783985
1733751495321426700,8.4414267578125,-0.2529841425962746,0.4844932432264089,0.548188593545556
1733751495331402800,8.45140283203125,-0.06712590928971766,0.44126258878707886,0.5631669669687748
1733751495341377800,8.461377685546875,0.12212591197788715,0.3120616238564253,0.5105149887114763
1733751495351353600,8.471353515625,0.21093787563592195,0.11433832684159279,0.31051088728308673
1733751495361330000,8.481329833984375,0.24524185790643094,-0.04639642499387264,0.18171207341253756
1733751495371305700,8.4913056640625,0.20783391827121375,-0.2583019766181707,0.22667817334234713
1733751495381280800,8.50128076171875,0.24274609556794166,-0.5930062249153852,0.3154997816115618
1733751495391256800,8.5112568359375,0.3360417805112898,-0.8699258082419633,0.32098084337115285
1733751495401232600,8.521232666015624,0.5862164186447858,-1.1003174491494894,0.20352467676997182
1733751495411208700,8.531208740234375,0.7689882302433252,-1.1904898875057697,0.20487375329136848
1733751495421183700,8.541183837890625,0.8379887012332677,-1.2214309692144394,0.3360580009937286
1733751495431159800,8.551159912109375,0.848049053607136,-1.18966863425076,0.430036845895648
1733751495441135600,8.561135498046875,0.8203700424343348,-1.1714151846796272,0.47138650889396666
1733751495451111700,8.571111572265625,0.7804534809790551,-1.3213228375524282,0.42465281476974487
1733751495461086700,8.581086669921875,0.7036888057284056,-1.4926584783792496,0.4270031772881746
1733751495471062800,8.591062744140626,0.626888036251068,-1.5546119534671305,0.48811260276734825
1733751495481038800,8.601038818359376,0.6672017803303897,-1.689704899045825,0.529160067948699
1733751495491014700,8.6110146484375,0.7676280478060246,-1.8580279140532017,0.5459276628762483
1733751495500989700,8.62098974609375,0.9256143777161836,-1.9384715700775383,0.498766098728776
1733751495510965800,8.6309658203125,1.0747526536516845,-2.0007968010872603,0.5187567473560571
1733751495520941800,8.64094189453125,1.2800554460100828,-2.0749246980935334,0.6907581586152315
1733751495530917600,8.650917724609375,1.3088672606050968,-2.1882646615475414,0.9645645783573389
1733751495540893000,8.660892822265625,1.2594307372629643,-2.3107138141304255,1.1698796456754208
1733751495550868700,8.67086865234375,1.0307651894956826,-2.483509006115794,1.3821534460902214
1733751495560844500,8.680844482421875,0.747035999219492,-2.5457617564111947,1.6873241413891313
1733751495570820900,8.69082080078125,0.7254553779870271,-2.4768992325872183,1.8613626114338635
1733751495580795600,8.700795654296876,0.9354490315753966,-2.4848645123779773,1.7033482244729994
1733751495590771700,8.710771728515626,1.1298955719418824,-2.506855979433656,1.259932841566205
1733751495600747800,8.720747802734374,1.3704039715856313,-2.4593197367548942,0.792890499356389
1733751495610723800,8.730723876953125,1.4686040874443946,-2.483084058701992,0.4899404027163982
1733751495620698600,8.74069873046875,1.1792536232203243,-2.3133313031524416,0.5032891291111707
1733751495630675000,8.750675048828125,0.8431796940051018,-1.9356255329966543,0.38426469027996063
1733751495640650800,8.760650634765625,0.6168525260575115,-1.6139502776205539,0.14123977777063845
1733751495650626600,8.77062646484375,0.37124928749278185,-1.2206634919732808,0.024009236618876457
1733751495660601600,8.7806015625,0.34612712119594213,-0.8204588897615671,-0.08557166656255721
1733751495670577700,8.79057763671875,0.4317058020211756,-0.5133592722266912,-0.29997955639660356
1733751495680553700,8.8005537109375,0.7010749699681997,-0.38181788164973257,-0.6446370434314013
1733751495690528500,8.810528564453126,0.9536265663661062,-0.44369419984817504,-0.9683230541080236
1733751495700504800,8.8205048828125,1.0143320872195065,-0.494454080748558,-1.0564128409713507
1733751495710480600,8.830480712890624,0.7136936285227536,-0.409885453748703,-0.7549982833355665
1733751495720457000,8.84045703125,0.21325404362380504,-0.29708208138942716,-0.3685141634404659
1733751495730431700,8.850431640625,-0.11982172668874264,-0.2348708321481943,-0.2165676982164383
1733751495740407800,8.86040771484375,-0.2548467215977609,-0.22553134139478206,-0.32317747663259505
1733751495750383600,8.870383544921875,-0.14938129091113805,-0.24933774891793725,-0.49684477527737614
1733751495760359700,8.880359619140625,0.1098240642875433,-0.39430619182288645,-0.6082558164954185
1733751495770334700,8.890334716796875,0.30312793742492794,-0.5382154810637235,-0.6499433331459761
1733751495780310500,8.900310546875,0.35050095236599443,-0.5846025537073611,-0.44871173574924467
1733751495790286800,8.910286865234376,0.13048603630512953,-0.4821779520213604,-0.15111702866256235
1733751495800262700,8.9202626953125,-0.11096242066770791,-0.3968202204704284,0.2025719060897827
1733751495810237700,8.93023779296875,-0.2690440276458859,-0.3131073335170746,0.4614449605941772
1733751495820213800,8.9402138671875,-0.4225967590227723,-0.13141513384878634,0.46757893330454825
1733751495830189800,8.95018994140625,-0.3206371445000171,0.033901100558042525,0.28260405870378014
1733751495840166000,8.960165771484375,-0.07589490667879581,0.18587270022332666,0.1960714381545782
1733751495850141000,8.970140869140625,-0.06624854193329811,0.36633681940138335,0.08225041318535804
1733751495860116700,8.98011669921875,0.015825053380429745,0.3845727333158254,-0.06575520545840263
1733751495870092800,8.9900927734375,0.235805774910748,0.1456558406472206,-0.009214403069019318
1733751495880068900,9.00006884765625,0.3589037467911839,-0.19439912102818488,0.24403905798792838
1733751495890043600,9.010043701171876,0.26841858922392126,-0.3188490920394659,0.6393611488550901
1733751495900020000,9.02002001953125,-0.040107261721789834,-0.11547697548270225,1.062215974292159
1733751495909995800,9.029995849609374,-0.37728842152655123,0.12518179241716862,1.3779033874303102
1733751495919971600,9.0399716796875,-0.556896508397162,0.31037586272656914,1.1866232752054928
1733751495929947000,9.04994677734375,-0.5770183821886777,0.59316521486938,0.8135065864056348
1733751495939922700,9.059922607421875,-0.6190609958872199,0.9893974063187837,0.48461014760434623
1733751495949898800,9.069898681640625,-0.4326631027460098,1.2737854258298873,0.157180858746171
1733751495959874800,9.079874755859375,-0.138961603705585,1.2444833434998988,-0.30397651707828044
1733751495969849900,9.089849853515625,0.1278586104109883,1.013542836537957,-0.6614046383589506
1733751495979825700,9.09982568359375,0.26958821752518414,0.6465466764450073,-0.700652945163846
1733751495989802000,9.109802001953126,0.29704087259620426,0.23927462006509304,-0.5337824670523404
1733751495999777800,9.11977783203125,0.313084244902432,-0.16378654062151907,-0.21761165431141852
1733751496009752800,9.1297529296875,0.3005947656854987,-0.49209495040178297,0.2539244921863079
1733751496019729000,9.13972900390625,0.23560557616353034,-0.7044675350159406,0.7474193725138902
1733751496029704700,9.14970458984375,0.13858371030390262,-0.8265881862968206,1.1309519491270184
1733751496039680800,9.1596806640625,0.05500029494911432,-0.8103542598545551,1.283407532916963
1733751496049655800,9.16965576171875,0.003380582349002361,-0.6288309870123863,1.2820602099612355
1733751496059631900,9.1796318359375,0.013693594309687614,-0.3443909450531006,1.1309352902531624
1733751496069607700,9.189607666015625,0.07504793446063995,-0.12652210111021994,0.7924085610583425
1733751496079584000,9.199583984375,0.08014847247004508,0.06033785658478737,0.44897418607771394
1733751496089558800,9.209558837890626,0.006520926201343536,0.30710955440700055,0.13532529302984475
1733751496099534800,9.219534912109374,-0.06323065541684628,0.4577203871130943,-0.08015344090610742
1733751496109511000,9.229510986328124,-0.17806524134278295,0.5207417836934328,-0.26836568999290467
1733751496119486700,9.23948681640625,-0.1658639314174652,0.3973883757472038,-0.3187681357577443
1733751496129461800,9.249461669921875,0.007502338454127311,0.164704239988327,-0.23122692268788814
1733751496139437800,9.259437744140625,0.1684527788668871,-0.004594342052936554,-0.05987053133398294
1733751496149414000,9.269413818359375,0.282854234072566,-0.06084697515070438,0.09949848510622977
1733751496159389700,9.2793896484375,0.2729191155135631,-0.05934358485043049,0.1584858038648963
1733751496169364700,9.28936474609375,0.15663433077931402,0.028982348856329915,0.1391959969833493
1733751496179340800,9.2993408203125,-0.05445435150414705,0.13488193317651748,0.11200783806741237
1733751496189316900,9.30931689453125,-0.28926585468053817,0.26319442483484745,0.10807955870777368
1733751496199293000,9.31929296875,-0.26379180620610715,0.30889351521432395,0.039569501583278176
1733751496209268000,9.32926806640625,-0.1928781950712204,0.25047172138392926,-0.005515840812027454
1733751496219243800,9.339243896484374,-0.06338847632706165,0.3047539311915636,-0.06878770502209663
1733751496229219800,9.3492197265625,0.08156593805253505,0.38227673133313655,-0.12294482714533805
1733751496239196000,9.35919580078125,0.09105214380025863,0.4064005342423916,-0.20108488240242003
1733751496249170700,9.369170654296875,0.13787351620793342,0.41996202660501003,-0.20797654161229728
1733751496259146800,9.379146728515625,0.13310294080525636,0.45574002695083615,-0.0843240045890212
1733751496269122800,9.389122802734375,-0.0253515911385417,0.502066893839836,0.02115472397059202
1733751496279097900,9.399097900390625,-0.12144085232317448,0.5703104089826345,0.04671469716280698
1733751496289073700,9.40907373046875,-0.14154080654382706,0.5884282494753599,-0.05260945428982377
1733751496299049700,9.4190498046875,-0.1497293736964464,0.5525432816237211,-0.10745733515620232
1733751496309025800,9.42902587890625,-0.17343407441079617,0.5081622881054878,-0.11095029183849692
1733751496319000800,9.439000732421874,-0.23412673578262327,0.5578121619373559,-0.06915156989842652
1733751496328977000,9.448976806640625,-0.33110826963186263,0.639592619523406,-0.04903758715242147
1733751496338952700,9.45895263671875,-0.3744008833914995,0.7161603108972311,-0.1097059908658266
1733751496348928800,9.4689287109375,-0.2970154458940029,0.7465677241206169,-0.15257292655929922
1733751496358903800,9.47890380859375,-0.20062457141429185,0.7457014626801014,-0.016067483834177256
1733751496368879900,9.4888798828125,-0.15010171414017676,0.7752180645436048,0.08408281624428927
1733751496378855700,9.498855712890625,-0.14546850138157605,0.742374948605895,0.08929360969513654
1733751496388831700,9.508831787109376,-0.09815203893333672,0.685050302362442,0.027448344222083688
1733751496398806800,9.518806884765626,-0.1366325762361288,0.6824082634210586,0.05102408479452133
1733751496408782800,9.528782958984374,-0.2090378872334957,0.6337637672394514,0.16398359756357966
1733751496418759000,9.538759033203124,-0.23604864375591278,0.5019102419734001,0.23241781297288833
1733751496428734700,9.548734619140625,-0.2235767001956701,0.4121820402532816,0.217109988399595
1733751496438709800,9.558709716796875,-0.215699098688364,0.369280471637845,0.3022396102830767
1733751496448685800,9.568685791015625,-0.17784429206848143,0.3682318393677473,0.36955826566591854
1733751496458662000,9.578661865234375,-0.07876900081038475,0.2766378437757492,0.3247674492377788
1733751496468637700,9.5886376953125,-0.014357611176371573,0.1973831052750349,0.23223091209866106
1733751496478613000,9.598613037109375,-0.05084492883533239,0.18429332207739352,0.20878040534108877
1733751496488588800,9.6085888671875,-0.17053601488173006,0.2766337521225214,0.20937387772221117
1733751496498564600,9.618564697265626,-0.20954437545090912,0.41749943588376043,0.24744923175759612
1733751496508541000,9.628541015625,-0.27713994807898995,0.528846764215827,0.2740023441730067
1733751496518515700,9.638515625,-0.2770785732805729,0.5892413194239139,0.18246263605151325
1733751496528491800,9.64849169921875,-0.2934562921077013,0.7035673713058233,0.07744827360063791
1733751496538467800,9.6584677734375,-0.33242519744932647,0.7891080582082272,0.013399762462265789
1733751496548444000,9.66844384765625,-0.27865093716382977,0.8238713285535574,-0.04962736973911523
1733751496558418700,9.678418701171875,-0.29107494992911814,0.7151204464554787,-0.07354374044276774
1733751496568395000,9.68839501953125,-0.38331308864355085,0.707834965622425,0.040090456717461344
1733751496578370800,9.698370849609375,-0.3418699021428823,0.8033481804847716,0.1837415334135294
1733751496588346600,9.7083466796875,-0.24599662179648873,0.8370049508929253,0.2941619196264073
1733751496598322000,9.718322021484376,-0.23503800540864467,0.8958516921371221,0.372375697706826
1733751496608297700,9.728297607421876,-0.292518718996644,0.992636242109537,0.37917211638130244
1733751496618273800,9.738273681640624,-0.35771921318173405,1.0640355909347534,0.3876179827632382
1733751496628249900,9.748249755859375,-0.36989831127524375,1.0992279003471135,0.44629941391050815
1733751496638225000,9.758224853515625,-0.33027883307039735,1.0432494080156087,0.579834024131298
1733751496648200700,9.76820068359375,-0.29793782143592834,0.8570026137828827,0.7562148925837129
1733751496658177000,9.778177001953125,-0.36251755337417124,0.6961603099197149,0.830746182759106
1733751496668152800,9.78815283203125,-0.5065776492625474,0.6606956133067607,0.7211544659227133
1733751496678127900,9.7981279296875,-0.6048381170064211,0.6832774474710226,0.44853053396344184
1733751496688104000,9.80810400390625,-0.6641504299357534,0.7139274372786283,0.27126864489279684
1733751496698079700,9.818079833984376,-0.5856707674607634,0.8111942178100348,0.07749898087456822
1733751496708055800,9.828055908203124,-0.4480915580242872,0.8879653228014707,-0.16954554253965615
1733751496718030600,9.838030517578124,-0.35694355263412,0.9979624055683612,-0.2099938727840781
1733751496728007000,9.8480068359375,-0.24573183338046073,1.0723059911519288,-0.15632541096061467
1733751496737982700,9.857982666015625,-0.16384966898560524,1.1319546964287757,0.02257408924922347
1733751496747958800,9.867958740234375,-0.08608838391304016,1.185345510354638,0.28314459532126784
1733751496757933800,9.877933837890625,-0.0760237937554717,1.096148054510355,0.4599738651283085
1733751496767910000,9.887909912109375,-0.12286796251684426,1.0471791486799715,0.522593256779015
1733751496777886000,9.897885986328125,-0.24579759209305047,1.0371528447061777,0.5692987477220595
1733751496787861000,9.907861083984375,-0.350800227573514,0.9945061276346444,0.6686519791387021
1733751496797836800,9.9178369140625,-0.3972878379821777,0.8883744881242513,0.7492286138929426
1733751496807812600,9.9278125,-0.5070893981769681,0.7157488074868917,0.7585540761210023
1733751496817789000,9.937788818359374,-0.5908452474892139,0.6033358957499265,0.7973036396235227
1733751496827764200,9.94776416015625,-0.6308198227420448,0.5600491272091865,0.895859290921688
1733751496837740500,9.957740478515625,-0.5894745436578989,0.5433522594302892,0.9089242319390177
1733751496847716400,9.96771630859375,-0.5020286076560616,0.47525545928180213,0.6452814788147807
1733751496857692200,9.977692138671875,-0.34701486381590363,0.2260527349203825,0.4445648452028632
1733751496867667200,9.987667236328125,-0.2686626271128654,-0.019529460856318473,0.3031704613924026
1733751496877643300,9.997643310546875,-0.24473551581948993,-0.14414718964993953,0.21285861456543206
1733751496887619300,10.007619384765626,-0.23708470880538224,-0.17706746247708796,0.25431290698200465
1733751496897595400,10.017595458984376,-0.2929743538096547,-0.14508710084855556,0.31594138789922
1733751496907570400,10.0275703125,-0.32406127372980115,-0.043052959784865376,0.42815322410613293
1733751496917546200,10.037546142578124,-0.3245139859333634,0.030614918494224548,0.5850029512017965
1733751496927522300,10.047522216796875,-0.34551439612507817,0.10056640659868717,0.7673194202482699
1733751496937498400,10.057498291015625,-0.31698300590664147,0.12610007630586623,0.8563406427428126
1733751496947473400,10.067473388671875,-0.28198095836937426,0.08607903156280516,0.8394286709085106
1733751496957449200,10.07744921875,-0.19536913510411977,0.10875731183886528,0.6625853725761175
1733751496967425300,10.08742529296875,-0.12596388270556927,0.057303603455424304,0.5182745167970657
1733751496977401300,10.0974013671875,-0.1208686053931713,-0.03234334972202778,0.5646519448295235
1733751496987376000,10.107376220703125,-0.1279118019029498,-0.13271277244389057,0.5675590644478797
1733751496997352400,10.1173525390625,-0.18082447692304848,-0.2363397356569767,0.4551332932293415
1733751497007328300,10.127328369140624,-0.24171470669358966,-0.2886819173127413,0.4688993682533502
1733751497017304300,10.13730419921875,-0.13086889814287422,-0.34227263772487637,0.5869634376198053
1733751497027279400,10.147279296875,0.04265840750932693,-0.357972895681858,0.619676205176115
1733751497037255200,10.157255126953125,0.09924217225760221,-0.2807628147512674,0.5744014776885509
1733751497047231200,10.167231201171875,0.17822919973284004,-0.16666940258145332,0.4940431618601083
1733751497057207300,10.177207275390625,0.2531920862585306,-0.1222539222717285,0.4039981492757797
1733751497067182300,10.187182373046875,0.30134412274807687,-0.10898469085395336,0.24574352381825446
1733751497077158100,10.197158203125,0.283866918246448,-0.11783552130758762,0.08081658098995685
1733751497087134500,10.207134521484376,0.2512304307967424,-0.19312369426488876,-0.11953823357224463
1733751497097110300,10.2171103515625,0.16756752046495674,-0.24625498047173022,-0.15405542020201682
1733751497107085300,10.227085205078126,0.05236293218284845,-0.23537001384198664,-0.18018004153966902
1733751497117061400,10.237061279296874,-0.04590513434559106,-0.2283914070010185,-0.1290641868084669
1733751497127037200,10.247037109375,-0.09233984552323818,-0.2174427274852991,0.08616320271492003
1733751497137013200,10.25701318359375,-0.006688099461793899,-0.22564999933838842,0.232661339405179
1733751497146988300,10.26698828125,0.10059212556183338,-0.22967443254888056,0.4913742349117994
1733751497156964400,10.27696435546875,0.10770590308979153,-0.22873861300349235,0.7717612020879984
1733751497166940200,10.286940185546875,0.1046921082265675,-0.2060714386433363,0.946647228872776
1733751497176916500,10.29691650390625,0.17101590735316274,-0.12253215469121932,0.9114292004972696
1733751497186891300,10.306891357421875,0.14548925190865994,-0.04716448675692081,0.7260825699746608
1733751497196867300,10.316867431640626,0.036298224827647205,-0.03718552905619144,0.4226169250279665
1733751497206843400,10.326843505859374,0.030915655006468295,0.10948679515719413,0.05008358907401562
1733751497216818400,10.336818359375,-0.012977847255766391,0.32615620018243785,-0.21323066274821756
1733751497226794200,10.346794189453124,-0.07338643098920583,0.591190115404129,-0.15553426058292388
1733751497236770300,10.356770263671875,0.03555705107152462,0.7188134557545185,-0.1097410621792078
1733751497246746400,10.366746337890625,0.12764964383542537,0.5175497096538544,-0.2029471691429615
1733751497256721200,10.37672119140625,0.061689125063270324,0.3644984980583191,-0.11133329980671405
1733751497266697500,10.386697509765625,-0.08559548582956195,0.33052842391729353,0.0880821880787611
1733751497276673300,10.39667333984375,-0.16566870110630988,0.2721101372182369,0.3031803982645273
1733751497286649300,10.4066494140625,-0.15680734925866127,0.2573977212548256,0.39777883636951444
1733751497296624400,10.416624267578126,-0.08345686636567115,0.39807460444569587,0.3151367935180664
1733751497306600400,10.426600341796876,-0.049463265218585725,0.5361749151468277,0.1847340515822172
1733751497316576300,10.436576171875,0.022448417042940854,0.598086889180541,0.12916121744215486
1733751497326552300,10.44655224609375,0.055309214767813676,0.5829401734530926,0.24691022951006888
1733751497336527400,10.45652734375,-0.0020982874535024165,0.5276607693016528,0.2970738980829716
1733751497346503200,10.466503173828125,-0.09316694399714469,0.3181564336001873,0.16003215652406214
1733751497356479500,10.4764794921875,-0.21059432289525865,0.05806055930256843,0.1773410187214613
1733751497366455300,10.486455322265625,-0.16269290016591548,-0.15394202295541762,0.20310499005317686
1733751497376430300,10.496430419921875,0.14986790538430214,-0.41382513128519055,0.20261223810017107
1733751497386406400,10.506406494140625,0.4639993212521076,-0.5904308214694262,0.27119945211410523
1733751497396382200,10.51638232421875,0.6763496940344572,-0.6802350110352039,0.3873030350625515
1733751497406358300,10.526358154296876,0.8064408858031034,-0.7954851920247078,0.3458721235215664
1733751497416333300,10.536333251953126,0.8761720091551541,-0.9792734871894121,0.27931495403051376
1733751497426309400,10.546309326171874,0.8580665897525847,-1.140046232947707,0.2745283042758703
1733751497436285200,10.55628515625,0.7322991064019501,-1.2201210556596518,0.2802016737371683
1733751497446261500,10.566261474609375,0.726196990134567,-1.2547341038793325,0.3817898245990276
1733751497456236300,10.576236328125,0.7674883470743894,-1.425989080685377,0.4158183509290218
1733751497466212400,10.58621240234375,0.8144033891148865,-1.6657997073233126,0.5115753114193677
1733751497476188400,10.5961884765625,0.9033663055509328,-1.9468337402313947,0.6094295364499092
1733751497486164200,10.606164306640625,1.0031932919591664,-2.2811995503544806,0.8273018875241279
1733751497496139300,10.61613916015625,1.0252649846442043,-2.485067925995588,1.1145862129986286
1733751497506115000,10.626114990234376,1.019437301404029,-2.5144430735617873,1.4259434879779815
1733751497516091400,10.63609130859375,1.0038539478249848,-2.3987469023704526,1.7038941679179667
1733751497526067200,10.646067138671874,0.9166947198100388,-2.355377131721377,1.9054519285291431
1733751497536042200,10.656042236328124,0.9084593909062445,-2.2393343390494582,1.8891005131870506
1733751497546018300,10.666018310546875,0.8255161731511353,-2.1861048531651495,1.6480413477927445
1733751497555994400,10.675994384765625,0.8680746274173259,-2.0441373456418512,1.5202806447982786
1733751497565970400,10.685970458984375,0.8316681199096143,-1.7624053935974835,1.3430033389627933
1733751497575945500,10.695945556640625,0.8261478951834141,-1.4642361014932392,1.1208850208818912
1733751497585921300,10.70592138671875,0.8125706207297742,-1.222761341035366,0.8277741812109947
1733751497595897000,10.71589697265625,0.7157844633221626,-0.9537877482771873,0.5262608393758536
1733751497605872400,10.725872314453126,0.7045195574641228,-0.7200204934567213,0.2785883933216333
1733751497615848200,10.73584814453125,0.8774981431923806,-0.6598048019468784,-0.04216624007821083
1733751497625824300,10.74582421875,0.9615491760589182,-0.6150836166888475,-0.39454058510065076
1733751497635800300,10.75580029296875,0.9302747707426547,-0.46938685950934883,-0.8041676801741122
1733751497645775400,10.765775390625,0.9349515303820372,-0.32104104912579057,-1.0470096373319626
1733751497655751200,10.775751220703125,0.865752614210546,-0.29462124423384667,-1.1659610109269618
1733751497665727500,10.7857275390625,0.6455899602420627,-0.4703904835939407,-1.2236088977754116
1733751497675703300,10.795703369140625,0.25459859205558893,-0.7338076112687587,-1.1053601194918155
1733751497685678300,10.80567822265625,-0.23957170331552624,-0.7158429155111312,-0.8520996441721915
1733751497695654400,10.815654296875,-0.581060204925388,-0.6003600948095321,-0.5642530086398124
1733751497705630200,10.825630126953126,-0.5801916053973138,-0.4245230509102344,-0.3100421007275581
1733751497715606300,10.835606201171874,-0.27570786944925785,-0.26857553335130213,-0.20696634165644645
1733751497725581300,10.845581298828124,0.29365868281200525,-0.31062428452968593,-0.27198563405573367
1733751497735557400,10.855557373046874,0.8446142568528652,-0.5408510902643203,-0.2629179459810257
1733751497745533200,10.865533203125,0.9210309954486787,-0.730567606434226,0.0075718965590000145
1733751497755509500,10.875509521484375,0.7213672318905592,-0.6790379102051257,0.40565526883304115
1733751497765484300,10.885484375,0.3875713306099176,-0.5834452003657817,0.741007751905918
1733751497775460400,10.89546044921875,-0.0788091866903007,-0.5310667783528566,0.8000479698956012
1733751497785436400,10.9054365234375,-0.3944825713030994,-0.39253216788768763,0.7091366958707571
1733751497795412200,10.915412109375,-0.47666298799216744,-0.2604045018553734,0.5135866512417793
1733751497805387300,10.92538720703125,-0.34562837789356704,-0.03928279359638691,0.3452718195408582
1733751497815363300,10.93536328125,-0.12302315307855605,0.049768531775474543,0.2720961086928844
1733751497825339400,10.94533935546875,0.13507365635633467,0.09598258593976497,0.32776655798852444
1733751497835315000,10.95531494140625,0.37285862238556144,0.12173311326801776,0.40058044978678226
1733751497845290000,10.9652900390625,0.4866992288380861,-0.05844634374976158,0.4345885178506374
1733751497855265800,10.975265869140625,0.34441374140679837,-0.2200923652112484,0.6154162096440792
1733751497865242000,10.9852421875,-0.03284340819865465,-0.14240239180922507,0.7668032874196767
1733751497875218000,10.995218017578125,-0.5600093797206879,0.002873509609699249,0.8511287533134222
1733751497885193000,11.00519287109375,-0.7868494656264782,0.2287403665691614,0.7856237232238054
1733751497895169000,11.0151689453125,-0.7522624286308884,0.500890251275897,0.4878320322602987
1733751497905144800,11.025144775390626,-0.5960121287330985,0.7126590247780085,0.09658347444236277
1733751497915121000,11.035120849609376,-0.4053898958951235,0.898971869984269,-0.2228273431330919
1733751497925096000,11.045095947265626,-0.1704990438722074,1.063823409488797,-0.4797808277517557
1733751497935072000,11.055072021484374,-0.11906009466648101,1.2194815887123345,-0.510924154034257
1733751497945047800,11.0650478515625,-0.09702858786135911,1.1942390109062193,-0.3860147488176822
1733751497955022800,11.07502294921875,0.0882625130817294,0.7699006689131259,-0.20723580624759197
1733751497964999000,11.0849990234375,0.169991532741487,0.2665127556025982,-0.06291384455263614
1733751497974975000,11.09497509765625,0.05794131683707237,-0.14442951372265814,0.003610591712594032
1733751497984951000,11.104950927734375,-0.06793634888976811,-0.36477731499969956,0.3691138828992843
1733751497994926000,11.114926025390625,0.00421937126070261,-0.5509048667669296,0.7730255229353904
1733751498004902000,11.12490185546875,0.21474048278927801,-0.7154495322793721,0.8801894281029701
1733751498014878000,11.1348779296875,0.35710751102417704,-0.774361739975214,0.9010936844438314
1733751498024854000,11.14485400390625,0.3020224604010582,-0.6832546511173248,0.8473129944175481
1733751498034828800,11.154828857421874,0.15557400807142258,-0.5559019444018602,0.8149789970457554
1733751498044804900,11.164804931640624,0.047669513669610024,-0.4604834220856428,0.7263432667374611
1733751498054781000,11.174781005859375,0.12225129192322493,-0.3636865971535444,0.5566454562455415
1733751498064757000,11.184757080078125,0.25729835253357886,-0.30235505335628987,0.3713672147840261
1733751498074731800,11.194731689453125,0.2750345002323389,-0.10215162996351718,0.29679361983686686
1733751498084708000,11.2047080078125,0.24840660554766653,0.07537059054374694,0.2181488299280405
1733751498094684000,11.214683837890625,0.3084296970948577,0.1044470474243164,0.0903910495430231
1733751498104660000,11.224659912109376,0.3732178110867739,0.002482464465498924,0.020095862567424773
1733751498114635000,11.234635009765626,0.3488675059452653,-0.07446808874607086,0.0015691490128636359
1733751498124610800,11.24461083984375,0.15935440339297055,0.03171791130006313,-0.03154050890654325
1733751498134587000,11.2545869140625,-0.07774813333004713,0.2671983997792005,-0.12171323952376842
1733751498144563000,11.26456298828125,-0.2374254850670695,0.4019757035374641,-0.155709324888885
1733751498154538000,11.2745380859375,-0.2668579157784581,0.4664706798017025,-0.13229483929276464
1733751498164513800,11.284513671875,-0.1330526719227433,0.4689788632303476,-0.12922171545773745
1733751498174489900,11.29448974609375,-0.03283785524070263,0.49762394295632834,-0.11454933924376964
1733751498184466000,11.3044658203125,0.07717997805327177,0.5420259792625903,-0.10115502014160156
1733751498194441000,11.31444091796875,0.051064709065854544,0.616205314195156,-0.10045827004909515
1733751498204417000,11.3244169921875,0.07465367444604634,0.7007137354403734,-0.1662386099487543
1733751498214392800,11.334392822265626,0.06254734932780265,0.6396516562342643,-0.15327917513251305
1733751498224369200,11.344369140625,-0.026540800923109054,0.5710638576984405,-0.12521920181810856
1733751498234344000,11.354343994140624,-0.1766308246254921,0.5271510662138462,-0.1425631353288889
1733751498244320000,11.364320068359374,-0.24738603032827375,0.48074119721651076,-0.10302724375426768
1733751498254295800,11.3742958984375,-0.1601999143064022,0.4431692991912365,-0.11102350320518016
1733751498264272000,11.38427197265625,0.0043874213039875026,0.4218143764734268,-0.17073972076028585
1733751498274247000,11.394246826171875,0.038759646505117415,0.42860944344103336,-0.16069909600019455
1733751498284222700,11.40422265625,-0.013653846821188927,0.481962263444066,-0.12238543969690799
1733751498294199000,11.414198974609375,-0.10318915631771088,0.5319675265848637,-0.06569061578959226
1733751498304174800,11.4241748046875,-0.20339052899628876,0.5468927085161209,0.06604015987962485
1733751498314150000,11.43414990234375,-0.297662511625886,0.5259095417201519,0.23817776473909616
1733751498324126000,11.4441259765625,-0.24542437486648558,0.5024819043815135,0.3464750578507781
1733751498334102000,11.45410205078125,-0.07025806983560323,0.2569125680863857,0.3999510658420622
1733751498344077800,11.464077880859374,0.03693418464362621,0.053334699824452395,0.356737362537533
1733751498354053000,11.47405322265625,0.037654315611720085,-0.050526656666398044,0.29754531498700376
1733751498364029000,11.48402880859375,-0.05681172828525304,-0.09186638279259204,0.27283479823097584
1733751498374004700,11.494004638671875,-0.16738485737442968,-0.06384732601046562,0.3566043838076293
1733751498383980000,11.50397998046875,-0.2739154330745339,0.03827624690234661,0.4362687260225415
1733751498393955800,11.513955810546875,-0.29238807835429903,0.17582301537394524,0.412479561895132
1733751498403932000,11.523931884765625,-0.24665713153183458,0.27975626805722714,0.2986272650048137
1733751498413908000,11.533907958984376,-0.16697744561731814,0.4488035056859255,0.08391878478899598
1733751498423883000,11.543883056640626,-0.11131167249679565,0.6070744977563619,-0.13435001825690268
1733751498433858800,11.55385888671875,-0.07858546093702316,0.748764357382059,-0.27286504723876714
1733751498443835100,11.563835205078124,-0.15137772542536257,0.8544874160915613,-0.31640359858348965
1733751498453811000,11.57381103515625,-0.22475626536905763,0.851778157132864,-0.39885567182078957
1733751498463786000,11.583785888671875,-0.3360708604753017,0.8296540036082267,-0.49846112443283197
1733751498473762000,11.593761962890625,-0.46613662554174656,0.8960153582662344,-0.43437808997035027
1733751498483737900,11.60373779296875,-0.5210112482845783,0.9453402379274368,-0.3002848229534924
1733751498493714000,11.6137138671875,-0.43326895968466994,0.9914788887679576,-0.26134265948832036
1733751498503688700,11.623688720703125,-0.35188539246171713,1.0065390952557325,-0.24912644425481556
1733751498513665000,11.6336650390625,-0.25248043085783717,0.9817208803415298,-0.17826032552346585
1733751498523640800,11.643640869140626,-0.23231442566365001,0.9502478837132453,-0.1328014736406505
1733751498533617000,11.653616943359374,-0.1516121187031269,0.9397451943993568,0.06299933087900281
1733751498543592000,11.663592041015624,-0.047158349277079105,0.8632306945174932,0.20958836072310805
1733751498553568000,11.673568115234374,-0.04414367763102054,0.783854375463724,0.23389628802761434
1733751498563544000,11.6835439453125,-0.17577917623221873,0.7968821993410586,0.34022958758994937
1733751498573520000,11.693519775390625,-0.17476795336306095,0.794102797755599,0.5139196825884282
1733751498583495000,11.703494873046875,-0.0801999103963375,0.6470651473611593,0.5808797337919474
1733751498593470700,11.713470703125,-0.09372048622667789,0.5481599519729614,0.6682350689008831
1733751498603447000,11.723447021484375,-0.19051848020255566,0.5912006367981434,0.7182350713446736
1733751498613422800,11.7334228515625,-0.23762363798767328,0.6287333718568087,0.6191160870753228
1733751498623398000,11.74339794921875,-0.31672844662368294,0.589271130040288,0.5068687411636114
1733751498633374000,11.7533740234375,-0.3984378848001361,0.6209452021986246,0.4607892731644213
1733751498643349800,11.763349853515624,-0.44174628065079447,0.7408604523897171,0.4147968989267945
1733751498653326000,11.773326171875,-0.499437422119081,0.8639245220005511,0.34823388421684504
1733751498663300900,11.78330078125,-0.5633312176197767,0.9809563257098197,0.2676164790607989
1733751498673277000,11.79327685546875,-0.6250555601269007,1.1128402461141347,0.06827420254200696
1733751498683252700,11.803252685546875,-0.5366404868319631,1.2236685190081595,-0.029119857630878685
1733751498693228000,11.81322802734375,-0.3853489783853292,1.2529624180316925,-0.11001710264161228
1733751498703203800,11.823203857421875,-0.21010756229162214,1.206366086551547,-0.1131868187189102
1733751498713180000,11.833179931640625,-0.12381693380475044,1.123627013066411,-0.17267755695506928
1733751498723156000,11.843156005859376,-0.21384733334183692,1.02493283008039,-0.28436975320205093
1733751498733131000,11.853131103515626,-0.3743535371184349,0.911784589806199,-0.2843061864465475
1733751498743106800,11.86310693359375,-0.40721740358322855,0.8103934228211641,-0.04342617701143026
1733751498753083000,11.873082763671874,-0.3699640699878335,0.7145768410980701,0.1486322261095047
1733751498763059000,11.883058837890625,-0.2674763399377465,0.7142530159711837,0.2580097156733274
1733751498773034000,11.893033935546875,-0.17155805140584707,0.6753109986364841,0.48184155967384573
1733751498783010000,11.903010009765625,-0.06794014828205108,0.5432791941940784,0.5840910970538854
1733751498792985900,11.91298583984375,-0.06313216347843409,0.4620031789988279,0.6664166213020682
1733751498802962000,11.9229619140625,-0.23294863191395995,0.48334816484451293,0.831050426402688
1733751498812937000,11.93293701171875,-0.26457418875545263,0.4788046761959791,0.8658554900631308
1733751498822913000,11.9429130859375,-0.26016601692438124,0.42057811267673967,0.7090507711529731
1733751498832889300,11.952889404296876,-0.3042342912316322,0.3936462666094303,0.5150722136244178
1733751498842865200,11.962865234375,-0.40476182712465525,0.331687530824542,0.5605906867399811
1733751498852840200,11.972840087890624,-0.3258385125353932,0.23424071755111217,0.6360802274882793
1733751498862816300,11.982816162109375,-0.2788017438113689,0.21087036335766315,0.673882719399035
1733751498872792300,11.992792236328125,-0.36108752057105303,0.26675357862114907,0.9105302058309316
1733751498882768100,12.00276806640625,-0.5014882171690463,0.4714531443893909,0.9261784413397312
1733751498892743200,12.0127431640625,-0.5263865115821361,0.45811610843241213,0.5688692702636122
1733751498902719200,12.02271923828125,-0.537115995389223,0.26568507260680196,0.26749124524593354
1733751498912695300,12.0326953125,-0.6532689704373479,0.21109657332897186,-0.023621406345069408
1733751498922671400,12.04267138671875,-0.7952481683984398,0.3680903850704431,0.014960837766528129
1733751498932646400,12.052646484375,-0.8189391328483819,0.5998106442332267,0.2956003183990717
1733751498942622200,12.062622314453124,-0.6776373957574368,0.6825339356273412,0.5121896439254283
1733751498952598300,12.072598388671874,-0.35940234396308657,0.39091070416569706,0.47937400051653384
1733751498962574300,12.08257421875,-0.02063800662010908,0.18688100048303602,0.4153039716660976
1733751498972549000,12.092549072265625,0.04303805447667837,-0.08018412830531596,0.4347562756329775
1733751498982525200,12.102525146484375,0.04436491916626691,-0.24517595306336878,0.47761692771613595
1733751498992501200,12.112501220703125,-0.0010981705002486705,-0.257861247113347,0.5196849681168795
1733751499002477000,12.12247705078125,-0.10129062922000884,-0.17838848194777965,0.7003840650945902
1733751499012452000,12.1324521484375,-0.057647156196087596,-0.13888824620842932,0.7396130826771259
1733751499022428200,12.14242822265625,0.07775076367855072,-0.21918635628223418,0.6276017374783754
1733751499032404200,12.152404296875,0.18976152435541152,-0.23800445399880407,0.4775099602103233
1733751499042379300,12.162379150390626,0.18131503691896794,-0.19795476768314837,0.6569336304247378
1733751499052355300,12.172355224609374,0.18719240451976657,-0.13209376376271248,0.8641507319718599
1733751499062331100,12.1823310546875,0.2556312961041927,-0.2036515180200338,0.7987941704422235
1733751499072307200,12.19230712890625,0.3029927667379379,-0.3363561071574688,0.5595668966501951
1733751499082282200,12.2022822265625,0.3253624194562435,-0.40180853027701374,0.43828620332479473
1733751499092258300,12.21225830078125,0.26270810262262817,-0.34471009400486946,0.27653204531371595
1733751499102234000,12.222234130859375,0.11386778672039508,-0.2530161451697349,0.09506021039783955
1733751499112210200,12.232210205078125,0.14184658455736934,-0.062492988792061804,0.19321955585479736
1733751499122185200,12.242185302734375,0.2598990365512669,0.23546587543189523,0.2698024447977543
1733751499132161000,12.2521611328125,0.35895196984708305,0.3886737388938665,-0.013912790018320083
1733751499142137300,12.262137451171874,0.37992278861813245,0.49034313829839227,-0.4945107793718576
1733751499152113200,12.272113037109374,0.2026637490916997,0.6926011561334132,-0.7346797179281711
1733751499162088200,12.282088134765624,-0.06308985870666801,0.9513555526942015,-0.641677609103918
1733751499172064300,12.292064208984375,-0.23746139663066715,0.9827771113961934,-0.6804910316228866
1733751499182040300,12.302040283203125,-0.30269930021669716,0.8541063078194856,-0.8727811976730823
1733751499192016100,12.31201611328125,-0.45156186448335645,0.893423588207364,-0.8206669795542955
1733751499201991400,12.321991455078125,-0.7388976278841495,1.0623024835318327,-0.5754506944805383
1733751499211967200,12.33196728515625,-0.9430201974820345,1.152008473420143,-0.35482641434967516
1733751499221943000,12.341943115234375,-0.924186975261569,1.1795797864347695,-0.19816461104154587
1733751499231919400,12.35191943359375,-0.7979150495201349,1.039116253733635,-0.005243161350488662
1733751499241894100,12.36189404296875,-0.6573731908857822,0.7899123603284358,0.24359657491743564
1733751499251870200,12.3718701171875,-0.37093876023888583,0.4911912795603275,0.43212592712938785
1733751499261846300,12.38184619140625,-0.061481747656594955,0.08875847990512847,0.61608607172966
