time,seconds_elapsed,z,y,x
1733751486901890000,0.02189013671875,0.527440071105957,0.09409578889608383,0.021867934614419937
1733751486911865900,0.031865966796875,0.5275256633758545,0.09590673446655273,0.011244019493460655
1733751486921841000,0.0418408203125,0.5250068306922913,0.09485878050327301,0.011900489218533039
1733751486931817000,0.05181689453125,0.5139890313148499,0.06985441595315933,0.012341179884970188
1733751486941793000,0.06179296875,0.49411889910697937,0.06329424679279327,0.0248457882553339
1733751486951768800,0.071768798828125,0.4845966398715973,0.05983550846576691,0.03434307128190994
1733751486961744100,0.081744140625,0.4892460107803345,0.06525317579507828,0.03704831004142761
1733751486971720000,0.091719970703125,0.4779949188232422,0.1284794807434082,0.04107070714235306
1733751486981696000,0.101696044921875,0.4803760349750519,0.1979869157075882,0.0409492664039135
1733751486991672000,0.111672119140625,0.4882221817970276,0.20066803693771362,0.03002576157450676
1733751487001647000,0.121647216796875,0.49256181716918945,0.16768239438533783,0.022638686001300812
1733751487011623000,0.131622802734375,0.5051177144050598,0.15444031357765198,0.010521928779780865
1733751487021599000,0.141598876953125,0.5201501846313477,0.17308349907398224,0.010591171681880951
1733751487031575000,0.151574951171875,0.5338160991668701,0.21422582864761353,0.037444084882736206
1733751487041550800,0.16155078125,0.5433411598205566,0.24459251761436462,0.09156990796327591
1733751487051526100,0.171526123046875,0.5392786264419556,0.24527330696582794,0.15026098489761353
1733751487061502000,0.181501953125,0.5227201581001282,0.23972541093826294,0.18086789548397064
1733751487071478000,0.19147802734375,0.49717628955841064,0.23170176148414612,0.1822156459093094
1733751487081454000,0.2014541015625,0.46133920550346375,0.2063082456588745,0.15656301379203796
1733751487091429000,0.21142919921875,0.42828696966171265,0.18579374253749847,0.11487533897161484
1733751487101405000,0.221405029296875,0.4095812141895294,0.2108927071094513,0.05518750846385956
1733751487111381000,0.231381103515625,0.4208142161369324,0.2436562031507492,0.0011304609943181276
1733751487121357000,0.241357177734375,0.40995731949806213,0.2723355293273926,-0.03941110521554947
1733751487131331800,0.251331787109375,0.36921775341033936,0.2800029516220093,-0.027324162423610687
1733751487141308200,0.26130810546875,0.300804078578949,0.2890941798686981,0.02981475740671158
1733751487151284000,0.271283935546875,0.2504458725452423,0.29327651858329773,0.10406450927257538
1733751487161259800,0.281259765625,0.23594950139522552,0.3166761100292206,0.17695069313049316
1733751487171235000,0.291235107421875,0.2461419403553009,0.3795440196990967,0.2585635483264923
1733751487181211000,0.3012109375,0.24251125752925873,0.4551013708114624,0.3460944592952728
1733751487191187000,0.31118701171875,0.22028763592243195,0.4833396375179291,0.42697128653526306
1733751487201163000,0.3211630859375,0.18087925016880035,0.43376195430755615,0.4933873116970062
1733751487211139000,0.33113916015625,0.1367720514535904,0.35235050320625305,0.5368598699569702
1733751487221113900,0.34111376953125,0.09440247714519501,0.27221864461898804,0.5438298583030701
1733751487231090200,0.351090087890625,0.0580955408513546,0.22145503759384155,0.5206881761550903
1733751487241066000,0.36106591796875,0.0319821797311306,0.18006524443626404,0.4489343762397766
1733751487251041800,0.371041748046875,0.033453475683927536,0.13603517413139343,0.35578835010528564
1733751487261017000,0.38101708984375,0.068764328956604,0.08987220376729965,0.25711262226104736
1733751487270993000,0.390992919921875,0.13608507812023163,0.038881707936525345,0.15309534966945648
1733751487280969000,0.400968994140625,0.2121201902627945,0.03735145553946495,0.06431355327367783
1733751487290945000,0.410945068359375,0.246516153216362,0.06280796229839325,0.004510187543928623
1733751487300920000,0.420920166015625,0.257187157869339,0.043080322444438934,-0.006960313767194748
1733751487310895900,0.430895751953125,0.2462862730026245,0.031635161489248276,0.017070593312382698
1733751487320872200,0.4408720703125,0.22410772740840912,0.04122786968946457,0.05848461389541626
1733751487330848000,0.450847900390625,0.2052183896303177,0.032114315778017044,0.09891532361507416
1733751487340823800,0.46082373046875,0.1875685602426529,0.008616978302598,0.11192380636930466
1733751487350799000,0.470799072265625,0.1806708127260208,-0.021083185449242592,0.09157965332269669
1733751487360775000,0.48077490234375,0.19807296991348267,-0.015447404235601425,0.057498909533023834
1733751487370751000,0.4907509765625,0.2502410113811493,0.009429415687918663,0.02249634638428688
1733751487380727000,0.50072705078125,0.2768196165561676,0.05427997559309006,0.014208588749170303
1733751487390702000,0.5107021484375,0.2841351330280304,0.06493683159351349,0.03438182920217514
1733751487400678000,0.520677978515625,0.2745075523853302,0.04510853439569473,0.048731476068496704
1733751487410654000,0.530654052734375,0.24880702793598175,0.034170713275671005,0.05781062692403793
1733751487420630000,0.540630126953125,0.23055079579353333,0.02848086692392826,0.07603757083415985
1733751487430605000,0.55060498046875,0.22292983531951904,0.01808890327811241,0.09821194410324097
1733751487440581000,0.5605810546875,0.21551452577114105,0.004246589727699757,0.1142529621720314
1733751487450557000,0.570556884765625,0.21042180061340332,-0.01830669492483139,0.10282199829816818
1733751487460533000,0.580532958984375,0.2106226086616516,-0.013153478503227234,0.06716067343950272
1733751487470507800,0.5905078125,0.20104750990867615,0.013266400434076786,0.033423952758312225
1733751487480484000,0.600484130859375,0.18023304641246796,0.02607380971312523,0.025046179071068764
1733751487490460000,0.6104599609375,0.16217651963233948,-0.0039357454515993595,0.025709372013807297
1733751487500436000,0.62043603515625,0.14439699053764343,-0.034879278391599655,0.036654163151979446
1733751487510412000,0.630412109375,0.13336697220802307,-0.032233163714408875,0.04492541030049324
1733751487520386800,0.64038671875,0.13573504984378815,-0.022954976186156273,0.05625209957361221
1733751487530363100,0.650363037109375,0.13314607739448547,-0.014818400144577026,0.07189133018255234
1733751487540339000,0.6603388671875,0.12207477539777756,-0.02283158339560032,0.10671215504407883
1733751487550315000,0.67031494140625,0.10203715413808823,-0.032805655151605606,0.1413164734840393
1733751487560289800,0.680289794921875,0.08823984861373901,-0.027291314676404,0.17494261264801025
1733751487570266000,0.69026611328125,0.09478025883436203,-0.03801555931568146,0.18794110417366028
1733751487580242000,0.700241943359375,0.11699048429727554,-0.05500413104891777,0.1643846482038498
1733751487590218000,0.710218017578125,0.14635303616523743,-0.08943605422973633,0.12249453365802765
1733751487600193000,0.720193115234375,0.16392403841018677,-0.14808765053749084,0.08507019281387329
1733751487610168800,0.7301689453125,0.16926607489585876,-0.15538355708122253,0.05128172039985657
1733751487620145200,0.740145263671875,0.17342433333396912,-0.11570165306329727,-0.0019154578913003206
1733751487630121000,0.750120849609375,0.16583169996738434,-0.09375032037496567,-0.050432004034519196
1733751487640097000,0.760096923828125,0.14585506916046143,-0.10902833938598633,-0.06266176700592041
1733751487650071800,0.77007177734375,0.1142558753490448,-0.10704917460680008,-0.03471599891781807
1733751487660048100,0.780048095703125,0.10153768211603165,-0.07920156419277191,-0.007125383708626032
1733751487670024000,0.79002392578125,0.12020515650510788,-0.054453376680612564,-0.006873588543385267
1733751487680000000,0.8,0.1376137137413025,-0.043085940182209015,0.02920718304812908
1733751487689975000,0.80997509765625,0.1458582580089569,-0.008272436447441578,0.11838897317647934
1733751487699950800,0.819950927734375,0.15729786455631256,0.03559888154268265,0.1956281065940857
1733751487709927200,0.82992724609375,0.16809646785259247,0.05481269955635071,0.21935728192329407
1733751487719903000,0.839903076171875,0.16804586350917816,0.07780429720878601,0.18178381025791168
1733751487729878000,0.8498779296875,0.17145606875419617,0.09315232932567596,0.1306944489479065
1733751487739853800,0.859853759765625,0.1734023094177246,0.14236648380756378,0.11233729124069214
1733751487749830000,0.869829833984375,0.14455388486385345,0.11638586223125458,0.06752706319093704
1733751487759806000,0.879805908203125,0.07791972160339355,0.07423707842826843,-0.014352358877658844
1733751487769782000,0.889781982421875,-0.046413034200668335,0.06277573108673096,-0.041141219437122345
1733751487779757000,0.899757080078125,-0.16878528892993927,0.0031968201510608196,0.01684698276221752
1733751487789732900,0.90973291015625,-0.20963765680789948,-0.04586348310112953,0.052387088537216187
1733751487799709200,0.919709228515625,-0.1953098475933075,-0.03239667788147926,0.03532128408551216
1733751487809685000,0.92968505859375,-0.1461060345172882,-0.0026328780222684145,-0.0013092579320073128
1733751487819660000,0.939659912109375,-0.06933587789535522,0.007652781903743744,-0.0692552849650383
1733751487829635800,0.9496357421875,0.012000411748886108,0.0186384916305542,-0.18904520571231842
1733751487839612000,0.95961181640625,0.04973154515028,0.033126350492239,-0.27716973423957825
1733751487849588000,0.969587890625,-0.04285673052072525,0.12903602421283722,-0.1661282181739807
1733751487859562800,0.979562744140625,-0.21409106254577637,0.1979983150959015,0.2350546270608902
1733751487869539000,0.9895390625,-0.24507100880146027,0.11725211143493652,0.44544851779937744
1733751487879515000,0.999514892578125,-0.18613606691360474,0.13622073829174042,0.3794974684715271
1733751487889491000,1.009490966796875,-0.1068137139081955,0.14133058488368988,0.1711326390504837
1733751487899466000,1.019466064453125,-0.05277364328503609,0.15466129779815674,0.0035505699925124645
1733751487909442000,1.029442138671875,-0.050260789692401886,0.1500258594751358,-0.06330782175064087
1733751487919417900,1.03941796875,-0.08458308130502701,0.13508978486061096,-0.03586740791797638
1733751487929394000,1.049393798828125,-0.11670669913291931,0.1052122637629509,0.022163700312376022
1733751487939370000,1.059369873046875,-0.11874774843454361,0.08625881373882294,0.0470525398850441
1733751487949344800,1.0693447265625,-0.09786703437566757,0.08750219643115997,0.023313483223319054
1733751487959321000,1.079321044921875,-0.07437848299741745,0.11812881380319595,-0.004898981191217899
1733751487969297000,1.089296875,-0.046552397310733795,0.14649729430675507,-0.006508202757686377
1733751487979273000,1.09927294921875,-0.022791409865021706,0.1627708077430725,0.028029266744852066
1733751487989248000,1.109248046875,0.010176499374210835,0.15637890994548798,0.08009965717792511
1733751487999224000,1.11922412109375,0.041614048182964325,0.16764700412750244,0.1024174764752388
1733751488009199900,1.129199951171875,0.06023498624563217,0.2055950164794922,0.09344223886728287
1733751488019176000,1.139176025390625,0.06833019852638245,0.21096235513687134,0.06154661998152733
1733751488029151000,1.14915087890625,0.0575004518032074,0.18679523468017578,0.023124398663640022
1733751488039126800,1.159126708984375,0.03620927780866623,0.15595130622386932,-0.004659829195588827
1733751488049103000,1.16910302734375,0.001223981031216681,0.12421759963035583,-0.01737585850059986
1733751488059079000,1.179078857421875,-0.03130919486284256,0.07821735739707947,-0.01725867949426174
1733751488069054700,1.1890546875,-0.04612753540277481,0.05865572392940521,-0.01888662576675415
1733751488079030000,1.199030029296875,-0.04996834695339203,0.08204147219657898,-0.006509582977741957
1733751488089005800,1.209005859375,-0.040039025247097015,0.11314728856086731,0.01367382612079382
1733751488098982000,1.21898193359375,-0.02622574381530285,0.11018931865692139,0.03994910791516304
1733751488108958000,1.2289580078125,-0.0216083824634552,0.08059202134609222,0.07349887490272522
1733751488118933000,1.23893310546875,-0.04078420624136925,0.08309006690979004,0.10395985096693039
1733751488128908800,1.24890869140625,-0.07877630740404129,0.09772679209709167,0.11924685537815094
1733751488138885000,1.258885009765625,-0.11903371661901474,0.054388366639614105,0.12760677933692932
1733751488148861000,1.26886083984375,-0.16931860148906708,-0.025302287191152573,0.1131657138466835
1733751488158836000,1.2788359375,-0.24725601077079773,-0.10941103845834732,0.06810183823108673
1733751488168812000,1.28881201171875,-0.33293846249580383,-0.2396349459886551,0.009233709424734116
1733751488178787800,1.298787841796875,-0.41703683137893677,-0.394918829202652,-0.0663721039891243
1733751488188764000,1.308763916015625,-0.5240258574485779,-0.3888135850429535,-0.1591806560754776
1733751488198738700,1.31873876953125,-0.7097459435462952,-0.34114086627960205,-0.2068895846605301
1733751488208715000,1.328715087890625,-0.7374212145805359,-0.4569018483161926,-0.10114157944917679
1733751488218690800,1.33869091796875,-0.701174259185791,-0.4751761853694916,-0.0598766952753067
1733751488228667100,1.348667236328125,-0.7028284072875977,-0.4340837001800537,-0.034412458539009094
1733751488238642000,1.358641845703125,-0.6490280032157898,-0.3144664764404297,0.05158127844333649
1733751488248618000,1.368617919921875,-0.5496577024459839,-0.2523815929889679,0.20685593783855438
1733751488258594000,1.378593994140625,-0.4631774127483368,-0.19399844110012054,0.3571237325668335
1733751488268569900,1.38856982421875,-0.41350057721138,-0.11855974793434143,0.43293723464012146
1733751488278546000,1.3985458984375,-0.41076284646987915,-0.08130798488855362,0.4344046413898468
1733751488288520700,1.408520751953125,-0.4356743395328522,-0.12067100405693054,0.38108086585998535
1733751488298497000,1.4184970703125,-0.48881372809410095,-0.19747284054756165,0.295816034078598
1733751488308472800,1.428472900390625,-0.5555891990661621,-0.2714521586894989,0.22364604473114014
1733751488318449000,1.438448974609375,-0.6105978488922119,-0.33209580183029175,0.18518628180027008
1733751488328424000,1.448423828125,-0.6465861797332764,-0.4191462993621826,0.19258366525173187
1733751488338400000,1.45839990234375,-0.6703609824180603,-0.529327392578125,0.24077624082565308
1733751488348376000,1.4683759765625,-0.7030072808265686,-0.6389377117156982,0.3354053795337677
1733751488358352000,1.478351806640625,-0.7374222278594971,-0.6940428018569946,0.47036027908325195
1733751488368327000,1.488326904296875,-0.7573861479759216,-0.6799939274787903,0.6283707022666931
1733751488378302700,1.498302734375,-0.7588775157928467,-0.6482301354408264,0.7657977938652039
1733751488388279000,1.508279052734375,-0.7265082597732544,-0.64896559715271,0.8713243007659912
1733751488398254800,1.5182548828125,-0.6794214248657227,-0.7073106169700623,0.9340100288391113
1733751488408231000,1.52823095703125,-0.62356036901474,-0.7408472299575806,0.9477841854095459
1733751488418206000,1.5382060546875,-0.5804267525672913,-0.7891007661819458,0.9144560694694519
1733751488428181800,1.548181640625,-0.5781274437904358,-0.8436065912246704,0.8491222858428955
1733751488438158000,1.558157958984375,-0.6438845992088318,-0.8705987930297852,0.784688413143158
1733751488448134000,1.5681337890625,-0.759231686592102,-0.877152144908905,0.7678173184394836
1733751488458109000,1.57810888671875,-0.8400216102600098,-0.9084906578063965,0.8300833106040955
1733751488468084700,1.588084716796875,-0.8445205092430115,-1.018717885017395,0.9152371287345886
1733751488478061000,1.59806103515625,-0.8102647662162781,-1.1140925884246826,0.9634943604469299
1733751488488036900,1.608036865234375,-0.7803497910499573,-1.136121153831482,0.9697210788726807
1733751488498012000,1.618011962890625,-0.7446948289871216,-1.0398905277252197,0.9532792568206787
1733751488507988000,1.627988037109375,-0.6998122930526733,-0.8934280872344971,0.9241746068000793
1733751488517963800,1.6379638671875,-0.6425687074661255,-0.8392862677574158,0.8779764771461487
1733751488527940000,1.647940185546875,-0.6125063300132751,-0.8867475390434265,0.8310141563415527
1733751488537915000,1.657914794921875,-0.6297252774238586,-0.9672889709472656,0.8126159906387329
1733751488547891000,1.667890869140625,-0.6919281482696533,-1.031984806060791,0.8200380206108093
1733751488557866800,1.67786669921875,-0.8069822788238525,-1.035652995109558,0.847854733467102
1733751488567843000,1.687843017578125,-0.928289532661438,-1.057284951210022,0.8551023602485657
1733751488577817900,1.69781787109375,-0.9916447997093201,-1.1350852251052856,0.7716708779335022
1733751488587794000,1.7077939453125,-1.0161566734313965,-1.1425334215164185,0.6118667721748352
1733751488597770000,1.71777001953125,-0.9959135055541992,-1.0633906126022339,0.4487934708595276
1733751488607745800,1.727745849609375,-0.9294611215591431,-0.9963527917861938,0.33102500438690186
1733751488617720800,1.737720947265625,-0.8478639721870422,-0.9840287566184998,0.2521331012248993
1733751488627697000,1.74769677734375,-0.7932376265525818,-1.0399854183197021,0.20910581946372986
1733751488637673000,1.7576728515625,-0.8291758894920349,-1.0772850513458252,0.1839461326599121
1733751488647648800,1.767648681640625,-0.9500275254249573,-1.0960676670074463,0.18404674530029297
1733751488657624800,1.777624755859375,-1.096257209777832,-1.116576075553894,0.20444895327091217
1733751488667600000,1.787599853515625,-1.2091261148452759,-1.149133324623108,0.2190791219472885
1733751488677576000,1.797575927734375,-1.2460012435913086,-1.0760875940322876,0.24163290858268738
1733751488687552000,1.807552001953125,-1.1835720539093018,-0.9825882911682129,0.28576725721359253
1733751488697527800,1.81752783203125,-1.0715808868408203,-0.8618783950805664,0.31340473890304565
1733751488707502800,1.8275029296875,-0.9459530115127563,-0.7540940046310425,0.32185742259025574
1733751488717479000,1.83747900390625,-0.8680590391159058,-0.6884569525718689,0.30939781665802
1733751488727455000,1.847455078125,-0.8436630964279175,-0.6622872352600098,0.27385011315345764
1733751488737430800,1.8574306640625,-0.8774623274803162,-0.7063974142074585,0.21399609744548798
1733751488747406000,1.867406005859375,-0.9631413817405701,-0.7008795142173767,0.13925951719284058
1733751488757382000,1.8773818359375,-0.9984285235404968,-0.6287296414375305,0.07722944766283035
1733751488767358000,1.88735791015625,-0.9335395693778992,-0.5964645743370056,0.06233183294534683
1733751488777334000,1.897333984375,-0.8542380928993225,-0.47571924328804016,0.09077172726392746
1733751488787309000,1.90730908203125,-0.7846788167953491,-0.3376995027065277,0.14963006973266602
1733751488797284900,1.917284912109375,-0.7187938094139099,-0.3047514259815216,0.22847799956798553
1733751488807261000,1.927260986328125,-0.6924403309822083,-0.37497299909591675,0.2816392183303833
1733751488817237000,1.937237060546875,-0.7252776026725769,-0.4807841181755066,0.2708664536476135
1733751488827212300,1.94721240234375,-0.7889642715454102,-0.5711023807525635,0.19198115170001984
1733751488837188400,1.957188232421875,-0.846513032913208,-0.6305311322212219,0.0903991311788559
1733751488847164200,1.9671640625,-0.8720079064369202,-0.655707597732544,0.015669425949454308
1733751488857140200,1.97714013671875,-0.8539074659347534,-0.6611774563789368,-0.0402178093791008
1733751488867115300,1.987115234375,-0.8211239576339722,-0.6040259599685669,-0.0655183270573616
1733751488877091000,1.997091064453125,-0.7588459253311157,-0.4476888179779053,-0.04684077575802803
1733751488887067400,2.0070673828125,-0.6620047688484192,-0.27248305082321167,0.03035605512559414
1733751488897043200,2.017043212890625,-0.5389174222946167,-0.1808878779411316,0.12669165432453156
1733751488907019300,2.027019287109375,-0.44598495960235596,-0.17238849401474,0.20915448665618896
1733751488916994300,2.036994384765625,-0.41095826029777527,-0.21498629450798035,0.2519024908542633
1733751488926970400,2.046970458984375,-0.4481092095375061,-0.27607202529907227,0.26388534903526306
1733751488936946200,2.0569462890625,-0.5138576030731201,-0.3403705656528473,0.23662123084068298
1733751488946922200,2.066922119140625,-0.5587069392204285,-0.3589443564414978,0.165790393948555
1733751488956897300,2.076897216796875,-0.5713832974433899,-0.31198111176490784,0.09211430698633194
1733751488966873000,2.086873046875,-0.5361263155937195,-0.26404082775115967,0.037924524396657944
1733751488976849400,2.096849365234375,-0.47411298751831055,-0.2210872322320938,0.035823024809360504
1733751488986825200,2.1068251953125,-0.42232921719551086,-0.1537598967552185,0.0711594745516777
1733751488996800300,2.11680029296875,-0.37502002716064453,-0.08726903796195984,0.11644066870212555
1733751489006776300,2.1267763671875,-0.31979069113731384,-0.05298681929707527,0.13110488653182983
1733751489016752000,2.136752197265625,-0.29351913928985596,-0.0513060986995697,0.12950804829597473
1733751489026728200,2.146728271484375,-0.2785472869873047,-0.08420887589454651,0.12247428297996521
1733751489036703200,2.156703125,-0.27921226620674133,-0.1294272243976593,0.14576789736747742
1733751489046679300,2.16667919921875,-0.3164735734462738,-0.15995480120182037,0.18872080743312836
1733751489056655000,2.176655029296875,-0.36763182282447815,-0.15191233158111572,0.22177515923976898
1733751489066631400,2.18663134765625,-0.3914394676685333,-0.1478484869003296,0.21812282502651215
1733751489076606200,2.196606201171875,-0.39763396978378296,-0.14150962233543396,0.18556727468967438
1733751489086582300,2.206582275390625,-0.371599406003952,-0.12022142857313156,0.15020354092121124
1733751489096558300,2.216558349609375,-0.3166320323944092,-0.13036754727363586,0.1327686309814453
1733751489106534100,2.2265341796875,-0.26545751094818115,-0.15938800573349,0.1035071462392807
1733751489116509200,2.23650927734375,-0.23964908719062805,-0.1742846667766571,0.03474699705839157
1733751489126485000,2.246485107421875,-0.21529839932918549,-0.1979016214609146,-0.07895021140575409
1733751489136461300,2.25646142578125,-0.20035512745380402,-0.19111669063568115,-0.17006413638591766
1733751489146437000,2.26643701171875,-0.2297951579093933,-0.10621795803308487,-0.18699431419372559
1733751489156412200,2.276412109375,-0.23415076732635498,-0.028148721903562546,-0.13380219042301178
1733751489166388200,2.28638818359375,-0.18649213016033173,0.014563815668225288,-0.0057935044169425964
1733751489176364300,2.2963642578125,-0.11745154112577438,0.017973992973566055,0.16692420840263367
1733751489186340400,2.30634033203125,-0.057244397699832916,0.011743620969355106,0.34694787859916687
1733751489196316200,2.316316162109375,0.008384413085877895,-0.03995738923549652,0.5083996057510376
1733751489206291200,2.326291259765625,0.06103377789258957,-0.09271886944770813,0.6162393093109131
1733751489216267000,2.33626708984375,0.0816224068403244,-0.1130307987332344,0.651742160320282
1733751489226243300,2.346243408203125,0.08972210437059402,-0.07696979492902756,0.618627667427063
1733751489236219100,2.35621923828125,0.13207648694515228,-0.0005029791500419378,0.5495607256889343
1733751489246194200,2.366194091796875,0.2130822241306305,0.0408373698592186,0.4876284897327423
1733751489256170200,2.376170166015625,0.32555311918258667,0.05511750653386116,0.4318200945854187
1733751489266146300,2.386146240234375,0.423129677772522,0.05641539394855499,0.36966800689697266
1733751489276122400,2.396122314453125,0.47305434942245483,0.06404907256364822,0.3134065866470337
1733751489286097400,2.406097412109375,0.4817042052745819,0.05977620929479599,0.2730425298213959
1733751489296073200,2.4160732421875,0.4620189070701599,0.05159391090273857,0.2516333758831024
1733751489306049000,2.426049072265625,0.4318399727344513,0.061038609594106674,0.2542414367198944
1733751489316025300,2.436025390625,0.42077189683914185,0.09929145127534866,0.3012089431285858
1733751489326000000,2.446000244140625,0.42993107438087463,0.1415848284959793,0.37763920426368713
1733751489335976200,2.45597607421875,0.44573426246643066,0.16511864960193634,0.442583292722702
1733751489345952300,2.4659521484375,0.4594729244709015,0.15879546105861664,0.47741883993148804
1733751489355928000,2.475927978515625,0.4614205062389374,0.12276794761419296,0.47962579131126404
1733751489365903000,2.485903076171875,0.4560655951499939,0.08300390094518661,0.438706636428833
1733751489375879200,2.495879150390625,0.443100243806839,0.08244304358959198,0.37243252992630005
1733751489385855200,2.505855224609375,0.43324169516563416,0.049366455525159836,0.312721312046051
1733751489395831000,2.5158310546875,0.41777274012565613,0.023086916655302048,0.27827757596969604
1733751489405806300,2.525806396484375,0.39167726039886475,0.029379475861787796,0.2690264582633972
1733751489415782100,2.5357822265625,0.349255234003067,0.04246571660041809,0.28919458389282227
1733751489425758200,2.54575830078125,0.3059729039669037,0.06357614696025848,0.31912192702293396
1733751489435734300,2.555734375,0.2727542221546173,0.1051827147603035,0.31844815611839294
1733751489445709300,2.565709228515625,0.27146115899086,0.12463928759098053,0.28139740228652954
1733751489455685000,2.57568505859375,0.2857719361782074,0.10026416927576065,0.19608116149902344
1733751489465661200,2.5856611328125,0.2898685038089752,0.0646100714802742,0.08485861867666245
1733751489475637200,2.59563720703125,0.2845245897769928,0.0022593436297029257,-0.016951633617281914
1733751489485612000,2.605612060546875,0.2609778344631195,-0.05438776686787605,-0.06873655319213867
1733751489495588400,2.61558837890625,0.2377135157585144,-0.04640840366482735,-0.06994003057479858
1733751489505564200,2.625564208984375,0.252621054649353,0.028379056602716446,-0.01936965622007847
1733751489515540200,2.635540283203125,0.3093400001525879,0.11673341691493988,0.05547528713941574
1733751489525516300,2.645516357421875,0.3712294101715088,0.18930652737617493,0.13034172356128693
1733751489535491300,2.6554912109375,0.39756834506988525,0.2445269078016281,0.18540151417255402
1733751489545467100,2.665467041015625,0.39684924483299255,0.25473883748054504,0.20780281722545624
1733751489555443200,2.675443115234375,0.38254913687705994,0.20817479491233826,0.20641930401325226
1733751489565419300,2.685419189453125,0.38644829392433167,0.11519540101289749,0.1931176632642746
1733751489575394000,2.69539404296875,0.40069088339805603,0.04013952985405922,0.20100222527980804
1733751489585370400,2.705370361328125,0.41732633113861084,0.04247298091650009,0.20953013002872467
1733751489595346200,2.71534619140625,0.43194282054901123,0.13189341127872467,0.2299853414297104
1733751489605322200,2.725322265625,0.4705651104450226,0.25614669919013977,0.26555928587913513
1733751489615297300,2.73529736328125,0.5333773493766785,0.39665934443473816,0.31329140067100525
1733751489625273300,2.7452734375,0.6098161935806274,0.4758475422859192,0.3549090325832367
1733751489635249200,2.755249267578125,0.661774754524231,0.4848913848400116,0.3711673617362976
1733751489645225200,2.76522509765625,0.6803567409515381,0.4532380700111389,0.3699759840965271
1733751489655200300,2.7752001953125,0.6815703511238098,0.41333141922950745,0.35022276639938354
1733751489665176000,2.785176025390625,0.6799183487892151,0.3646932542324066,0.3276762068271637
1733751489675152400,2.79515234375,0.6904655694961548,0.30670130252838135,0.3217317759990692
1733751489685128200,2.805128173828125,0.7226340174674988,0.25195690989494324,0.34446364641189575
1733751489695103200,2.815103271484375,0.7661415934562683,0.2764015197753906,0.3742644190788269
1733751489705079300,2.825079345703125,0.8165725469589233,0.37448978424072266,0.40865594148635864
1733751489715055000,2.83505517578125,0.8797645568847656,0.46979978680610657,0.44199445843696594
1733751489725031200,2.84503125,0.9364179968833923,0.5376482605934143,0.4583815634250641
1733751489735006200,2.855006103515625,0.9792235493659973,0.5579604506492615,0.4708438217639923
1733751489744982300,2.864982177734375,1.0142406225204468,0.547180712223053,0.49325528740882874
1733751489754958000,2.8749580078125,1.0321884155273438,0.534108579158783,0.5122670531272888
1733751489764934400,2.884934326171875,1.0358532667160034,0.5258376598358154,0.5491890907287598
1733751489774909200,2.8949091796875,1.0264427661895752,0.5575244426727295,0.5968412756919861
1733751489784885200,2.90488525390625,1.0169464349746704,0.6332865953445435,0.647104024887085
1733751489794861300,2.914861328125,1.030324101448059,0.7469732165336609,0.6942563652992249
1733751489804837000,2.924837158203125,1.0844860076904297,0.8620596528053284,0.7358797192573547
1733751489814812200,2.934812255859375,1.1571871042251587,0.9632722735404968,0.7755680084228516
1733751489824787500,2.944787353515625,1.23583984375,0.9887779355049133,0.8415563106536865
1733751489834763500,2.954763427734375,1.2846916913986206,0.9464472532272339,0.9295322299003601
1733751489844739300,2.9647392578125,1.2803058624267578,0.8473733067512512,0.9997376203536987
1733751489854715600,2.974715576171875,1.2613856792449951,0.7887051701545715,1.0045331716537476
1733751489864690400,2.9846904296875,1.2449939250946045,0.7775673866271973,0.9503450989723206
1733751489874666500,2.99466650390625,1.2631170749664307,0.8049010038375854,0.8769174814224243
1733751489884642300,3.004642333984375,1.2973271608352661,0.8212261199951172,0.8091280460357666
1733751489894618600,3.01461865234375,1.3208080530166626,0.8535425066947937,0.7740049362182617
1733751489904593400,3.024593505859375,1.305445671081543,0.8741986751556396,0.7914891242980957
1733751489914569500,3.034569580078125,1.2755413055419922,0.9235313534736633,0.874333918094635
1733751489924545500,3.044545654296875,1.2731519937515259,0.978895902633667,1.01845121383667
1733751489934521300,3.054521240234375,1.2876827716827393,1.029639482498169,1.1664701700210571
1733751489944496400,3.064496337890625,1.3246631622314453,1.1237435340881348,1.2309457063674927
1733751489954472400,3.074472412109375,1.3485244512557983,1.2268939018249512,1.1780869960784912
1733751489964448500,3.084448486328125,1.385571837425232,1.2700104713439941,1.0363324880599976
1733751489974424300,3.09442431640625,1.4302978515625,1.2502394914627075,0.9015166759490967
1733751489984399600,3.104399658203125,1.4394131898880005,1.2038583755493164,0.829953134059906
1733751489994375400,3.11437548828125,1.4210855960845947,1.1606097221374512,0.8061021566390991
1733751490004351500,3.1243515625,1.3757284879684448,1.1387526988983154,0.8005802035331726
1733751490014327600,3.13432763671875,1.3279106616973877,1.1618099212646484,0.790981113910675
1733751490024302600,3.144302490234375,1.3251253366470337,1.1958016157150269,0.7885807752609253
1733751490034278400,3.1542783203125,1.3386869430541992,1.202144980430603,0.7843945622444153
1733751490044254500,3.16425439453125,1.3110637664794922,1.231968879699707,0.7855686545372009
1733751490054230500,3.17423046875,1.2567638158798218,1.24977707862854,0.7837705016136169
1733751490064205300,3.184205322265625,1.225522518157959,1.2107858657836914,0.7862535715103149
1733751490074181600,3.194181640625,1.1806132793426514,1.1402877569198608,0.7480446696281433
1733751490084157400,3.204157470703125,1.124445915222168,1.0445358753204346,0.680150032043457
1733751490094133500,3.214133544921875,1.0444655418395996,0.9461954832077026,0.5655393004417419
1733751490104108500,3.224108642578125,0.9717904925346375,0.8627884387969971,0.4285527169704437
1733751490114084600,3.234084716796875,0.9220341444015503,0.7680739164352417,0.31401705741882324
1733751490124060400,3.244060302734375,0.8796951770782471,0.6810548305511475,0.26014190912246704
1733751490134036500,3.254036376953125,0.7962791323661804,0.631317675113678,0.2487742006778717
1733751490144011500,3.264011474609375,0.6723518371582031,0.6066097617149353,0.25874853134155273
1733751490153987300,3.2739873046875,0.5764263272285461,0.6087061762809753,0.27085578441619873
1733751490163963600,3.283963623046875,0.557278037071228,0.5146915912628174,0.2676372528076172
1733751490173939500,3.293939453125,0.5333442091941833,0.4707672894001007,0.2889593243598938
1733751490183914500,3.30391455078125,0.4787614643573761,0.42798709869384766,0.31898364424705505
1733751490193890600,3.313890625,0.40309253334999084,0.4264816343784332,0.329590767621994
1733751490203866400,3.323866455078125,0.33880409598350525,0.4600923955440521,0.32417213916778564
1733751490213842400,3.333842529296875,0.31599730253219604,0.47497227787971497,0.2985360324382782
1733751490223817500,3.3438173828125,0.3244257867336273,0.46023544669151306,0.26429232954978943
1733751490233793500,3.35379345703125,0.3205120265483856,0.4265288710594177,0.23939868807792664
1733751490243769300,3.363769287109375,0.29480278491973877,0.3849887251853943,0.23239551484584808
1733751490253745700,3.37374560546875,0.24095924198627472,0.34933751821517944,0.23459342122077942
1733751490263720400,3.383720458984375,0.17385512590408325,0.3308718800544739,0.24144233763217926
1733751490273696500,3.393696533203125,0.12373948842287064,0.3333078920841217,0.2499103993177414
1733751490283672600,3.403672607421875,0.10398802906274796,0.3453763425350189,0.2735271155834198
1733751490293648400,3.4136484375,0.11809426546096802,0.3395797312259674,0.28034186363220215
1733751490303624400,3.42362451171875,0.13225768506526947,0.3058462142944336,0.2651371955871582
1733751490313599500,3.433599609375,0.13353094458580017,0.2518860399723053,0.22752082347869873
1733751490323575600,3.443575439453125,0.1225927323102951,0.21215137839317322,0.1763909012079239
1733751490333551400,3.45355126953125,0.10901833325624466,0.1759723424911499,0.1301584243774414
1733751490343527700,3.463527587890625,0.10114331543445587,0.1647239774465561,0.0846419483423233
1733751490353502500,3.47350244140625,0.10400834679603577,0.15578694641590118,0.047818951308727264
1733751490363478500,3.483478515625,0.10728586465120316,0.1486055701971054,0.010604645125567913
1733751490373454600,3.49345458984375,0.11530650407075882,0.12633116543293,-0.018546847626566887
1733751490383430400,3.503430419921875,0.115382120013237,0.12061870098114014,-0.0458361841738224
1733751490393405400,3.513405517578125,0.12174733728170395,0.12831683456897736,-0.07029678672552109
1733751490403381500,3.523381591796875,0.1328272968530655,0.14640837907791138,-0.08211126178503036
1733751490413357600,3.533357666015625,0.13105575740337372,0.20262929797172546,-0.07347862422466278
1733751490423333400,3.54333349609375,0.11241333931684494,0.23573197424411774,-0.05386478453874588
1733751490433308400,3.553308349609375,0.1050419807434082,0.25001025199890137,-0.03545834496617317
1733751490443284500,3.563284423828125,0.11032819747924805,0.26490914821624756,-0.04780541732907295
1733751490453260500,3.573260498046875,0.1245095282793045,0.2797562777996063,-0.07763868570327759
1733751490463236600,3.583236572265625,0.13906770944595337,0.27127745747566223,-0.1181609183549881
1733751490473211600,3.593211669921875,0.14207841455936432,0.25868868827819824,-0.16734817624092102
1733751490483187500,3.6031875,0.13229362666606903,0.2607470154762268,-0.19582684338092804
1733751490493163500,3.61316357421875,0.1330861747264862,0.2609403431415558,-0.20786486566066742
1733751490503139600,3.6231396484375,0.13312040269374847,0.2492322027683258,-0.21625284850597382
1733751490513114400,3.6331142578125,0.12200409919023514,0.21079853177070618,-0.21299633383750916
1733751490523090400,3.64309033203125,0.09433593600988388,0.17633381485939026,-0.21192294359207153
1733751490533066500,3.65306640625,0.06577859073877335,0.13990843296051025,-0.1921716034412384
1733751490543042300,3.663042236328125,0.03379324823617935,0.07702450454235077,-0.17613306641578674
1733751490553017300,3.673017333984375,-0.0044438824988901615,-0.00985100120306015,-0.17329998314380646
1733751490562993400,3.682993408203125,-0.040842145681381226,-0.10308725386857986,-0.1752200871706009
1733751490572969500,3.692969482421875,-0.07970964908599854,-0.19883322715759277,-0.19142062962055206
1733751490582945500,3.702945556640625,-0.11330466717481613,-0.24919793009757996,-0.20028601586818695
1733751490592920600,3.712920654296875,-0.15105178952217102,-0.2766993045806885,-0.18464286625385284
1733751490602896400,3.722896484375,-0.19003510475158691,-0.2924898564815521,-0.14557607471942902
1733751490612872400,3.73287255859375,-0.24280723929405212,-0.2990281581878662,-0.0943102240562439
1733751490622848500,3.7428486328125,-0.29526564478874207,-0.33466267585754395,-0.0565246045589447
1733751490632823600,3.752823486328125,-0.3385465145111084,-0.4341394603252411,-0.050829436630010605
1733751490642799400,3.76279931640625,-0.38868632912635803,-0.5707495808601379,-0.09761978685855865
1733751490652775400,3.772775390625,-0.4716035723686218,-0.6943660378456116,-0.18442659080028534
1733751490662751500,3.78275146484375,-0.5659632086753845,-0.8059433102607727,-0.28395286202430725
1733751490672726300,3.792726318359375,-0.6456420421600342,-0.8914425373077393,-0.3843436539173126
1733751490682702600,3.80270263671875,-0.7143169641494751,-0.9150890111923218,-0.4939705431461334
1733751490692678400,3.812678466796875,-0.7576743364334106,-0.8924936652183533,-0.5894994735717773
1733751490702654500,3.822654541015625,-0.7910459041595459,-0.8335420489311218,-0.6625076532363892
1733751490712630500,3.832630615234375,-0.8157216906547546,-0.7383257746696472,-0.6940181851387024
1733751490722605600,3.84260546875,-0.843445897102356,-0.6796998977661133,-0.6939684152603149
1733751490732581400,3.852581298828125,-0.8937847018241882,-0.6776806712150574,-0.7043776512145996
1733751490742557400,3.862557373046875,-0.9607680439949036,-0.7313631772994995,-0.7186185717582703
1733751490752532500,3.872532470703125,-1.0413800477981567,-0.8075807094573975,-0.7344172596931458
1733751490762508300,3.88250830078125,-1.1134319305419922,-0.8566094636917114,-0.7339831590652466
1733751490772484600,3.892484619140625,-1.1697499752044678,-0.8670026659965515,-0.704291820526123
1733751490782460400,3.90246044921875,-1.2062737941741943,-0.8325240015983582,-0.6478641033172607
1733751490792436500,3.9124365234375,-1.2178500890731812,-0.7924634218215942,-0.5762966871261597
1733751490802411500,3.92241162109375,-1.2140458822250366,-0.7836487889289856,-0.5116904973983765
1733751490812387600,3.9323876953125,-1.2157825231552124,-0.7981451749801636,-0.4828551709651947
1733751490822364400,3.942364501953125,-1.2380284070968628,-0.8320144414901733,-0.4770931303501129
1733751490832340200,3.95234033203125,-1.2617864608764648,-0.8589576482772827,-0.49441221356391907
1733751490842315300,3.962315185546875,-1.2634226083755493,-0.8830382823944092,-0.5216423273086548
1733751490852291300,3.972291259765625,-1.2582603693008423,-0.9091154336929321,-0.5510212779045105
1733751490862267100,3.98226708984375,-1.2515580654144287,-0.9224756360054016,-0.5789735317230225
1733751490872243500,3.992243408203125,-1.2583835124969482,-0.9447066783905029,-0.6095018982887268
1733751490882218200,4.00221826171875,-1.295152187347412,-0.9780772924423218,-0.6193536520004272
1733751490892194300,4.0121943359375,-1.3411502838134766,-0.9924455881118774,-0.611377477645874
1733751490902170400,4.02217041015625,-1.3659042119979858,-0.9700868129730225,-0.5765657424926758
1733751490912146400,4.032146484375,-1.3503808975219727,-0.903554379940033,-0.5239110589027405
1733751490922121200,4.042121337890625,-1.3079326152801514,-0.8309757709503174,-0.4831736981868744
1733751490932097300,4.05209716796875,-1.2610199451446533,-0.7791357040405273,-0.48570024967193604
1733751490942073300,4.0620732421875,-1.2475006580352783,-0.7756270170211792,-0.5174976587295532
1733751490952049200,4.072049072265625,-1.2733255624771118,-0.8055910468101501,-0.5881707668304443
1733751490962024200,4.082024169921875,-1.3206838369369507,-0.8429755568504333,-0.675324022769928
1733751490972000300,4.092000244140625,-1.3470553159713745,-0.8738698363304138,-0.7345430850982666
1733751490981976300,4.101976318359375,-1.3427056074142456,-0.8825188279151917,-0.7550510168075562
1733751490991952400,4.111952392578125,-1.3256869316101074,-0.842964231967926,-0.7438332438468933
1733751491001927400,4.121927490234375,-1.304829478263855,-0.7954420447349548,-0.6878743767738342
1733751491011903200,4.1319033203125,-1.2841013669967651,-0.7740755081176758,-0.6305924654006958
1733751491021879300,4.14187939453125,-1.2839747667312622,-0.7767226099967957,-0.5926632285118103
1733751491031855400,4.15185546875,-1.3028172254562378,-0.7807070016860962,-0.5624406337738037
1733751491041830400,4.161830322265625,-1.31719172000885,-0.7801770567893982,-0.5195060968399048
1733751491051806200,4.17180615234375,-1.3027280569076538,-0.7798423171043396,-0.4682384133338928
1733751491061782300,4.1817822265625,-1.281398892402649,-0.7936146259307861,-0.4407461881637573
1733751491071758300,4.19175830078125,-1.2679799795150757,-0.8293073773384094,-0.45639732480049133
1733751491081733000,4.201733154296875,-1.2542996406555176,-0.8692774772644043,-0.50139981508255
1733751491091709400,4.21170947265625,-1.2619210481643677,-0.8973844647407532,-0.5569853186607361
1733751491101685200,4.221685302734375,-1.2798629999160767,-0.9035521745681763,-0.5969717502593994
1733751491111661300,4.231661376953125,-1.269094467163086,-0.8732283115386963,-0.6107800006866455
1733751491121636400,4.24163623046875,-1.2097667455673218,-0.8434328436851501,-0.6000977158546448
1733751491131612400,4.2516123046875,-1.127028465270996,-0.8042218089103699,-0.5814300179481506
1733751491141588200,4.261588134765625,-1.0572956800460815,-0.7579183578491211,-0.5622539520263672
1733751491151564300,4.271564208984375,-0.9875895380973816,-0.7077390551567078,-0.5449692010879517
1733751491161539300,4.281539306640625,-0.922244668006897,-0.6562223434448242,-0.533130943775177
1733751491171515100,4.29151513671875,-0.8662069439888,-0.6464021801948547,-0.5039445757865906
1733751491181491500,4.301491455078125,-0.8234524130821228,-0.66895991563797,-0.476726233959198
1733751491191467300,4.31146728515625,-0.790039598941803,-0.7182268500328064,-0.4488741159439087
1733751491201442300,4.3214423828125,-0.7783146500587463,-0.7523224949836731,-0.41673803329467773
1733751491211418400,4.33141845703125,-0.78387850522995,-0.7357667088508606,-0.35622915625572205
1733751491221394200,4.341394287109375,-0.7740647792816162,-0.6544377207756042,-0.2592029571533203
1733751491231370200,4.351370361328125,-0.7120802402496338,-0.5306302905082703,-0.15866196155548096
1733751491241345300,4.36134521484375,-0.6304638981819153,-0.4242056906223297,-0.08985210955142975
1733751491251321300,4.3713212890625,-0.5723601579666138,-0.35525190830230713,-0.06931008398532867
1733751491261297200,4.381297119140625,-0.5388351082801819,-0.3592875897884369,-0.0892043486237526
1733751491271273500,4.3912734375,-0.5308070182800293,-0.40443241596221924,-0.14685273170471191
1733751491281248300,4.401248291015625,-0.5453439950942993,-0.43846192955970764,-0.20996929705142975
1733751491291224300,4.411224365234375,-0.5519925951957703,-0.4483981728553772,-0.25535595417022705
1733751491301200400,4.421200439453125,-0.5241683721542358,-0.41390395164489746,-0.26871341466903687
1733751491311176200,4.43117626953125,-0.46130046248435974,-0.36605599522590637,-0.25492969155311584
1733751491321151200,4.441151123046875,-0.3763723373413086,-0.33511534333229065,-0.22996290028095245
1733751491331127300,4.451127197265625,-0.3201413154602051,-0.3024340867996216,-0.21208296716213226
1733751491341103400,4.461103271484375,-0.3135998845100403,-0.2774786055088043,-0.20496132969856262
1733751491351079200,4.4710791015625,-0.3350282311439514,-0.25281134247779846,-0.20967060327529907
1733751491361054500,4.481054443359375,-0.36537057161331177,-0.22407777607440948,-0.19457028806209564
1733751491371030300,4.4910302734375,-0.37177574634552,-0.20082731544971466,-0.16306962072849274
1733751491381006300,4.50100634765625,-0.3584657609462738,-0.16488122940063477,-0.1322767585515976
1733751491390982400,4.510982421875,-0.3426380455493927,-0.10502800345420837,-0.11336459219455719
1733751491400957400,4.52095751953125,-0.3007742762565613,-0.060093954205513,-0.10648353397846222
1733751491410933200,4.530933349609375,-0.2558691203594208,-0.053558822721242905,-0.11235394328832626
1733751491420909300,4.540909423828125,-0.23759828507900238,-0.07015883177518845,-0.11896836757659912
1733751491430885400,4.550885498046875,-0.25165310502052307,-0.07670781016349792,-0.10237101465463638
1733751491440860200,4.560860107421875,-0.262451171875,-0.08434219658374786,-0.09239710867404938
1733751491450836500,4.57083642578125,-0.2622831165790558,-0.09365660697221756,-0.118073970079422
1733751491460812300,4.580812255859375,-0.2531036138534546,-0.08433447033166885,-0.167130708694458
1733751491470788400,4.590788330078125,-0.22013528645038605,-0.07709839195013046,-0.21395866572856903
1733751491480763100,4.60076318359375,-0.17814479768276215,-0.05873768776655197,-0.2511310279369354
1733751491490739500,4.610739501953125,-0.1282922774553299,-0.033721283078193665,-0.2769807279109955
1733751491500715300,4.62071533203125,-0.08173742145299911,-0.012099883519113064,-0.3079807758331299
1733751491510691300,4.63069140625,-0.04383797571063042,-0.0019076993921771646,-0.33534181118011475
1733751491520666400,4.640666259765625,-0.0419723317027092,-0.016243571415543556,-0.3597419857978821
1733751491530642200,4.65064208984375,-0.06761990487575531,-0.060457371175289154,-0.3901694118976593
1733751491540618500,4.660618408203125,-0.09884335845708847,-0.12178419530391693,-0.4396216869354248
1733751491550594300,4.67059423828125,-0.11132346093654633,-0.16961616277694702,-0.46741151809692383
1733751491560569300,4.6805693359375,-0.0786345899105072,-0.19998358190059662,-0.4420957565307617
1733751491570545200,4.690545166015625,-0.01960109733045101,-0.18466587364673615,-0.38739922642707825
1733751491580521500,4.700521484375,0.0421842485666275,-0.12222709506750107,-0.3220600187778473
1733751491590497300,4.710497314453125,0.09503041952848434,-0.04146327078342438,-0.24734875559806824
1733751491600472300,4.720472412109375,0.12818709015846252,0.05107514560222626,-0.16533604264259338
1733751491610448400,4.730448486328125,0.15451589226722717,0.12431154400110245,-0.09846886247396469
1733751491620424200,4.740424072265625,0.1637227088212967,0.1705826371908188,-0.048602234572172165
1733751491630400500,4.750400390625,0.17494447529315948,0.18901675939559937,-0.004367395769804716
1733751491640376300,4.760376220703125,0.18894825875759125,0.1818951666355133,0.04141879454255104
1733751491650351400,4.770351318359375,0.1906431019306183,0.14218556880950928,0.08599824458360672
1733751491660327200,4.7803271484375,0.17862862348556519,0.11775044351816177,0.11998489499092102
1733751491670303200,4.79030322265625,0.18718083202838898,0.10770446807146072,0.1380334198474884
1733751491680278300,4.8002783203125,0.2287149876356125,0.10877327620983124,0.16533617675304413
1733751491690254300,4.81025439453125,0.27704018354415894,0.10733570158481598,0.21218012273311615
1733751491700230400,4.82023046875,0.2918396294116974,0.11542806774377823,0.24959418177604675
1733751491710206200,4.830206298828125,0.26295605301856995,0.11726512014865875,0.27101263403892517
1733751491720182500,4.8401826171875,0.22406774759292603,0.10612787306308746,0.2686771750450134
1733751491730157300,4.8501572265625,0.1917707920074463,0.0929926335811615,0.2558172941207886
1733751491740133400,4.86013330078125,0.1900120973587036,0.10854989290237427,0.2515898048877716
1733751491750109200,4.870109130859375,0.22411280870437622,0.13311168551445007,0.2658688724040985
1733751491760085200,4.880085205078125,0.26359429955482483,0.1629527062177658,0.2932651937007904
1733751491770060300,4.890060302734375,0.2876642048358917,0.20066386461257935,0.33003464341163635
1733751491780036000,4.9000361328125,0.31011661887168884,0.23057347536087036,0.34748575091362
1733751491790012400,4.910012451171875,0.32495230436325073,0.23216551542282104,0.33822354674339294
1733751491799988200,4.91998828125,0.32231074571609497,0.19175174832344055,0.30071550607681274
1733751491809963300,4.92996337890625,0.29487618803977966,0.15293271839618683,0.2611159086227417
1733751491819939300,4.939939208984375,0.2707299590110779,0.14388152956962585,0.2366413176059723
1733751491829915100,4.9499150390625,0.2889443635940552,0.19896608591079712,0.21490299701690674
1733751491839891000,4.959890869140625,0.34646204113960266,0.314611554145813,0.22530528903007507
1733751491849866200,4.9698662109375,0.4361639618873596,0.39572423696517944,0.2699079215526581
1733751491859842000,4.979842041015625,0.5339683890342712,0.3909880816936493,0.3260394036769867
1733751491869817900,4.98981787109375,0.5972192883491516,0.2916580140590668,0.34870341420173645
1733751491879794200,4.999794189453125,0.590135931968689,0.1987895965576172,0.32030317187309265
1733751491889769000,5.00976904296875,0.5632803440093994,0.13343188166618347,0.2630864977836609
1733751491899745000,5.0197451171875,0.5779579281806946,0.10375083237886429,0.24106483161449432
1733751491909721000,5.02972119140625,0.6377940773963928,0.18472610414028168,0.21366623044013977
1733751491919697200,5.039697265625,0.7212274670600891,0.33803361654281616,0.2158295065164566
1733751491929672000,5.049671875,0.8324027061462402,0.46743103861808777,0.30074599385261536
1733751491939648300,5.059648193359375,0.9306691884994507,0.5379349589347839,0.4659120738506317
1733751491949624000,5.0696240234375,0.9696623682975769,0.601206362247467,0.6067977547645569
1733751491959599900,5.079599853515625,0.9395816922187805,0.6590774655342102,0.6629413962364197
1733751491969575200,5.0895751953125,0.924083948135376,0.7035368084907532,0.6500940918922424
1733751491979551000,5.099551025390625,0.9886910915374756,0.7164028286933899,0.5848143100738525
1733751491989527000,5.109527099609375,1.1108713150024414,0.730139434337616,0.4792434275150299
1733751491999503000,5.119503173828125,1.232603669166565,0.7279586791992188,0.36161696910858154
1733751492009478100,5.12947802734375,1.3262039422988892,0.7012559771537781,0.26961567997932434
1733751492019454000,5.139453857421875,1.3726361989974976,0.6561987400054932,0.21565619111061096
1733751492029430300,5.14943017578125,1.3664650917053223,0.6396973133087158,0.18479175865650177
1733751492039406000,5.159406005859375,1.3276139497756958,0.6411910653114319,0.15382808446884155
1733751492049381000,5.169381103515625,1.2461613416671753,0.6751389503479004,0.12469975650310516
1733751492059357200,5.179357177734375,1.194413423538208,0.5951790809631348,0.1091114729642868
1733751492069333000,5.1893330078125,1.1899209022521973,0.5309457778930664,0.11256852746009827
1733751492079309000,5.19930908203125,1.1903493404388428,0.6036127209663391,0.1340779811143875
1733751492089283800,5.209283935546875,1.1608386039733887,0.7886885404586792,0.18994656205177307
1733751492099260200,5.21926025390625,1.1513737440109253,0.9552362561225891,0.23460371792316437
1733751492109236000,5.229236083984375,1.1533644199371338,1.0646215677261353,0.24072019755840302
1733751492119212000,5.2392119140625,1.1456645727157593,1.0860190391540527,0.23562513291835785
1733751492129187000,5.24918701171875,1.1243207454681396,1.0284709930419922,0.22912435233592987
1733751492139163100,5.2591630859375,1.1010748147964478,0.9331256151199341,0.19613789021968842
1733751492149139200,5.26913916015625,1.1114604473114014,0.8214854001998901,0.155823215842247
1733751492159115000,5.279114990234375,1.125006914138794,0.7367745637893677,0.12792804837226868
1733751492169090000,5.289090087890625,1.1281235218048096,0.7003300189971924,0.11770975589752197
1733751492179065900,5.29906591796875,1.1168396472930908,0.7063820958137512,0.11236154288053513
1733751492189042200,5.309042236328125,1.1128888130187988,0.7247136831283569,0.1050061583518982
1733751492199018000,5.31901806640625,1.1084842681884766,0.7536677718162537,0.09305877238512039
1733751492208993000,5.328992919921875,1.1001440286636353,0.79129958152771,0.0767141580581665
1733751492218969000,5.338968994140625,1.072432041168213,0.8488935828208923,0.07700510323047638
1733751492228945000,5.34894482421875,1.040459156036377,0.9060471653938293,0.10342925041913986
1733751492238921200,5.358921142578125,1.0239553451538086,0.9376541972160339,0.14628592133522034
1733751492248896000,5.36889599609375,1.0346300601959229,0.9554137587547302,0.18556807935237885
1733751492258872000,5.3788720703125,1.04246985912323,0.9493765234947205,0.1979231983423233
1733751492268847900,5.388847900390625,1.0399353504180908,0.9035366177558899,0.19560785591602325
1733751492278824200,5.39882421875,1.011927843093872,0.8713108897209167,0.19649386405944824
1733751492288799000,5.408799072265625,0.997865617275238,0.8797560334205627,0.20752787590026855
1733751492298775000,5.418775146484375,1.0204483270645142,0.8732494711875916,0.2247513234615326
1733751492308751000,5.428751220703125,1.054522156715393,0.8741142153739929,0.2457503378391266
1733751492318727000,5.438726806640625,1.0690780878067017,0.8371571898460388,0.25210288166999817
1733751492328702000,5.448701904296875,1.0451370477676392,0.8045238852500916,0.2365604043006897
1733751492338678000,5.458677978515625,1.0276031494140625,0.7729869484901428,0.22493702173233032
1733751492348654000,5.468654052734375,1.0262409448623657,0.7674601078033447,0.21108432114124298
1733751492358630000,5.4786298828125,1.0430611371994019,0.7525745034217834,0.20511305332183838
1733751492368605200,5.488605224609375,1.0594204664230347,0.6551586985588074,0.2230646312236786
1733751492378581000,5.4985810546875,1.025347113609314,0.5976331233978271,0.23681920766830444
1733751492388557000,5.50855712890625,0.9640246033668518,0.5703895092010498,0.23894307017326355
1733751492398533000,5.518533203125,0.8786161541938782,0.5971086025238037,0.2410784512758255
1733751492408508200,5.528508056640625,0.8090306520462036,0.667019784450531,0.25585150718688965
1733751492418484000,5.53848388671875,0.7690170407295227,0.7229349613189697,0.2817135453224182
1733751492428460000,5.5484599609375,0.7617175579071045,0.7391762137413025,0.3012806177139282
1733751492438436000,5.55843603515625,0.7678821682929993,0.7385651469230652,0.29840680956840515
1733751492448411000,5.568410888671875,0.7533189058303833,0.7042276859283447,0.2723648250102997
1733751492458387200,5.57838720703125,0.7340108752250671,0.6543982028961182,0.22004245221614838
1733751492468363000,5.588363037109375,0.7200609445571899,0.6075921058654785,0.16315734386444092
1733751492478339000,5.598339111328125,0.7022637724876404,0.5998579263687134,0.1286134421825409
1733751492488314000,5.608314208984375,0.6788721680641174,0.6007183790206909,0.12685708701610565
1733751492498290200,5.618290283203125,0.6499060988426208,0.5744022727012634,0.11978461593389511
1733751492508266000,5.628265869140625,0.6235865950584412,0.5223768949508667,0.1018836498260498
1733751492518242000,5.638241943359375,0.582931399345398,0.461404025554657,0.07758820801973343
1733751492528217000,5.648217041015625,0.5423498749732971,0.4303624927997589,0.08439178764820099
1733751492538193000,5.65819287109375,0.5325759649276733,0.4357543885707855,0.12603086233139038
1733751492548169200,5.668169189453125,0.5272712111473083,0.46326377987861633,0.18706172704696655
1733751492558145000,5.67814501953125,0.5189526677131653,0.483735054731369,0.24469633400440216
1733751492568120000,5.6881201171875,0.4992793798446655,0.49248701333999634,0.27601298689842224
1733751492578096000,5.69809619140625,0.46974289417266846,0.49326077103614807,0.2901359796524048
1733751492588072000,5.708072021484375,0.4352932870388031,0.48575782775878906,0.28952160477638245
1733751492598048000,5.718048095703125,0.406444251537323,0.46097832918167114,0.26271581649780273
1733751492608023000,5.72802294921875,0.37830236554145813,0.4255883991718292,0.23462212085723877
1733751492617999000,5.7379990234375,0.3437570035457611,0.38818636536598206,0.209408700466156
1733751492627975000,5.747974853515625,0.29811546206474304,0.3364960253238678,0.1984415352344513
1733751492637951200,5.757951171875,0.25062811374664307,0.26943716406822205,0.19705335795879364
1733751492647926000,5.767926025390625,0.20820103585720062,0.2070275992155075,0.21349331736564636
1733751492657902000,5.777902099609375,0.1622297614812851,0.13662590086460114,0.25605982542037964
1733751492667878100,5.787878173828125,0.10554677248001099,0.08080578595399857,0.3032044470310211
1733751492677854000,5.79785400390625,0.035535186529159546,0.0490277074277401,0.34401801228523254
1733751492687829000,5.8078291015625,-0.022599490359425545,0.006365731358528137,0.3692719638347626
1733751492697805000,5.81780517578125,-0.08072930574417114,-0.019909504801034927,0.36575302481651306
1733751492707781000,5.827781005859375,-0.1323040872812271,-0.047637272626161575,0.3159167766571045
1733751492717757000,5.8377568359375,-0.17395107448101044,-0.08708245307207108,0.2229909598827362
1733751492727732000,5.84773193359375,-0.19458338618278503,-0.14264798164367676,0.1183881163597107
1733751492737708000,5.8577080078125,-0.20960745215415955,-0.19580459594726562,0.0026495472993701696
1733751492747684000,5.86768408203125,-0.23319374024868011,-0.24214892089366913,-0.08926866203546524
1733751492757660200,5.87766015625,-0.27006328105926514,-0.27456870675086975,-0.16231770813465118
1733751492767635200,5.88763525390625,-0.30802610516548157,-0.2937208116054535,-0.24111132323741913
1733751492777611000,5.897611083984375,-0.34270286560058594,-0.30591872334480286,-0.3134196996688843
1733751492787587000,5.907587158203125,-0.3700394034385681,-0.33666783571243286,-0.346981406211853
1733751492797563100,5.917563232421875,-0.3907005488872528,-0.3898974359035492,-0.355923056602478
1733751492807538000,5.927537841796875,-0.4232931137084961,-0.4513304531574249,-0.3424972593784332
1733751492817514000,5.937513916015625,-0.471810519695282,-0.48790520429611206,-0.31686148047447205
1733751492827489300,5.9474892578125,-0.5155513286590576,-0.504880964756012,-0.27731195092201233
1733751492837465300,5.95746533203125,-0.547996461391449,-0.5145494937896729,-0.23609767854213715
1733751492847440100,5.967440185546875,-0.5756238102912903,-0.522235631942749,-0.2214023619890213
1733751492857416400,5.97741650390625,-0.5877728462219238,-0.5495328903198242,-0.23063252866268158
1733751492867392300,5.987392333984375,-0.6014710664749146,-0.5914443731307983,-0.2756199836730957
1733751492877368300,5.997368408203125,-0.6191544532775879,-0.6185929179191589,-0.31683671474456787
1733751492887343400,6.00734326171875,-0.6597915887832642,-0.6441975831985474,-0.3521486222743988
1733751492897319400,6.0173193359375,-0.705254077911377,-0.6444474458694458,-0.3572745621204376
1733751492907295200,6.027295166015625,-0.7452555894851685,-0.6023218035697937,-0.3127710223197937
1733751492917271300,6.037271240234375,-0.7697010636329651,-0.5296604037284851,-0.2192467749118805
1733751492927246300,6.047246337890625,-0.7946836352348328,-0.45108968019485474,-0.11150246113538742
1733751492937222100,6.05722216796875,-0.8304857015609741,-0.4179040193557739,-0.029987066984176636
1733751492947198500,6.067198486328125,-0.8691284656524658,-0.4359908699989319,0.0057251229882240295
1733751492957174300,6.07717431640625,-0.9136474132537842,-0.4999629557132721,-0.013416220434010029
1733751492967149300,6.0871494140625,-0.9566119313240051,-0.5514525175094604,-0.05934908986091614
1733751492977125400,6.09712548828125,-0.9877996444702148,-0.57364422082901,-0.1113906279206276
1733751492987101400,6.107101318359375,-0.9935283660888672,-0.5825314521789551,-0.14633317291736603
1733751492997077200,6.1170771484375,-1.0106998682022095,-0.5826672315597534,-0.18183806538581848
1733751493007052500,6.127052490234375,-1.0629031658172607,-0.6109305620193481,-0.23862864077091217
1733751493017028400,6.1370283203125,-1.141347885131836,-0.6736524105072021,-0.3176548182964325
1733751493027004200,6.147004150390625,-1.2162435054779053,-0.7655836343765259,-0.4222078323364258
1733751493036980500,6.15698046875,-1.2838605642318726,-0.8458675146102905,-0.5240679383277893
1733751493046955300,6.166955322265625,-1.3351352214813232,-0.9087697267532349,-0.5898853540420532
1733751493056931300,6.176931396484375,-1.3703128099441528,-0.9362698793411255,-0.632987380027771
1733751493066907400,6.186907470703125,-1.3751029968261719,-0.9510658383369446,-0.6686913371086121
1733751493076883200,6.19688330078125,-1.3735650777816772,-0.9582352042198181,-0.7075159549713135
1733751493086858200,6.206858154296875,-1.3811931610107422,-0.9716628789901733,-0.7586166858673096
1733751493096834300,6.216834228515625,-1.3977434635162354,-0.9955015778541565,-0.825891375541687
1733751493106810400,6.226810302734375,-1.4177019596099854,-1.0140339136123657,-0.9003328680992126
1733751493116786200,6.2367861328125,-1.4297034740447998,-1.00404691696167,-0.9747024774551392
1733751493126761200,6.24676123046875,-1.4228397607803345,-1.008771300315857,-1.0154070854187012
1733751493136737300,6.2567373046875,-1.4113081693649292,-1.0128990411758423,-1.0473874807357788
1733751493146713300,6.26671337890625,-1.3980001211166382,-1.0096033811569214,-1.0691157579421997
1733751493156689400,6.276689453125,-1.3870549201965332,-0.9951408505439758,-1.0925393104553223
1733751493166664400,6.28666455078125,-1.370957374572754,-0.9581839442253113,-1.1070750951766968
1733751493176640300,6.29664013671875,-1.350233554840088,-0.9016746282577515,-1.0886112451553345
1733751493186616300,6.3066162109375,-1.3363572359085083,-0.8143019080162048,-1.0379341840744019
1733751493196592400,6.31659228515625,-1.3106684684753418,-0.7100704908370972,-0.9637521505355835
1733751493206567200,6.326567138671875,-1.2679460048675537,-0.616152822971344,-0.8866094350814819
1733751493216543200,6.336543212890625,-1.2105185985565186,-0.5371714234352112,-0.7810207605361938
1733751493226519300,6.346519287109375,-1.1412830352783203,-0.47880294919013977,-0.6653700470924377
1733751493236495400,6.356495361328125,-1.0697497129440308,-0.449858695268631,-0.5736528635025024
1733751493246470100,6.36647021484375,-0.9883373379707336,-0.4547429382801056,-0.5428371429443359
1733751493256446500,6.376446533203125,-0.9329506158828735,-0.4851149618625641,-0.5762065649032593
1733751493266422300,6.38642236328125,-0.9073954820632935,-0.5341991186141968,-0.643843948841095
1733751493276398300,6.3963984375,-0.8970182538032532,-0.5581551194190979,-0.7235690355300903
1733751493286373400,6.406373291015625,-0.8612126111984253,-0.5361265540122986,-0.770135223865509
1733751493296349200,6.41634912109375,-0.7965940237045288,-0.4543982148170471,-0.7495003342628479
1733751493306325200,6.4263251953125,-0.7452285885810852,-0.3525964617729187,-0.6842589974403381
1733751493316301300,6.43630126953125,-0.7161597013473511,-0.2564634382724762,-0.6015245914459229
1733751493326276400,6.4462763671875,-0.7090834379196167,-0.21606194972991943,-0.5255043506622314
1733751493336252200,6.456252197265625,-0.7183045148849487,-0.22754237055778503,-0.4642889201641083
1733751493346228500,6.466228515625,-0.7436407804489136,-0.2700765132904053,-0.41739121079444885
1733751493356204300,6.476204345703125,-0.7576406002044678,-0.31765493750572205,-0.380745530128479
1733751493366179300,6.486179443359375,-0.7418144941329956,-0.358904629945755,-0.362887978553772
1733751493376155400,6.4961552734375,-0.7182795405387878,-0.3633657693862915,-0.3540038764476776
1733751493386131200,6.506131103515625,-0.7120658159255981,-0.34190067648887634,-0.36796095967292786
1733751493396107300,6.516107177734375,-0.7288879156112671,-0.3185194134712219,-0.37245726585388184
1733751493406082300,6.526082275390625,-0.7691650390625,-0.30843615531921387,-0.35988157987594604
1733751493416058400,6.536058349609375,-0.8368162512779236,-0.2820640504360199,-0.32766035199165344
1733751493426034200,6.5460341796875,-0.9055492877960205,-0.2514967918395996,-0.2755180299282074
1733751493436010200,6.55601025390625,-0.9451349973678589,-0.21183131635189056,-0.19775624573230743
1733751493445985300,6.5659853515625,-0.9505361914634705,-0.17536091804504395,-0.1356198936700821
1733751493455961300,6.57596142578125,-0.9433542490005493,-0.16880084574222565,-0.10072063654661179
1733751493465937400,6.5859375,-0.9348433017730713,-0.18383626639842987,-0.11377119272947311
1733751493475913200,6.595913330078125,-0.9075539708137512,-0.2253425568342209,-0.14281272888183594
1733751493485888300,6.60588818359375,-0.863178014755249,-0.27154281735420227,-0.1817697137594223
1733751493495864300,6.6158642578125,-0.8272196650505066,-0.29741013050079346,-0.21477572619915009
1733751493505840400,6.62584033203125,-0.8012788891792297,-0.297258585691452,-0.22205999493598938
1733751493515816200,6.635816162109375,-0.767746090888977,-0.28352445363998413,-0.19355647265911102
1733751493525791500,6.64579150390625,-0.7379844784736633,-0.26544079184532166,-0.15225616097450256
1733751493535767300,6.655767333984375,-0.7235752940177917,-0.23147384822368622,-0.10569151490926743
1733751493545743000,6.6657431640625,-0.7170382738113403,-0.19099698960781097,-0.05008790269494057
1733751493555719400,6.675719482421875,-0.7055793404579163,-0.15718461573123932,-0.0039885682053864
1733751493565694200,6.685694091796875,-0.6743388772010803,-0.16037775576114655,0.01534305140376091
1733751493575670300,6.695670166015625,-0.6210469007492065,-0.1834351271390915,0.010978130623698235
1733751493585646300,6.705646240234375,-0.5441845655441284,-0.2323603332042694,-0.024164410308003426
1733751493595622400,6.715622314453125,-0.47110557556152344,-0.2611962556838989,-0.06293950229883194
1733751493605597200,6.72559716796875,-0.4065529406070709,-0.2774910628795624,-0.0625472217798233
1733751493615573500,6.735573486328125,-0.3509790599346161,-0.2554093897342682,-0.03265608847141266
1733751493625549300,6.74554931640625,-0.3012767434120178,-0.21998240053653717,0.008500670082867146
1733751493635525000,6.755525146484375,-0.2665577530860901,-0.17217111587524414,0.04761432856321335
1733751493645500400,6.76550048828125,-0.25250986218452454,-0.10374759137630463,0.0847715511918068
1733751493655476200,6.775476318359375,-0.2335141897201538,-0.03578629344701767,0.13352558016777039
1733751493665452300,6.785452392578125,-0.196216881275177,0.012866197153925896,0.1824614405632019
1733751493675428400,6.795428466796875,-0.14271612465381622,0.04073822498321533,0.2237129509449005
1733751493685403400,6.8054033203125,-0.08590397983789444,0.05962216854095459,0.2641328275203705
1733751493695379200,6.815379150390625,-0.03172309696674347,0.06216588243842125,0.27885687351226807
1733751493705355500,6.82535546875,0.013656635768711567,0.0638442113995552,0.2748296558856964
1733751493715331300,6.835331298828125,0.035622525960206985,0.06819003820419312,0.25957992672920227
1733751493725306400,6.845306396484375,0.055423397570848465,0.060969941318035126,0.22632823884487152
1733751493735282400,6.855282470703125,0.07397192716598511,0.041643910109996796,0.16741962730884552
1733751493745258200,6.86525830078125,0.0952678918838501,0.003080809023231268,0.10719942301511765
1733751493755234300,6.875234375,0.12102942913770676,-0.032210417091846466,0.07019422203302383
1733751493765209000,6.885208984375,0.1386300027370453,-0.034904737025499344,0.055984657257795334
1733751493775185400,6.895185302734375,0.1463705152273178,-0.032187193632125854,0.04470853880047798
1733751493785161200,6.9051611328125,0.16017714142799377,-0.03701523691415787,0.009451216086745262
1733751493795137300,6.91513720703125,0.1827409416437149,-0.019861742854118347,-0.021111737936735153
1733751493805112300,6.9251123046875,0.23010046780109406,0.008748330175876617,-0.04588313400745392
1733751493815088400,6.93508837890625,0.2848432660102844,0.06481687724590302,-0.04395437613129616
1733751493825064700,6.945064697265625,0.33308908343315125,0.123985655605793,-0.01779494434595108
1733751493835040500,6.95504052734375,0.3878247141838074,0.17767095565795898,0.02871326357126236
1733751493845015600,6.965015625,0.4420136511325836,0.21973532438278198,0.08119697123765945
1733751493854991400,6.974991455078125,0.48017066717147827,0.24003095924854279,0.13139182329177856
1733751493864967700,6.9849677734375,0.48612284660339355,0.222177654504776,0.13937704265117645
1733751493874943500,6.994943603515625,0.4713080823421478,0.1519097089767456,0.10270274430513382
1733751493884918500,7.00491845703125,0.4343881607055664,0.0625007376074791,0.015009374357759953
1733751493894894600,7.01489453125,0.3997398316860199,-0.04130098968744278,-0.08014602959156036
1733751493904870400,7.024870361328125,0.40672290325164795,-0.14307448267936707,-0.13352349400520325
1733751493914846700,7.0348466796875,0.4596918523311615,-0.1741986721754074,-0.12391918152570724
1733751493924821500,7.044821533203125,0.510647177696228,-0.0554395355284214,-0.08021777868270874
1733751493934797600,7.054797607421875,0.5833066701889038,0.19803974032402039,0.02959904633462429
1733751493944773600,7.064773681640625,0.7236680388450623,0.4006439745426178,0.2341143637895584
1733751493954749700,7.074749755859375,0.8952280282974243,0.4892241060733795,0.4662362337112427
1733751493964724500,7.084724365234375,0.9784307479858398,0.507074236869812,0.5936210751533508
1733751493974700500,7.094700439453125,1.0077893733978271,0.47998055815696716,0.5819845199584961
1733751493984676600,7.104676513671875,1.0355503559112549,0.3581255078315735,0.50929856300354
1733751493994652400,7.11465234375,1.0421080589294434,0.2511852979660034,0.42420756816864014
1733751494004627500,7.12462744140625,1.0433090925216675,0.18924444913864136,0.38895663619041443
1733751494014603500,7.134603515625,1.0549626350402832,0.1898459792137146,0.41602206230163574
1733751494024579600,7.14457958984375,1.0851335525512695,0.2766181528568268,0.4791578948497772
1733751494034555600,7.1545556640625,1.1545310020446777,0.4196047782897949,0.5687370896339417
1733751494044530700,7.16453076171875,1.2637253999710083,0.548870861530304,0.6614111065864563
1733751494054506500,7.174506591796875,1.3628289699554443,0.6774330735206604,0.708544909954071
1733751494064482600,7.184482666015625,1.4440363645553589,0.7410131096839905,0.6811380982398987
1733751494074458600,7.194458740234375,1.5069215297698975,0.7115135192871094,0.6085306406021118
1733751494084433700,7.20443359375,1.5383899211883545,0.6375932097434998,0.5340535044670105
1733751494094409500,7.214409423828125,1.5359299182891846,0.5848822593688965,0.49953973293304443
1733751494104385500,7.224385498046875,1.515282392501831,0.5980899333953857,0.5056732892990112
1733751494114361600,7.234361572265625,1.5092064142227173,0.6503710746765137,0.5538482069969177
1733751494124336400,7.24433642578125,1.5115305185317993,0.7058393955230713,0.6099951267242432
1733751494134312700,7.254312744140625,1.508512020111084,0.7433967590332031,0.6371201276779175
1733751494144288500,7.26428857421875,1.5026588439941406,0.7530949711799622,0.6444121599197388
1733751494154264600,7.2742646484375,1.4918293952941895,0.7224746942520142,0.6246525049209595
1733751494164239600,7.284239501953125,1.4716806411743164,0.6372892260551453,0.5612024664878845
1733751494174215700,7.294215576171875,1.4225016832351685,0.5388884544372559,0.4564112722873688
1733751494184191500,7.30419140625,1.3631932735443115,0.4450328052043915,0.337292343378067
1733751494194166800,7.314166748046875,1.2971709966659546,0.4018781781196594,0.24221575260162354
1733751494204142600,7.324142578125,1.237608790397644,0.4053557515144348,0.20074501633644104
1733751494214118400,7.334118408203125,1.1540923118591309,0.46457794308662415,0.18511362373828888
1733751494224094700,7.3440947265625,1.0480678081512451,0.5547658801078796,0.2028292417526245
1733751494234069500,7.354069580078125,0.9742208123207092,0.6145104169845581,0.24395990371704102
1733751494244045600,7.364045654296875,0.9376662373542786,0.6514793634414673,0.29953476786613464
1733751494254021600,7.374021728515625,0.9240052103996277,0.6730823516845703,0.3548245429992676
1733751494263997400,7.38399755859375,0.9184735417366028,0.6563829779624939,0.3977389931678772
1733751494273972500,7.393972412109375,0.9072235822677612,0.6172735095024109,0.4026573598384857
1733751494283948500,7.403948486328125,0.9106652140617371,0.5566306710243225,0.372186541557312
1733751494293924600,7.413924560546875,0.925247311592102,0.5005850195884705,0.34256458282470703
1733751494303900400,7.423900390625,0.9317235946655273,0.47066810727119446,0.31008651852607727
1733751494313875500,7.43387548828125,0.9316470623016357,0.4651021659374237,0.2875368893146515
1733751494323851500,7.4438515625,0.928557813167572,0.48503512144088745,0.2889462411403656
1733751494333827600,7.45382763671875,0.9209171533584595,0.5219576954841614,0.30260273814201355
1733751494343803600,7.4638037109375,0.9034862518310547,0.5772441029548645,0.3315475881099701
1733751494353778700,7.47377880859375,0.8819699287414551,0.6125456094741821,0.36549001932144165
1733751494363754500,7.48375439453125,0.8663022518157959,0.6223292350769043,0.3767285645008087
1733751494373730600,7.49373046875,0.8617046475410461,0.6011599898338318,0.3782695233821869
1733751494383706600,7.50370654296875,0.8625520467758179,0.5680845975875854,0.36932235956192017
1733751494393681400,7.513681396484375,0.8548023104667664,0.5435290932655334,0.3482554852962494
1733751494403657500,7.523657470703125,0.8414926528930664,0.5518350005149841,0.341634064912796
1733751494413633500,7.533633544921875,0.8180977702140808,0.5608710646629333,0.34871548414230347
1733751494423609600,7.543609619140625,0.7854000329971313,0.5615166425704956,0.3527315557003021
1733751494433584400,7.55358447265625,0.7450776100158691,0.5450414419174194,0.34367626905441284
1733751494443560700,7.563560791015625,0.7041080594062805,0.5201416611671448,0.3240264058113098
1733751494453536500,7.57353662109375,0.6588280200958252,0.4934791028499603,0.3020470142364502
1733751494463512600,7.5835126953125,0.6174270510673523,0.466909259557724,0.2693796157836914
1733751494473487600,7.593487548828125,0.5722264051437378,0.4653085470199585,0.24560950696468353
1733751494483463400,7.60346337890625,0.542923092842102,0.5046852231025696,0.2438017576932907
1733751494493439500,7.613439453125,0.5280120372772217,0.5506811738014221,0.24210429191589355
1733751494503415600,7.62341552734375,0.5188678503036499,0.6105183959007263,0.24313120543956757
1733751494513390600,7.633390625,0.5011205673217773,0.6492726802825928,0.24938417971134186
1733751494523366400,7.643366455078125,0.4482559859752655,0.637061595916748,0.24060958623886108
1733751494533342700,7.6533427734375,0.3852543234825134,0.5728394985198975,0.2090838998556137
1733751494543318500,7.663318603515625,0.3271300196647644,0.47277870774269104,0.15727557241916656
1733751494553293600,7.67329345703125,0.2846107482910156,0.3608968257904053,0.10826455801725388
1733751494563269600,7.68326953125,0.258088082075119,0.27022045850753784,0.08392593264579773
1733751494573245400,7.693245361328125,0.2393941879272461,0.2242625206708908,0.08637885749340057
1733751494583221800,7.7032216796875,0.21970464289188385,0.19830229878425598,0.11790855973958969
1733751494593196500,7.713196533203125,0.18774327635765076,0.18919427692890167,0.16705580055713654
1733751494603172600,7.723172607421875,0.15228861570358276,0.20534607768058777,0.2236146777868271
1733751494613148400,7.7331484375,0.12331114709377289,0.22475537657737732,0.24301093816757202
1733751494623124500,7.74312451171875,0.10807360708713531,0.22869738936424255,0.21658653020858765
1733751494633099500,7.753099609375,0.08576976507902145,0.2294914573431015,0.18442025780677795
1733751494643075600,7.76307568359375,0.05370956286787987,0.2344348132610321,0.15873433649539948
1733751494653051600,7.7730517578125,0.031051192432641983,0.22296462953090668,0.13801750540733337
1733751494663027500,7.78302734375,-0.002609299961477518,0.17822511494159698,0.1117992252111435
1733751494673002500,7.79300244140625,-0.055613137781620026,0.10648178309202194,0.08242838829755783
1733751494682978600,7.802978515625,-0.12286434322595596,0.014933225698769093,0.056943006813526154
1733751494692954600,7.81295458984375,-0.16372640430927277,-0.07205769419670105,0.039685845375061035
1733751494702930400,7.822930419921875,-0.1844087690114975,-0.11831866949796677,0.022527100518345833
1733751494712905700,7.83290576171875,-0.19169999659061432,-0.12813125550746918,0.01899319514632225
1733751494722881500,7.842881591796875,-0.19168561697006226,-0.09039933234453201,0.03320089355111122
1733751494732857300,7.852857421875,-0.19584240019321442,-0.05694185942411423,0.038382261991500854
1733751494742833700,7.862833740234375,-0.21264348924160004,-0.055726390331983566,-0.0042501529678702354
1733751494752808400,7.872808349609375,-0.24189461767673492,-0.09012871980667114,-0.06665661931037903
1733751494762784500,7.882784423828125,-0.27877992391586304,-0.16913245618343353,-0.14997680485248566
1733751494772760600,7.892760498046875,-0.3228360414505005,-0.2780302166938782,-0.22784139215946198
1733751494782736600,7.902736572265625,-0.3602513074874878,-0.36192724108695984,-0.27923959493637085
1733751494792711400,7.91271142578125,-0.4049045145511627,-0.3956910967826843,-0.2786002457141876
1733751494802687700,7.922687744140625,-0.4565645158290863,-0.3780633509159088,-0.21685723960399628
1733751494812663600,7.93266357421875,-0.5122887492179871,-0.3370685875415802,-0.1005123034119606
1733751494822639400,7.942639404296875,-0.5829195380210876,-0.304656058549881,0.02597080171108246
1733751494832614700,7.95261474609375,-0.6697644591331482,-0.30348071455955505,0.13212424516677856
1733751494842590700,7.9625908203125,-0.7471132874488831,-0.3351006805896759,0.19448909163475037
1733751494852566800,7.97256689453125,-0.8084195852279663,-0.4137287735939026,0.1977318823337555
1733751494862542600,7.98254248046875,-0.8781896233558655,-0.5201824903488159,0.14958885312080383
1733751494872518000,7.992517822265625,-0.968033492565155,-0.6304206252098083,0.052810829132795334
1733751494882493700,8.00249365234375,-1.0492678880691528,-0.7326284646987915,-0.06470967829227448
1733751494892469800,8.0124697265625,-1.1143038272857666,-0.8073074221611023,-0.1916472166776657
1733751494902445800,8.02244580078125,-1.1608258485794067,-0.8304926753044128,-0.28917670249938965
1733751494912420900,8.0324208984375,-1.191454291343689,-0.8171765208244324,-0.3645741641521454
1733751494922396700,8.042396728515625,-1.1973450183868408,-0.7674793004989624,-0.4116162359714508
1733751494932372700,8.052372802734375,-1.1983846426010132,-0.6944475173950195,-0.4134857952594757
1733751494942348800,8.062348876953125,-1.207426905632019,-0.6441007256507874,-0.38941213488578796
1733751494952323600,8.072323486328125,-1.2396645545959473,-0.6745023727416992,-0.38010933995246887
1733751494962300000,8.0822998046875,-1.3032653331756592,-0.7730457186698914,-0.4216003119945526
1733751494972275700,8.092275634765626,-1.3673025369644165,-0.8925028443336487,-0.4942688047885895
1733751494982251500,8.10225146484375,-1.415927767753601,-0.9956327080726624,-0.5772947072982788
1733751494992226800,8.112226806640624,-1.4410042762756348,-1.0363519191741943,-0.6484038233757019
1733751495002202600,8.12220263671875,-1.4364731311798096,-1.0214756727218628,-0.6911190748214722
1733751495012178700,8.1321787109375,-1.418662667274475,-0.9793458580970764,-0.7195973992347717
1733751495022154800,8.14215478515625,-1.41411292552948,-0.9434168934822083,-0.7485102415084839
1733751495032129800,8.1521298828125,-1.40756356716156,-0.9104222655296326,-0.7918306589126587
1733751495042105600,8.162105712890625,-1.391640067100525,-0.8900038003921509,-0.8337724804878235
1733751495052082000,8.17208203125,-1.3662254810333252,-0.8679102659225464,-0.8556273579597473
1733751495062057700,8.1820576171875,-1.3405510187149048,-0.856290876865387,-0.8440492153167725
1733751495072032800,8.19203271484375,-1.3306021690368652,-0.8387861251831055,-0.8034355044364929
1733751495082008800,8.2020087890625,-1.3191555738449097,-0.8123888969421387,-0.7572008967399597
1733751495091984600,8.211984619140624,-1.2944879531860352,-0.7696841359138489,-0.7152945399284363
1733751495101960700,8.221960693359375,-1.2584441900253296,-0.722154974937439,-0.663002073764801
1733751495111935500,8.231935546875,-1.2161595821380615,-0.6764323115348816,-0.6019963622093201
1733751495121911800,8.241911865234375,-1.1680794954299927,-0.6316669583320618,-0.5491542220115662
1733751495131887600,8.2518876953125,-1.1185647249221802,-0.6131070852279663,-0.5002093315124512
1733751495141864000,8.261864013671875,-1.0778883695602417,-0.6074382662773132,-0.45296913385391235
1733751495151838700,8.271838623046875,-1.054297924041748,-0.5976949334144592,-0.41314175724983215
1733751495161814800,8.281814697265625,-1.0458765029907227,-0.5842694044113159,-0.3833407461643219
1733751495171790800,8.291790771484376,-1.046587586402893,-0.5674027800559998,-0.37918218970298767
1733751495181766000,8.301765869140626,-1.0375896692276,-0.51860111951828,-0.3767874836921692
1733751495191741700,8.31174169921875,-1.0154012441635132,-0.4502573609352112,-0.36717739701271057
1733751495201717500,8.321717529296874,-0.989089846611023,-0.4096417725086212,-0.35238221287727356
1733751495211693800,8.33169384765625,-0.9685159921646118,-0.3838081955909729,-0.3475944399833679
1733751495221668600,8.341668701171875,-0.949741780757904,-0.39536842703819275,-0.37194985151290894
1733751495231644700,8.351644775390625,-0.9403359293937683,-0.4290332794189453,-0.4271431267261505
1733751495241620700,8.361620849609375,-0.9493778944015503,-0.4711802005767822,-0.47340622544288635
1733751495251596800,8.3715966796875,-0.9701145887374878,-0.4948646128177643,-0.5025805830955505
1733751495261571600,8.381571533203125,-0.9847920536994934,-0.4958076477050781,-0.4985828995704651
1733751495271548000,8.3915478515625,-0.9808216691017151,-0.4690915048122406,-0.47425374388694763
1733751495281523700,8.401523681640626,-0.9624772667884827,-0.4479263126850128,-0.4599858820438385
1733751495291499500,8.41149951171875,-0.950098991394043,-0.4470568299293518,-0.46486443281173706
1733751495301474800,8.421474853515624,-0.9804608821868896,-0.4594050943851471,-0.4832993745803833
1733751495311450600,8.43145068359375,-1.0092517137527466,-0.4851424992084503,-0.48589175939559937
1733751495321426700,8.4414267578125,-1.008639931678772,-0.5082569122314453,-0.49306657910346985
1733751495331402800,8.45140283203125,-0.9783636331558228,-0.5184289813041687,-0.48803287744522095
1733751495341377800,8.461377685546875,-0.9492520689964294,-0.5017768144607544,-0.4662998616695404
1733751495351353600,8.471353515625,-0.9432145953178406,-0.4404774308204651,-0.423540860414505
1733751495361330000,8.481329833984375,-0.9243133664131165,-0.35832610726356506,-0.36749330163002014
1733751495371305700,8.4913056640625,-0.8754854202270508,-0.27740663290023804,-0.3141493499279022
1733751495381280800,8.50128076171875,-0.8148505687713623,-0.21184946596622467,-0.28661438822746277
1733751495391256800,8.5112568359375,-0.767645537853241,-0.19662372767925262,-0.28628718852996826
1733751495401232600,8.521232666015624,-0.738791823387146,-0.193906769156456,-0.28428661823272705
1733751495411208700,8.531208740234375,-0.7028331160545349,-0.19880267977714539,-0.26832103729248047
1733751495421183700,8.541183837890625,-0.6419950723648071,-0.19547052681446075,-0.23774318397045135
1733751495431159800,8.551159912109375,-0.5791969895362854,-0.1906840056180954,-0.19027192890644073
1733751495441135600,8.561135498046875,-0.526767909526825,-0.16280096769332886,-0.14647570252418518
1733751495451111700,8.571111572265625,-0.4817318022251129,-0.11934211850166321,-0.11175613850355148
1733751495461086700,8.581086669921875,-0.4294414222240448,-0.0577504001557827,-0.09017761051654816
1733751495471062800,8.591062744140626,-0.37246623635292053,0.01828467659652233,-0.06759122014045715
1733751495481038800,8.601038818359376,-0.31767329573631287,0.09845727682113647,-0.04120807722210884
1733751495491014700,8.6110146484375,-0.26631930470466614,0.16998551785945892,-0.037314269691705704
1733751495500989700,8.62098974609375,-0.22708775103092194,0.22143805027008057,-0.043816376477479935
1733751495510965800,8.6309658203125,-0.18673551082611084,0.23234085738658905,-0.06560125946998596
1733751495520941800,8.64094189453125,-0.13869608938694,0.21790093183517456,-0.08256746083498001
1733751495530917600,8.650917724609375,-0.09233234822750092,0.19450142979621887,-0.09595765918493271
1733751495540893000,8.660892822265625,-0.04757979139685631,0.18081144988536835,-0.11308018863201141
1733751495550868700,8.67086865234375,0.0030119530856609344,0.16189461946487427,-0.12178260833024979
1733751495560844500,8.680844482421875,0.07024344801902771,0.13808836042881012,-0.13171140849590302
1733751495570820900,8.69082080078125,0.14115343987941742,0.1106451004743576,-0.13706427812576294
1733751495580795600,8.700795654296876,0.19976802170276642,0.08044565469026566,-0.135829895734787
1733751495590771700,8.710771728515626,0.2535209655761719,0.05332166329026222,-0.1308954656124115
1733751495600747800,8.720747802734374,0.311423659324646,0.03658049926161766,-0.11796847730875015
1733751495610723800,8.730723876953125,0.39762821793556213,0.051349055022001266,-0.07834254205226898
1733751495620698600,8.74069873046875,0.4789070785045624,0.08052264899015427,-0.009821000508964062
1733751495630675000,8.750675048828125,0.5344586372375488,0.13128125667572021,0.0774758979678154
1733751495640650800,8.760650634765625,0.5845851898193359,0.18788567185401917,0.17056189477443695
1733751495650626600,8.77062646484375,0.6539521813392639,0.23458391427993774,0.2354861944913864
1733751495660601600,8.7806015625,0.7281960844993591,0.26109540462493896,0.26104217767715454
1733751495670577700,8.79057763671875,0.7876750826835632,0.2548241913318634,0.2653530240058899
1733751495680553700,8.8005537109375,0.8334420919418335,0.22360235452651978,0.2784976065158844
1733751495690528500,8.810528564453126,0.8611996173858643,0.18710431456565857,0.31901636719703674
1733751495700504800,8.8205048828125,0.8778723478317261,0.18438230454921722,0.39067164063453674
1733751495710480600,8.830480712890624,0.900299608707428,0.20823609828948975,0.4986492693424225
1733751495720457000,8.84045703125,0.9234776496887207,0.25247547030448914,0.5952886939048767
1733751495730431700,8.850431640625,0.9336844086647034,0.2961588501930237,0.6259031891822815
1733751495740407800,8.86040771484375,0.9338366985321045,0.3169594705104828,0.5939212441444397
1733751495750383600,8.870383544921875,0.9404414892196655,0.3216354548931122,0.5288717746734619
1733751495760359700,8.880359619140625,0.9490682482719421,0.3340226113796234,0.4688137471675873
1733751495770334700,8.890334716796875,0.9646224975585938,0.35171422362327576,0.4333341121673584
1733751495780310500,8.900310546875,0.9828949570655823,0.38854068517684937,0.42500853538513184
1733751495790286800,8.910286865234376,0.9962784647941589,0.4254758656024933,0.42126068472862244
1733751495800262700,8.9202626953125,1.0134267807006836,0.44530656933784485,0.42724987864494324
1733751495810237700,8.93023779296875,1.0183994770050049,0.468458354473114,0.4103196859359741
1733751495820213800,8.9402138671875,1.0151612758636475,0.46965572237968445,0.3821125328540802
1733751495830189800,8.95018994140625,1.0118457078933716,0.4705771803855896,0.3433395326137543
1733751495840166000,8.960165771484375,1.0088461637496948,0.4807286262512207,0.3082004487514496
1733751495850141000,8.970140869140625,0.9891615509986877,0.4861197769641876,0.29130566120147705
1733751495860116700,8.98011669921875,0.9736294746398926,0.5067259669303894,0.27758851647377014
1733751495870092800,8.9900927734375,0.9833232164382935,0.531968355178833,0.26745691895484924
1733751495880068900,9.00006884765625,1.0021198987960815,0.5514698624610901,0.2624533772468567
1733751495890043600,9.010043701171876,1.018977165222168,0.5485519170761108,0.2539258897304535
1733751495900020000,9.02002001953125,1.0363329648971558,0.5206339955329895,0.2385820895433426
1733751495909995800,9.029995849609374,1.0388832092285156,0.4934627413749695,0.21815809607505798
1733751495919971600,9.0399716796875,1.0297778844833374,0.5123845338821411,0.1722973883152008
1733751495929947000,9.04994677734375,1.0179864168167114,0.5306193232536316,0.1410650610923767
1733751495939922700,9.059922607421875,1.015912652015686,0.5389747619628906,0.1290328949689865
1733751495949898800,9.069898681640625,1.0079888105392456,0.5530812740325928,0.13162855803966522
1733751495959874800,9.079874755859375,0.9753656387329102,0.5914782285690308,0.15925246477127075
1733751495969849900,9.089849853515625,0.9360234141349792,0.6394728422164917,0.2060263454914093
1733751495979825700,9.09982568359375,0.8923731446266174,0.6864637732505798,0.2461436688899994
1733751495989802000,9.109802001953126,0.8548309206962585,0.7359524369239807,0.28042688965797424
1733751495999777800,9.11977783203125,0.8430927395820618,0.7775672078132629,0.3019220530986786
1733751496009752800,9.1297529296875,0.8706470131874084,0.8017250299453735,0.3164137303829193
1733751496019729000,9.13972900390625,0.9291875958442688,0.8044909834861755,0.31676313281059265
1733751496029704700,9.14970458984375,0.9996083378791809,0.7873457670211792,0.2907435894012451
1733751496039680800,9.1596806640625,1.0672451257705688,0.7383981943130493,0.252053439617157
1733751496049655800,9.16965576171875,1.1229970455169678,0.6682001352310181,0.20734699070453644
1733751496059631900,9.1796318359375,1.1592000722885132,0.6024969816207886,0.17409954965114594
1733751496069607700,9.189607666015625,1.1832629442214966,0.5514160990715027,0.15438884496688843
1733751496079584000,9.199583984375,1.193526268005371,0.5344277620315552,0.14953096210956573
1733751496089558800,9.209558837890626,1.1984585523605347,0.54128098487854,0.1577482521533966
1733751496099534800,9.219534912109374,1.1856181621551514,0.5924586653709412,0.18945053219795227
1733751496109511000,9.229510986328124,1.166155219078064,0.6689060926437378,0.2342432290315628
1733751496119486700,9.23948681640625,1.154319167137146,0.7241501212120056,0.26352018117904663
1733751496129461800,9.249461669921875,1.1517442464828491,0.7249465584754944,0.25253257155418396
1733751496139437800,9.259437744140625,1.1398286819458008,0.6722058653831482,0.20848149061203003
1733751496149414000,9.269413818359375,1.1228913068771362,0.5951992273330688,0.15918684005737305
1733751496159389700,9.2793896484375,1.106395959854126,0.5204173922538757,0.12710294127464294
1733751496169364700,9.28936474609375,1.101115345954895,0.49434930086135864,0.10828804969787598
1733751496179340800,9.2993408203125,1.1098750829696655,0.5098678469657898,0.1350158005952835
1733751496189316900,9.30931689453125,1.11491858959198,0.5637224316596985,0.19742047786712646
1733751496199293000,9.31929296875,1.1214427947998047,0.6282644271850586,0.2708858847618103
1733751496209268000,9.32926806640625,1.1237835884094238,0.6599685549736023,0.32966285943984985
1733751496219243800,9.339243896484374,1.1072397232055664,0.6590151786804199,0.3513766825199127
1733751496229219800,9.3492197265625,1.0691560506820679,0.6260114312171936,0.36403894424438477
1733751496239196000,9.35919580078125,1.0225791931152344,0.5710576176643372,0.355389803647995
1733751496249170700,9.369170654296875,0.9887469410896301,0.5054286122322083,0.3336358368396759
1733751496259146800,9.379146728515625,0.9628016352653503,0.4684613049030304,0.3270418345928192
1733751496269122800,9.389122802734375,0.9490383267402649,0.45777133107185364,0.34062084555625916
1733751496279097900,9.399097900390625,0.9231199026107788,0.45933327078819275,0.3623623549938202
1733751496289073700,9.40907373046875,0.8789387345314026,0.4689667224884033,0.38668638467788696
1733751496299049700,9.4190498046875,0.8312540650367737,0.4705158770084381,0.39517226815223694
1733751496309025800,9.42902587890625,0.7932681441307068,0.45809298753738403,0.3921237587928772
1733751496319000800,9.439000732421874,0.7515907883644104,0.4484187960624695,0.3717409670352936
1733751496328977000,9.448976806640625,0.7075631618499756,0.4411069452762604,0.33850908279418945
1733751496338952700,9.45895263671875,0.6513121724128723,0.438925564289093,0.31144896149635315
1733751496348928800,9.4689287109375,0.6062976717948914,0.43512922525405884,0.2965611517429352
1733751496358903800,9.47890380859375,0.5759983062744141,0.40930694341659546,0.2942950427532196
1733751496368879900,9.4888798828125,0.5416751503944397,0.38908809423446655,0.2944420278072357
1733751496378855700,9.498855712890625,0.5024369359016418,0.35838422179222107,0.3035239279270172
1733751496388831700,9.508831787109376,0.462741881608963,0.3436650335788727,0.301327109336853
1733751496398806800,9.518806884765626,0.43862083554267883,0.3427390456199646,0.30598950386047363
1733751496408782800,9.528782958984374,0.42725273966789246,0.3532213568687439,0.3151136040687561
1733751496418759000,9.538759033203124,0.41474947333335876,0.3726091682910919,0.31543052196502686
1733751496428734700,9.548734619140625,0.3978458642959595,0.38609591126441956,0.3084265887737274
1733751496438709800,9.558709716796875,0.3882390558719635,0.3775775134563446,0.29548388719558716
1733751496448685800,9.568685791015625,0.36646851897239685,0.35710498690605164,0.2945975959300995
1733751496458662000,9.578661865234375,0.33714550733566284,0.33326011896133423,0.3108242452144623
1733751496468637700,9.5886376953125,0.30346208810806274,0.30212903022766113,0.3262048065662384
1733751496478613000,9.598613037109375,0.2629551589488983,0.2723162770271301,0.34130093455314636
1733751496488588800,9.6085888671875,0.22029352188110352,0.23446214199066162,0.34481000900268555
1733751496498564600,9.618564697265626,0.18416906893253326,0.20414790511131287,0.341108500957489
1733751496508541000,9.628541015625,0.1545204520225525,0.17312300205230713,0.3300970494747162
1733751496518515700,9.638515625,0.12992402911186218,0.15504279732704163,0.31529226899147034
1733751496528491800,9.64849169921875,0.10580650717020035,0.1446533203125,0.29644712805747986
1733751496538467800,9.6584677734375,0.07175186276435852,0.12570492923259735,0.2767341434955597
1733751496548444000,9.66844384765625,0.017875803634524345,0.10872544348239899,0.23250210285186768
1733751496558418700,9.678418701171875,-0.03278524428606033,0.0685037225484848,0.14855527877807617
1733751496568395000,9.68839501953125,-0.0753478929400444,-0.0127790542319417,0.025619344785809517
1733751496578370800,9.698370849609375,-0.11953133344650269,-0.12841670215129852,-0.12661387026309967
1733751496588346600,9.7083466796875,-0.18066468834877014,-0.24642963707447052,-0.2689337730407715
1733751496598322000,9.718322021484376,-0.24795319139957428,-0.32993200421333313,-0.37831807136535645
1733751496608297700,9.728297607421876,-0.3142535984516144,-0.3688112497329712,-0.4385378658771515
1733751496618273800,9.738273681640624,-0.37458378076553345,-0.38637933135032654,-0.44894230365753174
1733751496628249900,9.748249755859375,-0.42660197615623474,-0.3990170955657959,-0.41837480664253235
1733751496638225000,9.758224853515625,-0.4687981605529785,-0.4265635013580322,-0.379208505153656
1733751496648200700,9.76820068359375,-0.504567563533783,-0.4701099395751953,-0.3600490689277649
1733751496658177000,9.778177001953125,-0.5390360951423645,-0.5266318321228027,-0.3716450035572052
1733751496668152800,9.78815283203125,-0.5745120048522949,-0.5607092976570129,-0.3995920419692993
1733751496678127900,9.7981279296875,-0.5966087579727173,-0.5733036398887634,-0.4032917022705078
1733751496688104000,9.80810400390625,-0.6269445419311523,-0.5604391694068909,-0.3704465925693512
1733751496698079700,9.818079833984376,-0.6792548894882202,-0.5396968722343445,-0.3049362897872925
1733751496708055800,9.828055908203124,-0.7467336058616638,-0.5237139463424683,-0.21541541814804077
1733751496718030600,9.838030517578124,-0.8281227350234985,-0.5373266935348511,-0.13094313442707062
1733751496728007000,9.8480068359375,-0.9081377387046814,-0.5696157217025757,-0.058240607380867004
1733751496737982700,9.857982666015625,-0.9829989075660706,-0.6164202690124512,0.0034643039107322693
1733751496747958800,9.867958740234375,-1.0439541339874268,-0.6567281484603882,0.05038664862513542
1733751496757933800,9.877933837890625,-1.0955308675765991,-0.6746094226837158,0.07655327022075653
1733751496767910000,9.887909912109375,-1.1329325437545776,-0.6661561131477356,0.07474982738494873
1733751496777886000,9.897885986328125,-1.155151128768921,-0.654619574546814,0.05097312107682228
1733751496787861000,9.907861083984375,-1.1702152490615845,-0.6537382006645203,0.0002625267952680588
1733751496797836800,9.9178369140625,-1.184732437133789,-0.64897620677948,-0.07329770922660828
1733751496807812600,9.9278125,-1.1925182342529297,-0.6599962115287781,-0.15460652112960815
1733751496817789000,9.937788818359374,-1.201462745666504,-0.6971976161003113,-0.22510652244091034
1733751496827764200,9.94776416015625,-1.2185468673706055,-0.7471318244934082,-0.27889108657836914
1733751496837740500,9.957740478515625,-1.2550313472747803,-0.8189636468887329,-0.32550281286239624
1733751496847716400,9.96771630859375,-1.3066545724868774,-0.881895124912262,-0.3763798773288727
1733751496857692200,9.977692138671875,-1.3477383852005005,-0.9224801063537598,-0.43091875314712524
1733751496867667200,9.987667236328125,-1.38570237159729,-0.9387490153312683,-0.48044347763061523
1733751496877643300,9.997643310546875,-1.4129544496536255,-0.9243063926696777,-0.5178757905960083
1733751496887619300,10.007619384765626,-1.4238364696502686,-0.8860478401184082,-0.5284057855606079
1733751496897595400,10.017595458984376,-1.4138773679733276,-0.8325494527816772,-0.5232229828834534
1733751496907570400,10.0275703125,-1.3875210285186768,-0.7833196520805359,-0.5081768035888672
1733751496917546200,10.037546142578124,-1.349321961402893,-0.7502461075782776,-0.4906441867351532
1733751496927522300,10.047522216796875,-1.317868709564209,-0.7411496043205261,-0.4897255301475525
1733751496937498400,10.057498291015625,-1.2941128015518188,-0.7622714042663574,-0.5163933634757996
1733751496947473400,10.067473388671875,-1.285427212715149,-0.8024697303771973,-0.540995717048645
1733751496957449200,10.07744921875,-1.2971965074539185,-0.8206117153167725,-0.5382880568504333
1733751496967425300,10.08742529296875,-1.2969739437103271,-0.8083326816558838,-0.5026261806488037
1733751496977401300,10.0974013671875,-1.2744896411895752,-0.7967202067375183,-0.46520423889160156
1733751496987376000,10.107376220703125,-1.2623094320297241,-0.7581469416618347,-0.4437255859375
1733751496997352400,10.1173525390625,-1.2504549026489258,-0.7036125659942627,-0.4227614402770996
1733751497007328300,10.127328369140624,-1.21616530418396,-0.6519859433174133,-0.4097197949886322
1733751497017304300,10.13730419921875,-1.1619720458984375,-0.6282846331596375,-0.400351345539093
1733751497027279400,10.147279296875,-1.109338402748108,-0.6084065437316895,-0.3758510649204254
1733751497037255200,10.157255126953125,-1.0706288814544678,-0.5958659648895264,-0.34038546681404114
1733751497047231200,10.167231201171875,-1.0389280319213867,-0.5923961997032166,-0.3013438582420349
1733751497057207300,10.177207275390625,-1.0249067544937134,-0.6057946085929871,-0.27127888798713684
1733751497067182300,10.187182373046875,-1.0262197256088257,-0.6260867714881897,-0.27778488397598267
1733751497077158100,10.197158203125,-1.045969009399414,-0.6465243697166443,-0.31074362993240356
1733751497087134500,10.207134521484376,-1.070244312286377,-0.650434136390686,-0.3493632674217224
1733751497097110300,10.2171103515625,-1.0936342477798462,-0.6175443530082703,-0.37985512614250183
1733751497107085300,10.227085205078126,-1.1059027910232544,-0.5354914665222168,-0.38073858618736267
1733751497117061400,10.237061279296874,-1.1018726825714111,-0.4428933560848236,-0.35586920380592346
1733751497127037200,10.247037109375,-1.1014782190322876,-0.37988144159317017,-0.3427076041698456
1733751497137013200,10.25701318359375,-1.099090337753296,-0.3571159541606903,-0.3405570983886719
1733751497146988300,10.26698828125,-1.092663288116455,-0.36285093426704407,-0.3224170506000519
1733751497156964400,10.27696435546875,-1.0878523588180542,-0.4029235243797302,-0.30355894565582275
1733751497166940200,10.286940185546875,-1.0859730243682861,-0.4716099798679352,-0.3065560460090637
1733751497176916500,10.29691650390625,-1.0754567384719849,-0.5477684140205383,-0.31332314014434814
1733751497186891300,10.306891357421875,-1.0563312768936157,-0.5874923467636108,-0.3104178011417389
1733751497196867300,10.316867431640626,-1.040036916732788,-0.5911733508110046,-0.3097754418849945
1733751497206843400,10.326843505859374,-1.027730941772461,-0.5477085709571838,-0.3062986135482788
1733751497216818400,10.336818359375,-1.0010327100753784,-0.49779212474823,-0.26878052949905396
1733751497226794200,10.346794189453124,-0.9706252217292786,-0.4478868842124939,-0.20345661044120789
1733751497236770300,10.356770263671875,-0.9659090638160706,-0.39905837178230286,-0.11996066570281982
1733751497246746400,10.366746337890625,-0.9734203219413757,-0.3462369740009308,-0.04226084053516388
1733751497256721200,10.37672119140625,-0.9775208234786987,-0.31077805161476135,0.010579737834632397
1733751497266697500,10.386697509765625,-0.9609372615814209,-0.29993465542793274,0.03656836599111557
1733751497276673300,10.39667333984375,-0.9340864419937134,-0.3198798596858978,0.049001868814229965
1733751497286649300,10.4066494140625,-0.9117629528045654,-0.37028512358665466,0.034299902617931366
1733751497296624400,10.416624267578126,-0.9125198125839233,-0.42744243144989014,0.007928215898573399
1733751497306600400,10.426600341796876,-0.9234949946403503,-0.48293569684028625,-0.020499054342508316
1733751497316576300,10.436576171875,-0.9260503053665161,-0.5227813720703125,-0.034269195050001144
1733751497326552300,10.44655224609375,-0.9136102199554443,-0.5466601848602295,-0.034150026738643646
1733751497336527400,10.45652734375,-0.901294469833374,-0.5273922085762024,-0.02977178990840912
1733751497346503200,10.466503173828125,-0.8631741404533386,-0.45906683802604675,-0.00027847097953781486
1733751497356479500,10.4764794921875,-0.8021683096885681,-0.3637999892234802,0.05438876897096634
1733751497366455300,10.486455322265625,-0.7337563037872314,-0.2754255533218384,0.10727256536483765
1733751497376430300,10.496430419921875,-0.6635679006576538,-0.22084271907806396,0.14678402245044708
1733751497386406400,10.506406494140625,-0.5932676792144775,-0.23013733327388763,0.14336489140987396
1733751497396382200,10.51638232421875,-0.529865562915802,-0.27639511227607727,0.10372108966112137
1733751497406358300,10.526358154296876,-0.47382161021232605,-0.3235642910003662,0.05246181786060333
1733751497416333300,10.536333251953126,-0.4102325141429901,-0.3262053430080414,0.013381258584558964
1733751497426309400,10.546309326171874,-0.33242446184158325,-0.27965667843818665,-0.00530669279396534
1733751497436285200,10.55628515625,-0.25227075815200806,-0.20557129383087158,-0.025814631953835487
1733751497446261500,10.566261474609375,-0.1739753782749176,-0.12320401519536972,-0.03383781015872955
1733751497456236300,10.576236328125,-0.09684304893016815,-0.041757360100746155,-0.04258709400892258
1733751497466212400,10.58621240234375,-0.0314834825694561,0.025746049359440804,-0.06351288408041
1733751497476188400,10.5961884765625,0.02124311402440071,0.0849398672580719,-0.08289775997400284
1733751497486164200,10.606164306640625,0.0663282722234726,0.12494401633739471,-0.1066879853606224
1733751497496139300,10.61613916015625,0.10474143922328949,0.13190631568431854,-0.12440386414527893
1733751497506115000,10.626114990234376,0.1415751576423645,0.13330718874931335,-0.14012300968170166
1733751497516091400,10.63609130859375,0.18172258138656616,0.10115990042686462,-0.11857163161039352
1733751497526067200,10.646067138671874,0.21667417883872986,0.07488550245761871,-0.09684924781322479
1733751497536042200,10.656042236328124,0.2314494103193283,0.06506269425153732,-0.076117604970932
1733751497546018300,10.666018310546875,0.2651461064815521,0.06657804548740387,-0.07244531065225601
1733751497555994400,10.675994384765625,0.3277146518230438,0.06701426953077316,-0.08820056915283203
1733751497565970400,10.685970458984375,0.3993760049343109,0.062186263501644135,-0.10800688713788986
1733751497575945500,10.695945556640625,0.4624974727630615,0.06396313011646271,-0.11862198263406754
1733751497585921300,10.70592138671875,0.5002405047416687,0.06713668256998062,-0.11831679940223694
1733751497595897000,10.71589697265625,0.5382795333862305,0.04299246147274971,-0.12053388357162476
1733751497605872400,10.725872314453126,0.575547456741333,-0.00320490263402462,-0.12653441727161407
1733751497615848200,10.73584814453125,0.6063402891159058,-0.06669173389673233,-0.13551166653633118
1733751497625824300,10.74582421875,0.6322281956672668,-0.10025724768638611,-0.12579233944416046
1733751497635800300,10.75580029296875,0.6732147336006165,-0.10741822421550751,-0.0754985511302948
1733751497645775400,10.765775390625,0.7044821381568909,-0.09326379001140594,0.029855038970708847
1733751497655751200,10.775751220703125,0.7039304375648499,-0.03599578142166138,0.16279229521751404
1733751497665727500,10.7857275390625,0.7016202807426453,0.045560192316770554,0.2768722474575043
1733751497675703300,10.795703369140625,0.7223236560821533,0.13744883239269257,0.3403033912181854
1733751497685678300,10.80567822265625,0.7755855321884155,0.2391415685415268,0.3553653955459595
1733751497695654400,10.815654296875,0.843397319316864,0.33304062485694885,0.3515093922615051
1733751497705630200,10.825630126953126,0.9032344222068787,0.4006384015083313,0.34079137444496155
1733751497715606300,10.835606201171874,0.9299035668373108,0.4268124997615814,0.3242368996143341
1733751497725581300,10.845581298828124,0.9318875074386597,0.451524019241333,0.3180285394191742
1733751497735557400,10.855557373046874,0.9130805730819702,0.46798422932624817,0.331495076417923
1733751497745533200,10.865533203125,0.899657666683197,0.4581238031387329,0.3403817415237427
1733751497755509500,10.875509521484375,0.8925760984420776,0.4206017255783081,0.31684446334838867
1733751497765484300,10.885484375,0.882436215877533,0.39629656076431274,0.2709735035896301
1733751497775460400,10.89546044921875,0.8803927898406982,0.3958962857723236,0.22624865174293518
1733751497785436400,10.9054365234375,0.8821983933448792,0.4103640019893646,0.18197403848171234
1733751497795412200,10.915412109375,0.890062153339386,0.4353058338165283,0.15073542296886444
1733751497805387300,10.92538720703125,0.9025152325630188,0.45959770679473877,0.14556629955768585
1733751497815363300,10.93536328125,0.9189661145210266,0.47876447439193726,0.15719206631183624
1733751497825339400,10.94533935546875,0.947212815284729,0.46975213289260864,0.1846948117017746
1733751497835315000,10.95531494140625,0.9657611846923828,0.4427522122859955,0.22049862146377563
1733751497845290000,10.9652900390625,0.9728819131851196,0.4096849262714386,0.26094940304756165
1733751497855265800,10.975265869140625,0.9667097330093384,0.3865223526954651,0.2773832380771637
1733751497865242000,10.9852421875,0.9605007767677307,0.3778551518917084,0.2943986654281616
1733751497875218000,10.995218017578125,0.961677610874176,0.3886779844760895,0.3027609884738922
1733751497885193000,11.00519287109375,0.9698364734649658,0.3980870544910431,0.2883647382259369
1733751497895169000,11.0151689453125,0.9687807559967041,0.38166147470474243,0.26300185918807983
1733751497905144800,11.025144775390626,0.9524563550949097,0.3493579030036926,0.2380944937467575
1733751497915121000,11.035120849609376,0.917099118232727,0.30876225233078003,0.2088140994310379
1733751497925096000,11.045095947265626,0.8913770318031311,0.2821386158466339,0.18381667137145996
1733751497935072000,11.055072021484374,0.870612621307373,0.2844736576080322,0.18529365956783295
1733751497945047800,11.0650478515625,0.849094569683075,0.3101963400840759,0.21843376755714417
1733751497955022800,11.07502294921875,0.8242411613464355,0.3474648892879486,0.25613534450531006
1733751497964999000,11.0849990234375,0.7872980833053589,0.40956181287765503,0.2669720947742462
1733751497974975000,11.09497509765625,0.7822412252426147,0.46205776929855347,0.27104806900024414
1733751497984951000,11.104950927734375,0.8149807453155518,0.48668786883354187,0.26878246665000916
1733751497994926000,11.114926025390625,0.8622286915779114,0.480216383934021,0.25901639461517334
1733751498004902000,11.12490185546875,0.8960083723068237,0.45162656903266907,0.24743534624576569
1733751498014878000,11.1348779296875,0.9213137030601501,0.42342954874038696,0.2162254899740219
1733751498024854000,11.14485400390625,0.9590654373168945,0.4266093373298645,0.1763511747121811
1733751498034828800,11.154828857421874,1.0035161972045898,0.4663125276565552,0.14997869729995728
1733751498044804900,11.164804931640624,1.0448704957962036,0.5033841133117676,0.14323392510414124
1733751498054781000,11.174781005859375,1.0730818510055542,0.5168309807777405,0.13702262938022614
1733751498064757000,11.184757080078125,1.0925542116165161,0.4969713091850281,0.1266486644744873
1733751498074731800,11.194731689453125,1.1063084602355957,0.4617243707180023,0.12923139333724976
1733751498084708000,11.2047080078125,1.1126911640167236,0.4389472007751465,0.1556324064731598
1733751498094684000,11.214683837890625,1.1089065074920654,0.4297102689743042,0.1973700076341629
1733751498104660000,11.224659912109376,1.1055904626846313,0.427912175655365,0.2242167592048645
1733751498114635000,11.234635009765626,1.105778694152832,0.4386921226978302,0.22533555328845978
1733751498124610800,11.24461083984375,1.0956894159317017,0.48355919122695923,0.21031087636947632
1733751498134587000,11.2545869140625,1.0921062231063843,0.552455484867096,0.20948822796344757
1733751498144563000,11.26456298828125,1.1073192358016968,0.6149994730949402,0.22302304208278656
1733751498154538000,11.2745380859375,1.1176941394805908,0.6550654172897339,0.23359286785125732
1733751498164513800,11.284513671875,1.120224118232727,0.6421317458152771,0.2316969633102417
1733751498174489900,11.29448974609375,1.102142572402954,0.586540162563324,0.21322926878929138
1733751498184466000,11.3044658203125,1.0680713653564453,0.5120980143547058,0.2090107649564743
1733751498194441000,11.31444091796875,1.0172470808029175,0.44748201966285706,0.20227909088134766
1733751498204417000,11.3244169921875,0.9618293046951294,0.4088170528411865,0.19748027622699738
1733751498214392800,11.334392822265626,0.9256430864334106,0.41685232520103455,0.19706402719020844
1733751498224369200,11.344369140625,0.8991906642913818,0.4588097333908081,0.21076636016368866
1733751498234344000,11.354343994140624,0.8752685785293579,0.5255171060562134,0.23280614614486694
1733751498244320000,11.364320068359374,0.8354599475860596,0.5507431030273438,0.23554560542106628
1733751498254295800,11.3742958984375,0.7845104932785034,0.5302399396896362,0.21203361451625824
1733751498264272000,11.38427197265625,0.746120035648346,0.48229679465293884,0.17874784767627716
1733751498274247000,11.394246826171875,0.7145922183990479,0.42056524753570557,0.14585115015506744
1733751498284222700,11.40422265625,0.6882779002189636,0.3752018213272095,0.1289537400007248
1733751498294199000,11.414198974609375,0.6758063435554504,0.35808703303337097,0.1306738704442978
1733751498304174800,11.4241748046875,0.6782973408699036,0.3657231628894806,0.13783958554267883
1733751498314150000,11.43414990234375,0.6894048452377319,0.3755986988544464,0.14555315673351288
1733751498324126000,11.4441259765625,0.6894567608833313,0.381958544254303,0.15696296095848083
1733751498334102000,11.45410205078125,0.6738021969795227,0.3807707726955414,0.17856493592262268
1733751498344077800,11.464077880859374,0.6501936316490173,0.36851099133491516,0.18619337677955627
1733751498354053000,11.47405322265625,0.6155096888542175,0.3562029302120209,0.17533859610557556
1733751498364029000,11.48402880859375,0.5931144952774048,0.3596228361129761,0.16338421404361725
1733751498374004700,11.494004638671875,0.5956887006759644,0.36738860607147217,0.15965819358825684
1733751498383980000,11.50397998046875,0.5983097553253174,0.36544814705848694,0.16449010372161865
1733751498393955800,11.513955810546875,0.5992681980133057,0.37064796686172485,0.18163128197193146
1733751498403932000,11.523931884765625,0.581413745880127,0.3632082939147949,0.21633824706077576
1733751498413908000,11.533907958984376,0.5462666749954224,0.3511146306991577,0.2512730658054352
1733751498423883000,11.543883056640626,0.5076990723609924,0.32875123620033264,0.27957412600517273
1733751498433858800,11.55385888671875,0.4706779420375824,0.31277787685394287,0.3038744032382965
1733751498443835100,11.563835205078124,0.438667356967926,0.29937395453453064,0.31736189126968384
1733751498453811000,11.57381103515625,0.39634039998054504,0.3051389157772064,0.3209827244281769
1733751498463786000,11.583785888671875,0.3492211699485779,0.32436954975128174,0.3216523230075836
1733751498473762000,11.593761962890625,0.3070846498012543,0.32369789481163025,0.32593733072280884
1733751498483737900,11.60373779296875,0.2563384771347046,0.30265146493911743,0.3267943859100342
1733751498493714000,11.6137138671875,0.19845734536647797,0.2660559117794037,0.31402984261512756
1733751498503688700,11.623688720703125,0.1410747468471527,0.21868759393692017,0.29455122351646423
1733751498513665000,11.6336650390625,0.07598362863063812,0.17291106283664703,0.2610180377960205
1733751498523640800,11.643640869140626,0.02377682738006115,0.11567505449056625,0.20845839381217957
1733751498533617000,11.653616943359374,-0.02003164030611515,0.03577010706067085,0.1253078430891037
1733751498543592000,11.663592041015624,-0.06452438980340958,-0.03565002232789993,0.031118739396333694
1733751498553568000,11.673568115234374,-0.11379580199718475,-0.09038277715444565,-0.06600461155176163
1733751498563544000,11.6835439453125,-0.16542911529541016,-0.1352132260799408,-0.14823396503925323
1733751498573520000,11.693519775390625,-0.21317586302757263,-0.17929866909980774,-0.1978268176317215
1733751498583495000,11.703494873046875,-0.25859564542770386,-0.21569174528121948,-0.2277771681547165
1733751498593470700,11.713470703125,-0.3076143264770508,-0.2590717077255249,-0.2552306354045868
1733751498603447000,11.723447021484375,-0.3566226065158844,-0.30397823452949524,-0.2870368957519531
1733751498613422800,11.7334228515625,-0.41106054186820984,-0.33408817648887634,-0.30962610244750977
1733751498623398000,11.74339794921875,-0.4517120122909546,-0.36553457379341125,-0.3378262519836426
1733751498633374000,11.7533740234375,-0.4820059835910797,-0.3931393027305603,-0.3810634911060333
1733751498643349800,11.763349853515624,-0.5119661688804626,-0.427158921957016,-0.42701736092567444
1733751498653326000,11.773326171875,-0.5351215600967407,-0.4532669484615326,-0.4528505504131317
1733751498663300900,11.78330078125,-0.5703932046890259,-0.4807535409927368,-0.4586006700992584
1733751498673277000,11.79327685546875,-0.6099693775177002,-0.48355889320373535,-0.4259124994277954
1733751498683252700,11.803252685546875,-0.6611433625221252,-0.48645296692848206,-0.3635985255241394
1733751498693228000,11.81322802734375,-0.7253055572509766,-0.5050724744796753,-0.29762324690818787
1733751498703203800,11.823203857421875,-0.7927266359329224,-0.5480645895004272,-0.2599821984767914
1733751498713180000,11.833179931640625,-0.8744646310806274,-0.5780102610588074,-0.24857616424560547
1733751498723156000,11.843156005859376,-0.9453056454658508,-0.5550861358642578,-0.24096199870109558
1733751498733131000,11.853131103515626,-0.9808226227760315,-0.5117335915565491,-0.2312244176864624
1733751498743106800,11.86310693359375,-0.9868369698524475,-0.4724506735801697,-0.2416900396347046
1733751498753083000,11.873082763671874,-1.0034018754959106,-0.4548969864845276,-0.25567564368247986
1733751498763059000,11.883058837890625,-1.0389446020126343,-0.4659210741519928,-0.2673592269420624
1733751498773034000,11.893033935546875,-1.0804065465927124,-0.493398517370224,-0.2894216477870941
1733751498783010000,11.903010009765625,-1.1238704919815063,-0.5171794295310974,-0.3321481943130493
1733751498792985900,11.91298583984375,-1.1556051969528198,-0.5319328308105469,-0.3756850063800812
1733751498802962000,11.9229619140625,-1.177679181098938,-0.5515890717506409,-0.4209738075733185
1733751498812937000,11.93293701171875,-1.1830062866210938,-0.5716730356216431,-0.47941261529922485
1733751498822913000,11.9429130859375,-1.1928972005844116,-0.5848677158355713,-0.5344663262367249
1733751498832889300,11.952889404296876,-1.1936922073364258,-0.5666247606277466,-0.5715862512588501
1733751498842865200,11.962865234375,-1.1738982200622559,-0.5413345694541931,-0.6343308687210083
1733751498852840200,11.972840087890624,-1.1312525272369385,-0.5286695957183838,-0.7200510501861572
1733751498862816300,11.982816162109375,-1.0660134553909302,-0.5529994964599609,-0.8083690404891968
1733751498872792300,11.992792236328125,-0.9940527677536011,-0.5759401917457581,-0.8870987296104431
1733751498882768100,12.00276806640625,-0.9748544096946716,-0.56019526720047,-0.9466128945350647
1733751498892743200,12.0127431640625,-0.9765809178352356,-0.5024001598358154,-0.980215311050415
1733751498902719200,12.02271923828125,-1.007239818572998,-0.42405790090560913,-0.997974693775177
1733751498912695300,12.0326953125,-1.0549548864364624,-0.3999597728252411,-0.9811893105506897
1733751498922671400,12.04267138671875,-1.127864956855774,-0.4441271722316742,-0.9172288179397583
1733751498932646400,12.052646484375,-1.19375479221344,-0.5126915574073792,-0.8300119042396545
1733751498942622200,12.062622314453124,-1.2397761344909668,-0.5571556687355042,-0.7534242272377014
1733751498952598300,12.072598388671874,-1.2640262842178345,-0.5713926553726196,-0.7034316658973694
1733751498962574300,12.08257421875,-1.2537672519683838,-0.5224586129188538,-0.6726664304733276
1733751498972549000,12.092549072265625,-1.2121268510818481,-0.4167449176311493,-0.6583375930786133
1733751498982525200,12.102525146484375,-1.1583647727966309,-0.30990105867385864,-0.6488023996353149
1733751498992501200,12.112501220703125,-1.1053918600082397,-0.23114019632339478,-0.624282956123352
1733751499002477000,12.12247705078125,-1.0683703422546387,-0.2153213620185852,-0.588772714138031
1733751499012452000,12.1324521484375,-1.058706521987915,-0.21696746349334717,-0.5658548474311829
1733751499022428200,12.14242822265625,-1.0749518871307373,-0.2449960857629776,-0.5837181806564331
1733751499032404200,12.152404296875,-1.0767931938171387,-0.2833123207092285,-0.6080954670906067
1733751499042379300,12.162379150390626,-1.0442633628845215,-0.36426809430122375,-0.6181854009628296
1733751499052355300,12.172355224609374,-1.0187327861785889,-0.4657595753669739,-0.6375886797904968
1733751499062331100,12.1823310546875,-1.0131795406341553,-0.543317437171936,-0.6859398484230042
1733751499072307200,12.19230712890625,-0.9977813363075256,-0.5875728130340576,-0.7530016899108887
1733751499082282200,12.2022822265625,-0.9581413865089417,-0.5530746579170227,-0.8086985945701599
1733751499092258300,12.21225830078125,-0.8951547145843506,-0.4475753605365753,-0.8234418630599976
1733751499102234000,12.222234130859375,-0.8128471970558167,-0.3134564757347107,-0.793198823928833
1733751499112210200,12.232210205078125,-0.7234126329421997,-0.24348217248916626,-0.7566397190093994
1733751499122185200,12.242185302734375,-0.664435863494873,-0.2428552657365799,-0.757347047328949
1733751499132161000,12.2521611328125,-0.6747092604637146,-0.29613766074180603,-0.7920613884925842
1733751499142137300,12.262137451171874,-0.7320162653923035,-0.34908127784729004,-0.8212919235229492
1733751499152113200,12.272113037109374,-0.7959603667259216,-0.43963462114334106,-0.8211877942085266
1733751499162088200,12.282088134765624,-0.8594529032707214,-0.5127363204956055,-0.8045772314071655
1733751499172064300,12.292064208984375,-0.9210368990898132,-0.4849523901939392,-0.7902116179466248
1733751499182040300,12.302040283203125,-0.9434686899185181,-0.34980106353759766,-0.7804826498031616
1733751499192016100,12.31201611328125,-0.9313891530036926,-0.16521389782428741,-0.7158400416374207
1733751499201991400,12.321991455078125,-0.9360430240631104,-0.005159792955964804,-0.587380588054657
1733751499211967200,12.33196728515625,-0.9826403260231018,0.07747703045606613,-0.4357772171497345
1733751499221943000,12.341943115234375,-1.0542428493499756,0.08889178931713104,-0.306535929441452
1733751499231919400,12.35191943359375,-1.1285607814788818,0.019208315759897232,-0.19672207534313202
1733751499241894100,12.36189404296875,-1.2044116258621216,-0.0647706687450409,-0.11990772932767868
1733751499251870200,12.3718701171875,-1.2565075159072876,-0.12238230556249619,-0.09331393241882324
1733751499261846300,12.38184619140625,-1.263140082359314,-0.13218730688095093,-0.09736474603414536
1733751499271822300,12.391822265625,-1.2158814668655396,-0.05077073723077774,-0.1365606188774109
