time,seconds_elapsed,z,y,x
1733901970825239300,0.0252392578125,1.0280652828872203,0.07694236990511417,-0.08781308881379664
1733901970835265300,0.035265380859375,1.0914730484366417,-0.08195581415295601,0.2217167515426874
1733901970845292300,0.045292236328125,1.2959925814628601,-0.30672903065681456,0.3372876889191568
1733901970855319300,0.0553193359375,1.38706109187603,-0.09409165762662887,0.43853930130302904
1733901970865346300,0.06534619140625,1.118218432021141,0.30631694272458554,0.4464242823991924
1733901970875372300,0.075372314453125,0.9394394894510507,0.6390975294828415,0.22854089847430586
1733901970885399300,0.0853994140625,0.9455717085957527,0.6951917571485042,0.29641287689097223
1733901970895426300,0.09542626953125,1.1625666923135518,0.5349257918685675,0.40286695328876376
1733901970905452300,0.105452392578125,1.3088824581742287,0.306722600916028,0.5760855583179741
1733901970915479300,0.115479248046875,1.3458990604043006,0.40883740600049495,0.5521306822348385
1733901970925506000,0.125506103515625,0.9663128833293915,0.8450199150443076,0.4784884498536586
1733901970935532300,0.1355322265625,0.7059358540028333,0.9594675474792719,0.607914967168495
1733901970945559300,0.145559326171875,0.5782569840729236,0.858755010408163,0.9696228846602142
1733901970955586300,0.15558642578125,0.586626789543964,0.9110656278818845,1.020828390436247
1733901970965612300,0.1656123046875,0.6013742768207565,0.5283335539966821,1.231903555651009
1733901970975639300,0.175639404296875,0.1546581353355199,-0.08124094388186931,1.1331326541669666
1733901970985666300,0.185666259765625,-0.0871451994895935,-0.12210019301474094,0.4119799052773043
1733901970995693300,0.195693359375,-0.07084405303001404,0.18114684074521065,-0.10553009342066944
1733901971005719300,0.20571923828125,-0.020803207119181752,0.3643044367909431,-0.27977789536714553
1733901971015746000,0.21574609375,0.12997604095637796,0.44667292339801784,-0.22773166445065288
1733901971025773300,0.225773193359375,0.20570786602795124,0.46818391346037386,-0.10165529781393706
1733901971035799300,0.23579931640625,0.26635559227950867,0.5416659137785435,-0.012718721395544707
1733901971045826300,0.245826416015625,0.3446164974372834,0.6395487803816795,0.02876505284383893
1733901971055853000,0.25585302734375,0.31109942776076493,0.747285517001152,0.0726250364289619
1733901971065879300,0.26587939453125,0.1611322267204523,0.7152203996986151,0.2752856619818136
1733901971075906300,0.27590625,-0.07472228270284831,0.7518167306900024,0.5652146932788192
1733901971085933300,0.285933349609375,-0.23222419009692966,1.0018892236232757,0.6839980898957699
1733901971095959300,0.295959228515625,-0.19569785560183225,0.9311293417453765,1.2299907077670096
1733901971105986000,0.305986083984375,-0.1873094550281763,0.21686346629261968,2.08240526310727
1733901971116013300,0.316013427734375,-0.24693835962601005,-0.4526864845991134,2.308988743903488
1733901971126040300,0.326040283203125,-0.1477075124800205,-0.6509650774091482,1.9774176790654658
1733901971136066300,0.33606640625,0.17064115575663744,-0.517802223110199,1.302567722069472
1733901971146093000,0.346093017578125,0.48901744265258307,-0.10511047976911067,0.7149287232756615
1733901971156120300,0.356120361328125,0.5227502009063959,0.286511587536335,0.6638077539779246
1733901971166146300,0.366146240234375,-0.060757470236346124,0.18489070344865322,1.1528687435112892
1733901971176173300,0.37617333984375,-0.46984928938932713,0.10799567981660366,1.3053876017957926
1733901971186200000,0.386199951171875,-0.6613058541595935,0.46952246858775615,1.2929627122476697
1733901971196227300,0.396227294921875,-0.6595639789283275,0.2512023737460375,1.4071835501894354
1733901971206253300,0.40625341796875,-0.5334049389768392,0.02205576446354389,1.4132495722301304
1733901971216280300,0.4162802734375,-0.34237609809935093,-0.18355156379938126,1.3978776694446802
1733901971226307000,0.42630712890625,-0.33430092819333074,-0.5994739596247672,1.4387475861020385
1733901971236333000,0.4363330078125,-0.30578795041441914,-0.3479670499742031,1.1955692365966737
1733901971246360300,0.4463603515625,-0.3964788596868515,0.2807335886567831,0.9917324251376092
1733901971256387300,0.45638720703125,-0.395273648615554,0.7694038253068923,1.2407085011363028
1733901971266413300,0.466413330078125,-0.4044435184231028,0.805332047778368,1.9089424009934066
1733901971276440000,0.476440185546875,-0.3417740040203556,0.6301262875199317,2.37557908501178
1733901971286467300,0.48646728515625,-0.2855956417351961,0.7217167759805917,2.252665822048485
1733901971296493300,0.496493408203125,-0.11843933241963386,0.6650532239943743,2.034401402916759
1733901971306520300,0.506520263671875,0.46175241910815235,0.4989741885215044,1.7272316427551209
1733901971316547000,0.516547119140625,0.6928682826370001,-0.012849544700980186,1.6354449010699987
1733901971326574300,0.52657421875,0.5275064555227756,0.06965864263772964,1.9453548998504875
1733901971336600300,0.536600341796875,0.3775672384679317,0.564359976145625,2.1369825103387234
1733901971346627300,0.54662744140625,0.0567243422627449,1.1293185027062893,1.9950906984001398
1733901971356654000,0.556654052734375,0.21929741544127462,1.7309002482652662,1.7260425791010259
1733901971366680000,0.56668017578125,0.15653850572202355,2.0172674588948487,1.3514694078825413
1733901971376707300,0.576707275390625,-0.4453898978501558,1.8984592931628226,1.2736444099240005
1733901971386734300,0.586734375,-1.124372862997651,2.024764536651969,1.2082200438551605
1733901971396761000,0.596760986328125,-1.4056886354565619,2.542409523373842,1.4274118069648742
1733901971406787000,0.606787109375,-1.6901099727153777,3.0709213565468785,1.4511141695916652
1733901971416814300,0.616814453125,-1.9808698653459549,3.030848873877525,0.9470914655089377
1733901971426841300,0.62684130859375,-2.3376088353186844,2.4921733740866183,0.4704983278825879
1733901971436867300,0.636867431640625,-2.5720155570864676,1.9705600682556628,0.17264263177216052
1733901971446894000,0.64689404296875,-2.869844657450914,1.7375334026694296,-0.18700053520947693
1733901971456921300,0.65692138671875,-2.8975188463181256,1.5420482399702071,-0.560025746333599
1733901971466947300,0.666947265625,-2.5976164468109606,1.3062094395726918,-0.8277303420692682
1733901971476974300,0.676974365234375,-2.3661487011045215,1.5976847869962454,-0.8771037370473146
1733901971487001000,0.6870009765625,-2.237044766807556,1.7148147903829811,-0.9914216056227684
1733901971497027000,0.697027099609375,-1.9650667315363883,1.6850287239283321,-1.2094184598594904
1733901971507054300,0.707054443359375,-1.9835352851629255,1.461034675103426,-1.110085102187097
1733901971517081300,0.717081298828125,-2.063110926181078,0.9215192173570393,-0.6543757626354694
1733901971527108000,0.727108154296875,-1.2233506121654063,0.5390770663291216,-0.6000599428191781
1733901971537134000,0.737134033203125,0.17085457931160924,0.01836801586151123,-0.9625503159254789
1733901971547161300,0.747161376953125,1.5415759462833403,-0.4524181890517473,-0.3056733841240406
1733901971557188400,0.757188232421875,2.8071292580798266,-0.43515258147418495,0.43145226565152406
1733901971567214300,0.76721435546875,3.299551248478889,-0.2056827315866947,0.458196480192244
1733901971577241000,0.777240966796875,3.1717393998190757,-0.2221662488758564,0.8956222672954202
1733901971587268000,0.78726806640625,2.92744402898252,-0.2283972522199154,1.4875854128986596
1733901971597294300,0.79729443359375,2.91092017968297,0.1493675546467304,1.6389815507635472
1733901971607321300,0.8073212890625,2.80909120580256,0.4617161787509918,1.0917182553693652
1733901971617348000,0.81734814453125,2.5539982543587683,0.26530454885661603,-0.06008519699797034
1733901971627375000,0.827375,2.4158511819064614,0.3232236538618803,-1.322325438723713
1733901971637401000,0.837401123046875,1.8497236115664242,0.7071276941359043,-1.9549578638456762
1733901971647428000,0.847427978515625,0.6065186174392699,1.3275778062939643,-1.3990006821252405
1733901971657455000,0.857455078125,-0.39390170267522334,2.2170354134798047,-0.6103294078990816
1733901971667481000,0.867481201171875,-0.4600613972812891,2.8340321703135967,-0.797963272576034
1733901971677508000,0.877508056640625,-0.2993301525771618,2.735109439268708,-0.9145696904800832
1733901971687535000,0.88753515625,-0.2135439664810896,2.2087579989999533,-0.7221589667901396
1733901971697561000,0.89756103515625,-0.07306523621082306,1.5474743566721676,-1.1615203250657766
1733901971707588000,0.907588134765625,0.5482908848762512,1.3873410778611897,-1.0519270738594233
1733901971717615000,0.917614990234375,1.0823498307824133,1.789391307939589,-0.5420159693252294
1733901971727642000,0.92764208984375,1.0132090745389462,2.2662924886018034,-0.31804573976732786
1733901971737668000,0.937668212890625,1.406318750053644,2.5359222071811556,-0.5920432251021266
1733901971747695000,0.947695068359375,2.223727020072937,2.0697244991019366,-0.7062053185939788
1733901971757722000,0.95772216796875,2.837321859508753,1.3186163550727068,-0.5922131748415529
1733901971767748000,0.967748046875,3.1622973254740234,0.9672532329194247,0.035537031196802855
1733901971777775000,0.977775146484375,3.263652252101898,0.6925332054637372,0.6530858689554035
1733901971787802000,0.987802001953125,3.3660938049227,0.8264354068879037,0.39021395407319065
1733901971797828000,0.997828125,3.4455788450479505,1.2583432342872023,0.3509267765626311
1733901971807855000,1.007855224609375,3.4743373220205305,1.363150201065093,-0.07574673037976026
1733901971817882000,1.017882080078125,3.641825055247545,0.9199497760832309,-0.41704321654886006
1733901971827909000,1.0279091796875,3.7412276787638663,-0.09013384164525196,-0.33586393972635264
1733901971837935000,1.03793505859375,3.6697874134063717,-1.0243327452953905,-0.7283335637718439
1733901971847962000,1.047962158203125,3.4403999811053274,-1.3584588283784687,-1.329637369172275
1733901971857989000,1.057989013671875,3.099240273058414,-1.4702816652677952,-1.7390858928084372
1733901971868015000,1.06801513671875,2.73963773034811,-1.4181848366752265,-2.048781956577301
1733901971878042000,1.0780419921875,2.443066521090269,-1.4185602458588777,-2.2136843494862317
1733901971888069000,1.088069091796875,2.2532746015965937,-1.542939928112924,-2.2861197633609174
1733901971898095000,1.09809521484375,2.216650798076391,-1.565135685569048,-1.9748060352623462
1733901971908122000,1.1081220703125,1.5882430049121379,-1.1486661772549152,-0.7019424004524946
1733901971918149000,1.118149169921875,0.7959574857115745,-0.648754927079007,0.1862193217039108
1733901971928176000,1.128176025390625,1.330170745396614,-0.6279474821761251,-0.38580081380605696
1733901971938202000,1.1382021484375,1.420121649956703,-1.0093830134447663,-0.7475608268111944
1733901971948229000,1.14822900390625,1.4457926823079585,-1.1511230688877403,-0.6070040628686547
1733901971958256000,1.158256103515625,1.8418974479854107,-1.441054109478742,-0.6649667147547006
1733901971968282000,1.1682822265625,1.9439345116585491,-1.4671828224696217,0.153747377166152
1733901971978309000,1.17830908203125,2.0996318538486958,-0.6912599706575274,1.4750792748078703
1733901971988336000,1.188336181640625,-1.8817571646869182,0.5955914191029965,2.6288635257288813
1733901971998362000,1.198362060546875,-17.590244020831584,4.71464133400917,8.252776882201433
1733901972008389000,1.20838916015625,-11.17037814708352,7.3046572426885366,6.660248747316002
1733901972018416000,1.218416015625,1.6217483841508626,2.791163627184927,1.632598279467225
1733901972028443100,1.228443115234375,4.80461035874784,-0.4604173711121082,-0.3305094269558787
1733901972038469000,1.23846923828125,5.5796261787176125,-1.3241457860186696,-2.7610978670060633
1733901972048496000,1.24849609375,2.4075655841201544,-1.680736287431419,-3.761262458793819
1733901972058523100,1.258523193359375,0.6093593938231467,-2.8014465362682937,-1.5899562385708093
1733901972068549000,1.268549072265625,0.9223317027837038,-3.8330847092062235,-2.255899689403176
1733901972078576000,1.278576171875,1.62162271194458,-3.7512615815222263,-2.861840214693546
1733901972088603100,1.28860302734375,2.1337691012501714,-3.374338193915784,-1.8506854423359036
1733901972098629000,1.298629150390625,1.4818752185583113,-2.278775830338895,-1.6254960462465882
1733901972108656000,1.30865625,1.0375666862040758,-2.7349893200203774,-0.3301610519096255
1733901972118683100,1.31868310546875,1.2811708599060774,-2.9031249957621097,0.14733283394873142
1733901972128710100,1.328710205078125,2.724513810974359,-1.5973215066418052,0.3987508962720632
1733901972138736000,1.338736083984375,3.3838054027020927,-0.12063245854973792,0.7690542812168598
1733901972148763100,1.34876318359375,3.0895594215214253,0.7541384516358375,1.0320186966881155
1733901972158790100,1.3587900390625,2.212184466317296,1.1645423763006926,1.186149227952957
1733901972168816000,1.368816162109375,1.596329280734062,1.52103380125314,1.819020722527802
1733901972178843100,1.378843017578125,0.9509194993644953,1.4672545725315809,2.7398256541356445
1733901972188870100,1.3888701171875,-0.3913701383709907,0.632703152270615,3.0642031542077657
1733901972198897200,1.398897216796875,-1.4158447032898664,-0.4365224085226655,2.8400021846339105
1733901972208923100,1.408923095703125,-1.7466648036301136,-0.9048317019283771,2.3400705492570997
1733901972218950100,1.4189501953125,-1.419096398562193,-0.46911476456969975,2.126248934878409
1733901972228977200,1.42897705078125,-0.25096856499016285,0.18175386672765015,1.456414614087343
1733901972239003100,1.439003173828125,-0.26581659003198144,0.26178046638369556,0.5752616016492247
1733901972249030100,1.449030029296875,-0.6958662954092025,0.03925152167528868,-0.20865502539575098
1733901972259057200,1.45905712890625,-1.0858265669822693,-0.15623188745826483,-1.4614984932228923
1733901972269084200,1.469084228515625,-1.7746306689202784,0.06905395474284887,-2.5325167826518413
1733901972279110100,1.479110107421875,-2.6694424966156483,0.15761165137887,-3.8159728308856486
1733901972289137200,1.48913720703125,-2.237819258311391,0.9761343123808502,-5.366302576988935
1733901972299164200,1.4991640625,-1.3557815719932318,1.7946277472883463,-5.216020830106735
1733901972309190100,1.509190185546875,-0.66616147749722,2.0998878744363783,-5.089496390908956
1733901972319217200,1.519217041015625,-0.09652209964394569,1.9635262240961193,-4.012145099066197
1733901972329244200,1.529244140625,-0.4018459396779537,1.5217407804787157,-2.9427862672820684
1733901972339271200,1.539271240234375,-0.47432723852097985,0.6938739525482058,-1.53590243069157
1733901972349297200,1.549297119140625,-0.5556359869420529,-0.08630816414356231,0.224818078558892
1733901972359324200,1.55932421875,-0.07805354601740837,-0.04022475062161684,0.6958958137646317
1733901972369351200,1.56935107421875,1.1308721618890762,0.18512129733413457,0.5462441814795136
1733901972379378200,1.579378173828125,1.7614473622202873,0.08746902461647987,0.3130982734277844
1733901972389404200,1.589404052734375,1.9692717820107937,-0.07658201216012239,0.08339987548142672
1733901972399431000,1.599430908203125,1.705738334479928,-0.6407815370470284,0.21811361248418687
1733901972409458200,1.609458251953125,1.6676292608380316,-0.3921355697855353,-0.0737514649093151
1733901972419485200,1.619485107421875,1.7932003448337315,-0.08188654830902814,0.48666021200194953
1733901972429511200,1.62951123046875,2.0031126768141982,-0.8388686989381909,0.49670288258865475
1733901972439538000,1.639537841796875,1.6164485241770743,-1.5782541103392838,0.6356298533722758
1733901972449565200,1.649565185546875,1.307824473553896,-1.4634537189438939,1.4446686467140912
1733901972459592200,1.65959228515625,1.346782272979617,-0.9806497439786791,2.350570462092012
1733901972469618200,1.6696181640625,1.4630705648452043,-0.5738403366744518,2.717858444738388
1733901972479645000,1.67964501953125,1.3916367292284966,-0.23552549666464329,2.372994767607003
1733901972489672200,1.689672119140625,1.0745973169595002,0.03863163621127605,1.2963288276799023
1733901972499699200,1.69969921875,0.552940756508708,0.21573738487213848,-0.19822335549145936
1733901972509725200,1.70972509765625,0.2772428239315748,0.45780309696048493,-1.5934331209011374
1733901972519752000,1.719751953125,-0.08720072906911372,0.5991527648463845,-2.3911693067230284
1733901972529779200,1.729779296875,-0.4511100290626287,0.7407447170555591,-2.3006973008982836
1733901972539806200,1.73980615234375,-0.5165934318423271,0.5977189326509833,-1.5910663917697965
1733901972549832200,1.749832275390625,-0.5092261179447174,0.11554185741245745,-0.6849056331947445
1733901972559859000,1.75985888671875,-0.5142570978492498,-0.435036846140027,0.23102716233208775
1733901972569886200,1.76988623046875,-0.38338323127031326,-0.39152971284687516,1.1350018090397118
1733901972579913200,1.779913330078125,-0.0860293472021818,0.08547609723359346,1.664829108725488
1733901972589939200,1.789939208984375,-0.0531383004695177,0.04257949705421924,1.5993709865175187
1733901972599966000,1.799966064453125,-0.21027005937695503,-0.03923544732332229,1.2286131358034909
1733901972609993200,1.8099931640625,-0.38886370850801466,-0.16803747606426475,0.45546924718543885
1733901972620020000,1.82002001953125,-0.3796826231867075,-0.7477391059875488,-0.1706914977043867
1733901972630046000,1.8300458984375,-0.5078513224601745,-0.9947402286514639,0.023885610239207742
1733901972640073000,1.840072998046875,-0.44983518682122225,-0.5045902748376131,0.33028672411590815
1733901972650100000,1.850099853515625,-0.26198738713264463,-0.17001579039990902,0.915091230136156
1733901972660127000,1.860126953125,-0.2248106259047985,-0.032178806810081007,1.5485820256531238
1733901972670153000,1.870153076171875,-0.2534837626814842,0.23199673801660536,0.9272226896956562
1733901972680180000,1.880179931640625,0.350087695389986,0.1504746391057968,0.2238546403542161
1733901972690207000,1.89020703125,0.3694301092416048,-0.3775955877795815,-0.6634113020062447
1733901972700234000,1.90023388671875,0.465194083994627,-0.7451064193964004,-2.0148633203625677
1733901972710260000,1.910260009765625,0.58315001681149,-0.6145660225555301,-2.8460020095705985
1733901972720287000,1.920286865234375,0.7117296349734068,-0.5037871417611837,-2.8306489576160905
1733901972730314000,1.93031396484375,0.3389607366979122,-0.019926643480360506,-1.9512427888453006
1733901972740341000,1.940341064453125,0.016364859345555306,0.32386487437486644,-0.3713409112989902
1733901972750367000,1.950366943359375,-0.08539514095187187,0.6332599093705416,1.2883587255835531
1733901972760394000,1.96039404296875,0.2916524575561285,1.3604948642507195,2.0930060059681534
1733901972770421000,1.9704208984375,0.7583961090803146,0.766830759948492,2.05379160143286
1733901972780448000,1.980447998046875,0.3830401169210672,0.7626368153899907,2.715099501419067
1733901972790474000,1.990473876953125,0.6332745224177837,1.6247399671822786,2.4458099745795128
1733901972800501000,2.0005009765625,0.23709552246034143,1.239505262826383,2.2944135444536804
1733901972810528000,2.010528076171875,-0.3836813374340534,1.0654279220759868,2.0945541121929883
1733901972820555000,2.020554931640625,-0.8972329173624515,1.2431062099277972,1.7101953138887882
1733901972830582000,2.03058203125,-1.4254787930756807,1.2185422620356081,1.1001070212692021
1733901972840608000,2.04060791015625,-1.0860966160953045,1.2348530531063675,0.34207097767293454
1733901972850635000,2.050635009765625,-0.7370908707231283,1.288064711073041,-0.448202032661438
1733901972860662000,2.060662109375,-1.1090957988888024,1.6441411254838108,-0.6665338179409503
1733901972870689000,2.07068896484375,-1.3940636641144752,1.9089017767220735,-0.6345937883228063
1733901972880715000,2.080715087890625,-1.5503186401873825,1.9576155387476086,-0.6948889748096466
1733901972890742000,2.090741943359375,-1.5655413437604904,2.2388281430929897,-0.47085868562757965
1733901972900769000,2.10076904296875,-1.5841110196739434,2.1479469719454647,-0.45763153978586196
1733901972910796000,2.110796142578125,-1.4857161118954418,1.8631246526703238,-0.3595926058381796
1733901972920822000,2.120822021484375,-0.9712976860046386,1.2747919725239276,-0.06493219863772393
1733901972930849000,2.13084912109375,-0.5993412731558084,0.6633309302464128,-0.08479279114454984
1733901972940876000,2.1408759765625,-0.5849602811038493,0.3910203020200133,0.037356501708924766
1733901972950903000,2.150903076171875,-0.7798504005193709,-0.04610620987564325,0.6392287546470761
1733901972960929800,2.1609296875,-0.9158896870374679,-0.3011246347784996,1.668663864582777
1733901972970956000,2.1709560546875,-0.28255320529937744,-0.35382571287453174,2.4506255581676957
1733901972980983000,2.180983154296875,0.32042496305406093,-0.954815922281146,2.1842229849413037
1733901972991010000,2.191010009765625,0.5320587119996547,-1.5653116266578435,1.4797224244385956
1733901973001036800,2.201036865234375,0.15457622920572756,-2.371774724292755,1.6677306753858923
1733901973011062800,2.211062744140625,0.35753684235215183,-2.6121599359482524,0.6174149822458624
1733901973021090000,2.221090087890625,0.9355606021910905,-1.8856471578627825,-0.5946621754288673
1733901973031117000,2.231116943359375,0.37093817571699617,-1.4759873295634984,-0.6962745839491487
1733901973041143800,2.241143798828125,-0.3518956215947866,-1.1150737042546273,-0.9544190319180488
1733901973051169800,2.251169677734375,-0.9288269100219011,-0.3675748367637396,-1.3792274756409226
1733901973061197000,2.261197021484375,-1.4279676872819662,-0.6254179636985063,-1.6648656413435936
1733901973071224000,2.27122412109375,-1.5347481460899113,-0.6630249330371618,-1.5334652666725217
1733901973081250800,2.281250732421875,-0.9784621708065271,-0.491324550551176,-1.2869145181246102
1733901973091276800,2.29127685546875,-0.7201525954037904,-0.451323964074254,-0.9817929226644336
1733901973101304000,2.301303955078125,-0.30591128453314304,-0.20720015041232107,-0.8378314648449421
1733901973111331000,2.3113310546875,-0.10805120939612388,0.5687830532848834,-0.6488809646114707
1733901973121357800,2.32135791015625,-0.6098404553383588,1.135019929218292,-0.7766128799028694
1733901973131385000,2.331385009765625,-1.045281790626049,1.5105658909916877,-0.7858605276543646
1733901973141411000,2.3414111328125,-1.2679139034479856,1.2404992422997951,-1.8625056439891456
1733901973151438000,2.35143798828125,-1.2625596829384564,0.7087006425410509,-3.645755088172853
1733901973161464800,2.36146484375,-0.9067612086862326,0.7040326507300138,-4.399137168483436
1733901973171491800,2.371491943359375,-0.5832879639774561,0.197356801789999,-4.367753895965218
1733901973181518000,2.38151806640625,1.199941021940112,-0.6950900503396987,-3.0505723960012197
1733901973191545000,2.391545166015625,0.4359177206277847,-0.9308739056795835,-1.489686476831138
1733901973201571800,2.40157177734375,-1.0537392378479242,-0.40604456041157244,-5.365274402984976
1733901973211598800,2.411598876953125,1.7214736637502908,-0.5949035829693079,-8.171647582000494
1733901973221626000,2.421626220703125,8.111458193975686,-2.3577263251960274,-2.141279038488865
1733901973231652000,2.431652099609375,5.382161824899912,-2.0597136849582194,11.352323444730043
1733901973241678800,2.441678955078125,-8.03601161558628,0.6276917538493871,15.81935195391774
1733901973251705900,2.451705810546875,-3.947240080696344,1.4225439086675644,1.5456296055883167
1733901973261733000,2.461733154296875,1.910786275294423,0.2824292866587639,-4.932049574702978
1733901973271759000,2.471759033203125,0.24203707051575182,-1.1014549287468194,-1.927974141460657
1733901973281785900,2.481785888671875,0.07233926002383231,-2.9047160643458363,1.5402441131576894
1733901973291812900,2.491812744140625,-0.24863982978165147,-3.4075253009855744,0.9007532735083251
1733901973301840100,2.501840087890625,0.19258359603881836,-2.417362755513191,0.03753448862433433
1733901973311866000,2.5118662109375,0.5096633403182029,-1.6602473338931798,0.8186999172650277
1733901973321892900,2.521892822265625,0.3182522951900959,-1.6537234850823879,2.0058637290880084
1733901973331920000,2.531919921875,0.4208990151941776,-1.1643395472049713,2.995272241322696
1733901973341947100,2.541947021484375,0.6708475894868373,-0.5766109704315662,3.607460428830981
1733901973351974000,2.551973876953125,1.2940858710587024,-0.7503899127572774,3.671312723277509
1733901973362000000,2.561999755859375,1.1141326240122318,-1.1108932036995887,3.516013732755184
1733901973372027000,2.57202685546875,0.4557248293817043,-1.1785258934676646,2.700082549551129
1733901973382054100,2.58205419921875,-0.26510171976089475,-2.2196756988555193,2.705420111186802
1733901973392081000,2.592080810546875,-0.6996838078707456,-2.3279081100374457,3.241359756273031
1733901973402107000,2.60210693359375,0.04662380400896072,-0.8706851021766662,3.451001162357628
1733901973412134000,2.6121337890625,-0.15185586433112622,0.6084323421061039,2.526138187530637
1733901973422161000,2.622160888671875,-0.1335042150825262,1.5099755238831043,1.2670606476195156
1733901973432188200,2.632188232421875,0.623355770471692,1.5032938541620968,0.217064231295418
1733901973442215000,2.64221484375,1.111851235076785,-0.5612924052685498,-1.41470020942986
1733901973452241000,2.652240966796875,-0.1835094782233238,-2.116052242773771,-2.6359081835433837
1733901973462268000,2.662267822265625,-2.0585551625728606,-1.7591583745002746,-2.4902900445580483
1733901973472295200,2.672295166015625,-2.5652123068124055,-1.6219436144620178,-2.076328865803033
1733901973482322000,2.682322021484375,-1.3974573982059955,-2.186341000008583,-2.9061919821172952
1733901973492348000,2.692347900390625,-0.8635913445234298,-2.349863921257853,-2.655783389097452
1733901973502375000,2.702375,-0.36372751368582246,-1.4908382772147655,-1.4420061495065688
1733901973512402200,2.712402099609375,1.3173948504537343,0.24734686736166475,0.9635233987413346
1733901973522429000,2.722428955078125,2.5392285552501677,1.8015812196880578,2.2023260662563144
1733901973532455000,2.732454833984375,2.214552364492416,3.0010847269937395,1.14770157000646
1733901973542482000,2.74248193359375,-1.9131483282506465,3.1773098934277892,-2.2635070956669745
1733901973552509200,2.75250927734375,-1.4572025495946406,2.4932427568838,-1.7212537373892962
1733901973562536000,2.762535888671875,0.7895324211001395,2.3769775536328552,0.6634213850088417
1733901973572563000,2.77256298828125,1.3635773404359817,1.6036229448735713,2.107399711371213
1733901973582589000,2.7825888671875,1.4800187770366668,0.9089473205536603,3.167001849903166
1733901973592616200,2.7926162109375,-0.2140133375585079,1.429336929808557,3.4553289624288674
1733901973602643000,2.802642822265625,0.28850013100504873,2.102909268084168,3.2621754575476047
1733901973612670000,2.812669921875,1.642646795272827,1.7597765063986182,3.2658784037187694
1733901973622696400,2.822696533203125,1.5497750348299741,-0.6490756104007362,3.38703722423017
1733901973632723500,2.832723388671875,0.37083120821118354,-1.6438021027877925,0.05353489857167005
1733901973642750500,2.84275048828125,0.1371463709771633,-1.6379653594583272,-0.8589595200043171
1733901973652777500,2.852777587890625,-0.2834744117975235,-1.8521420708850025,-1.474111891080439
1733901973662804500,2.862804443359375,-0.963423007106781,-2.1252491101861,-2.430953181709349
1733901973672830500,2.87283056640625,-0.1440565887570381,-1.4257602403655647,-1.8196569746047258
1733901973682857500,2.882857421875,0.27352351114749907,-0.4950435710743069,-1.9551421343713997
1733901973692884500,2.892884521484375,-0.4187035509765148,0.29059710328429933,-2.0198567447356877
1733901973702911500,2.902911376953125,-1.0651976204514504,1.0738938448652624,-1.9992381734684108
1733901973712937500,2.9129375,-1.840993777143955,1.362498605288565,-1.8197390999302268
1733901973722964200,2.922964111328125,-1.824634178495407,2.148623556032777,-1.2134138131059706
1733901973732991500,2.932991455078125,-1.4410235682100057,2.798667134682834,-0.3103909872304648
1733901973743018500,2.9430185546875,-1.1929980709344148,2.7571134735450147,1.045049589305371
1733901973753044500,2.95304443359375,-0.9139280315756797,2.759348977512121,0.683072426418215
1733901973763071200,2.9630712890625,-0.526050996017456,2.5231650169387456,-1.3249651395775377
1733901973773098500,2.973098388671875,0.48932373212277885,2.0195164068654177,-1.75393537915498
1733901973783125500,2.98312548828125,1.3074410271942616,1.8511410771489143,-0.8227423245236277
1733901973793152300,2.99315234375,1.9880173990130423,1.454926421356201,-0.47535680076442655
1733901973803178200,3.00317822265625,1.269194590908289,1.492838511121273,-0.41613928997907784
1733901973813205500,3.01320556640625,0.9047609747797251,0.5221972431987524,0.014821374496910721
1733901973823232500,3.023232421875,2.154227367389202,-0.41568244958966966,1.057300510526076
1733901973833259300,3.03325927734375,1.8626713559448718,0.25833734019249677,1.2228070068079977
1733901973843285200,3.04328515625,-1.0231903703272343,1.6738956277564168,3.5121409829750654
1733901973853312500,3.0533125,-3.6985517355978486,-0.8521440678358078,-3.0206539353385566
1733901973863339500,3.063339599609375,-4.796265139728784,0.31753421004861593,-4.093351263895631
1733901973873366300,3.0733662109375,-0.9822831903994083,1.0538330536112188,1.6065459927134216
1733901973883392300,3.083392333984375,-3.6486481792658565,-1.6112752131924033,5.0248926935732365
1733901973893419500,3.09341943359375,-0.8742652987509966,-3.9690804488435387,6.919691710662842
1733901973903446500,3.103446533203125,2.2067741317063567,-2.5114082359105345,-1.7882058975473045
1733901973913473300,3.113473388671875,2.44371767847538,-0.5784118823736906,5.233313325691223
1733901973923500300,3.123500244140625,2.635374807319045,-1.4674395737096666,4.092508967852592
1733901973933526300,3.1335263671875,2.878475123152137,-2.6152614090949293,-0.12103855513259767
1733901973943553500,3.143553466796875,0.7413871066123247,-1.1284358746528624,-1.5042539313659071
1733901973953580300,3.153580322265625,0.6899392434477806,0.8715186303913592,-1.341675889751315
1733901973963607300,3.163607177734375,1.3022522263795138,0.19935352856516836,-1.5965052218228577
1733901973973633300,3.17363330078125,2.028632317996025,-2.349465277329087,-1.3939824155718088
1733901973983660500,3.18366064453125,0.7760942628562449,-3.4789474461644887,-0.22027648960649965
1733901973993687300,3.193687255859375,1.372409466189146,-3.774240306049585,-1.2729038206897676
1733901974003714300,3.20371435546875,1.3733949700951575,-0.509784336349368,-1.7409696607284246
1733901974013740300,3.213740234375,-0.4470113615721464,5.81885462155342,-0.7423707108221947
1733901974023767600,3.223767578125,-1.1031856980621815,3.254245541331172,-2.2241738870576024
1733901974033794300,3.233794189453125,0.3079787384569645,-6.559219399380684,-0.7623439699232578
1733901974043821300,3.2438212890625,0.28529578200578687,-10.644709428381919,-2.271400040873885
1733901974053847300,3.253847412109375,-0.3685679394543171,-7.532501537200808,-0.6514065375663339
1733901974063874600,3.26387451171875,-1.4483084645211697,-2.5572949578166004,1.5147561822883784
1733901974073901300,3.2739013671875,-2.090158507582545,3.3593472532719373,1.8652616646990179
1733901974083928300,3.28392822265625,0.17100713952481747,5.905719835057854,1.6855594698041676
1733901974093955300,3.293955322265625,2.0663509310156107,0.39172377411425113,-0.10873130061477422
1733901974103981600,3.303981689453125,0.16349135706722737,-3.188720052975416,-0.3851601778149605
1733901974114008300,3.31400830078125,0.780939364799857,-2.0786662227094173,-1.112859389206022
1733901974124035300,3.324035400390625,-0.2756757207453251,0.2503630003124475,0.2519682435519993
1733901974134062300,3.334062255859375,-0.09870178177058696,2.7280606898009774,1.9658818473115562
1733901974144088600,3.344088623046875,0.6182943954288959,3.4619074640363454,0.9089254009827971
1733901974154115300,3.354115234375,-0.017228782698512076,3.2108132268398997,0.8292604742459952
1733901974164142300,3.364142333984375,-0.08946165973842143,2.356637945437431,1.1454077599808572
1733901974174169300,3.37416943359375,0.3335585853934288,2.0444570791155097,1.582204017008841
1733901974184195300,3.3841953125,0.3087538144826889,2.498848614066839,1.5532994095638393
1733901974194222300,3.394222412109375,-0.30828327436149117,2.0222388175666333,1.1051656198330222
1733901974204249300,3.404249267578125,-0.2616413501739502,-0.3016121260344982,-0.10321896693408489
1733901974214276400,3.4142763671875,-0.005817746368050575,-2.049979057407379,-2.4192085295103487
1733901974224302300,3.42430224609375,-1.0332499920487404,-1.303600133857131,-2.047541601127386
1733901974234329300,3.434329345703125,-0.8613976338714361,-0.12428455131649971,-0.8865602783091365
1733901974244356400,3.4443564453125,-0.3558820608824491,0.6498182454615831,-0.5116847631432115
1733901974254383400,3.45438330078125,-0.3104430827438831,1.2807657862365245,-0.8409113106817007
1733901974264409300,3.464409423828125,-0.5239759433090686,1.3323428287386894,-1.355565737285465
1733901974274436400,3.474436279296875,-0.6885930895358323,1.9673095420271156,-0.3396757530994713
1733901974284463400,3.48446337890625,-0.4978191732674837,1.9566279890149831,0.24475173630192876
1733901974294490400,3.494490478515625,-0.27792086932361126,0.609922288402915,0.2286484505020082
1733901974304516400,3.504516357421875,-0.13800854076445102,0.19054829081892966,1.1301352259166537
1733901974314543400,3.51454345703125,0.29559973387718197,-0.10547989760339259,1.7886833058007061
1733901974324570400,3.5245703125,1.0590081181615592,-0.24158231248557566,1.0254846187442541
1733901974334597400,3.534597412109375,0.8187474096685647,-0.06531213786602019,-0.9047704732604325
1733901974344624400,3.544624267578125,0.5126338805615902,0.3089934684574604,-2.743595528063178
1733901974354650600,3.554650634765625,0.17110767728984355,1.516992124646902,-2.2648624557986854
1733901974364677400,3.564677490234375,-1.2053899349957704,2.492550975227356,-0.04437777864784002
1733901974374704400,3.574704345703125,-1.0074930349797009,2.2319062348753214,0.6547095246344804
1733901974384731400,3.5847314453125,-0.039572716453671455,1.828103315910697,1.699559645844996
1733901974394757600,3.594757568359375,0.12928630512654782,1.0132581743776798,2.1642878658935425
1733901974404784400,3.604784423828125,0.43636137274205683,-0.3311047625005245,0.7306716513305902
1733901974414811400,3.614811279296875,0.2110211700052023,-1.0909592536956072,-0.023619652779400348
1733901974424838400,3.62483837890625,-0.38568332490623,-1.2137696408063172,-0.43651831686943765
1733901974434864400,3.634864501953125,-0.6778945853888988,-0.7174293079197407,-0.24813801773935554
1733901974444891400,3.644891357421875,-1.0808236441284418,-1.3521458458393811,-0.9425456387728453
1733901974454918400,3.65491845703125,-1.1811889751970768,-2.2748101415783166,-1.4253300322547555
1733901974464945400,3.6649453125,-0.855028683361411,-2.611525145176053,-0.90077921166718
1733901974474971400,3.674971435546875,-0.5130529827564955,-2.925097758117318,-0.03495762387365103
1733901974484998400,3.684998291015625,0.3448281674265861,-2.821666025215387,-0.09504325926303862
1733901974495025400,3.695025390625,1.6209113488048315,-2.629548293122649,-0.19244184948056936
1733901974505052400,3.705052490234375,2.182296108531952,-1.6432856776982545,0.7096797167062759
1733901974515078400,3.715078369140625,1.2690841162711382,-1.4486188456445932,0.6086226039811968
1733901974525105400,3.72510546875,0.6107458797454833,-1.8995891739755868,0.6481067653685808
1733901974535132400,3.73513232421875,1.4145143314689397,-3.2206986610382793,1.4264932308152316
1733901974545159400,3.745159423828125,0.730450117534399,-4.633000577154755,0.7058826625108718
1733901974555185400,3.755185302734375,-0.07504793446063995,-3.8302725743949413,-0.43278643686473367
1733901974565212400,3.76521240234375,-1.6161030717402696,-3.3673546186387537,-0.9247285347923636
1733901974575239400,3.775239501953125,-1.6653648230373859,-0.9803817406922578,-2.1480548162341115
1733901974585266400,3.785266357421875,0.38098727604448795,2.529566992935538,-1.867301938354969
1733901974595292400,3.79529248046875,-0.5519318717271089,2.2912539113789796,-0.42011853234097357
1733901974605319400,3.8053193359375,0.34605040269792076,-0.9899351664572954,1.2257346577577293
1733901974615346400,3.815346435546875,1.5775906779944895,-0.6957318553745746,0.9095561001017689
1733901974625373000,3.825373046875,0.5715209538161754,0.45987668836414813,2.074850463813543
1733901974635399000,3.83539892578125,0.19079671262204645,0.6118102941066026,2.1503739068314434
1733901974645426000,3.845426025390625,0.6625193216025829,1.9067583349525927,2.509309510065615
1733901974655453000,3.855452880859375,1.1134165846973656,3.344113443782925,2.5612594775334
1733901974665480000,3.86547998046875,1.4388888942688702,3.198626822222769,1.710120787347853
1733901974675506000,3.875505859375,-0.023012042275071143,2.734577816610038,-0.6193184777796268
1733901974685533000,3.885532958984375,-0.7863327482759952,3.582392330808937,0.06526859098523854
1733901974695559700,3.8955595703125,-1.013227779239416,3.7048856147944926,-0.4419800894066691
1733901974705587000,3.9055869140625,0.45028117702305315,2.7406816864430903,-1.9882256349362433
1733901974715613000,3.915613037109375,2.0075193873405457,1.5838535377815366,-1.435350637140125
1733901974725640000,3.925639892578125,2.165862860125303,0.28394729000627994,-0.043892917740345
1733901974735666700,3.935666748046875,1.8333716117024421,0.17783786232769488,0.545753913744539
1733901974745694000,3.94569384765625,1.35906716953516,0.24248686010986564,0.81833678304106
1733901974755721000,3.955720947265625,0.31749943099617955,-0.28414982684105633,1.0302861738070845
1733901974765747000,3.965746826171875,-1.050839424753189,-1.3495467692568897,0.027924218105524777
1733901974775773700,3.975773681640625,-1.935620856821537,-1.6732412555009126,-0.8406063363857567
1733901974785801000,3.985801025390625,-2.3818004437446594,-1.442839677721262,-0.4981726628802716
1733901974795828000,3.995827880859375,-2.421312954443693,-1.1659174640461802,-0.7876973146274685
1733901974805854000,4.00585400390625,-1.8347347167491912,-0.6316366920828819,-0.8324109011009335
1733901974815880700,4.015880615234375,-0.8943325197458266,-0.1996326377674937,-0.6572970569096506
1733901974825908000,4.025907958984375,-0.012653145346045494,-0.02077741509079933,-0.3507464515596628
1733901974835935000,4.03593505859375,0.5621498988807201,-0.037435119903087614,-0.05564224611446261
1733901974845961000,4.0459609375,0.6299836641788482,-0.07370324185341597,0.15793942202851174
1733901974855987700,4.05598779296875,0.3483914128661155,-0.07417232066988945,0.32818668309673665
1733901974866015000,4.066014892578125,0.06734042882323264,-0.01555120487511158,0.5464119392618536
1733901974876042000,4.0760419921875,-0.10284545744657515,0.07240443421453237,0.7522042687028646
1733901974886068000,4.08606787109375,-0.20471476333737373,0.16088117456883191,0.9034497460506856
1733901974896094700,4.0960947265625,-0.279517783126235,0.24498335310071706,0.9518193708136677
1733901974906122000,4.1061220703125,-0.3755459617733955,0.25735358985215423,0.9542520047880708
1733901974916149000,4.11614892578125,-0.46026773350834843,0.25868688428252934,0.8444511752456426
1733901974926175000,4.126175048828125,-0.4686830951541662,0.20852730736285446,0.7411839852556585
1733901974936201700,4.13620166015625,-0.3951122475087642,0.09111147277206182,0.6899515184074639
1733901974946228700,4.146228759765625,-0.23485037388205526,-0.07574380777031182,0.6983557741373777
1733901974956256000,4.156256103515625,-0.026870471268892287,-0.2514800216436386,0.7145311022602021
1733901974966282000,4.166281982421875,0.14618658652305602,-0.37827480221539733,0.7207960078738629
1733901974976308700,4.176308837890625,0.2530804425776005,-0.5267302104532718,0.7029702821955084
1733901974986335700,4.186335693359375,0.2823421928972006,-0.6110881173118948,0.6881789557769894
1733901974996363000,4.196363037109375,0.300931742554903,-0.6747066030025481,0.6352706646710634
1733901975006389000,4.206388916015625,0.3046101388067007,-0.7215715222910046,0.598358253467828
1733901975016415700,4.216415771484375,0.2885328642308712,-0.6921542891487479,0.5945556463144719
1733901975026442800,4.22644287109375,0.2890840683728456,-0.6920037747621536,0.5849101583518087
1733901975036468700,4.23646875,0.26307752045691013,-0.6824620394349098,0.5879264374330639
1733901975046496000,4.24649609375,0.22127543751597403,-0.6945335855007171,0.5970990471869707
1733901975056522800,4.256522705078125,0.14773206239938735,-0.6711506640866398,0.5607385707780719
1733901975066549800,4.2665498046875,0.0013993454039096832,-0.6440244644910097,0.49650122253671286
1733901975076575700,4.27657568359375,-0.0754419022142887,-0.5949596970707178,0.43740956662073727
1733901975086603000,4.28660302734375,-0.10111761074066161,-0.5347200401633978,0.42026144794300196
1733901975096629800,4.296629638671875,-0.003353402081131935,-0.501060054884851,0.34706498656794427
1733901975106656800,4.30665673828125,0.10226678077578544,-0.44554888780415053,0.2062201994642615
1733901975116682800,4.316682861328125,0.2123492037385702,-0.3968246043846011,0.009785188694298267
1733901975126710000,4.3267099609375,0.34046295795440673,-0.3700599315777421,-0.16079890311285852
1733901975136736800,4.33673681640625,0.3992050697803497,-0.31819062813073395,-0.281865807557106
1733901975146763800,4.346763671875,0.36006840665638445,-0.2819751131504774,-0.36825244376435873
1733901975156791000,4.356791015625,0.240662275031209,-0.2540460727393627,-0.39676615219563244
1733901975166817000,4.366817138671875,0.02066460236608982,-0.20200053594261408,-0.3801229143001139
1733901975176843800,4.37684375,-0.14565700969099998,-0.15304711994230746,-0.31596009259968993
1733901975186870800,4.386870849609375,-0.2870154454052448,-0.04114624938070774,-0.2363113863453269
1733901975196896800,4.396896728515625,-0.3707318394899368,0.09234773656874895,-0.18386632883697748
1733901975206924000,4.406924072265625,-0.3672773151218891,0.25376228736191986,-0.14586743757128715
1733901975216950800,4.41695068359375,-0.28083178833425043,0.3972267554447055,-0.13479308584928512
1733901975226977800,4.426977783203125,-0.1841466070830822,0.5531301416009664,-0.1651625051498413
1733901975237003800,4.437003662109375,-0.13012217142879962,0.6852522546753287,-0.2423392683327198
1733901975247030800,4.44703076171875,-0.09191431358754634,0.7648083142101765,-0.3099330873951316
1733901975257057800,4.457057861328125,-0.08227963927984237,0.8152490461587906,-0.3658417293608188
1733901975267084800,4.467084716796875,-0.05870470242500305,0.8278647821038961,-0.43551498504579067
1733901975277110800,4.47711083984375,-0.009918751946091651,0.7638625577926635,-0.4896683077767491
1733901975287137800,4.4871376953125,0.016405775877833366,0.6639060997858643,-0.5019026431888342
1733901975297164800,4.497164794921875,0.05232639956474304,0.519667140199244,-0.497514637362957
1733901975307191800,4.50719189453125,0.06702595604658126,0.3830065069124102,-0.4669277759194374
1733901975317217800,4.5172177734375,0.037592356291413304,0.262262696942687,-0.4124637798041105
1733901975327244800,4.527244873046875,-0.01778232492804527,0.13333148886412383,-0.3190454913944006
1733901975337271800,4.537271728515625,-0.06811784293651581,0.01714548832923174,-0.23199615349471567
1733901975347298800,4.547298828125,-0.09338964683711529,-0.10074468577504157,-0.16679361348301172
1733901975357324800,4.55732470703125,-0.10067337410449981,-0.17383680999279022,-0.1189236088052392
1733901975367351800,4.567351806640625,-0.14505202953517435,-0.2287713462293148,-0.08897621430903672
1733901975377378800,4.57737890625,-0.15254618468284606,-0.24092589440345763,-0.047546471811831
1733901975387405800,4.58740576171875,-0.128646253657341,-0.24781243904680011,-0.06601327187269926
1733901975397431800,4.597431884765625,-0.06555354540646076,-0.22041560581624506,-0.10498276173621415
1733901975407458800,4.607458740234375,-0.009531798455119133,-0.200379949003458,-0.14545242702960967
1733901975417486000,4.617486083984375,-0.00863221926689148,-0.15445669447928667,-0.188112003582716
1733901975427512800,4.627512939453125,-0.024010990184545517,-0.11070172390490769,-0.19812135642170906
1733901975437538800,4.637538818359375,-0.1058849712729454,-0.12809300368875265,-0.1978355252176523
1733901975447565800,4.64756591796875,-0.17091770767569542,-0.1705228631392121,-0.11497487117946147
1733901975457593000,4.657593017578125,-0.2199965036213398,-0.19748861147612332,-0.026114976726472377
1733901975467619800,4.667619873046875,-0.23466098878979683,-0.18263941739052533,0.010102291819453239
1733901975477645800,4.677645751953125,-0.2327268058568239,-0.12453443442434071,0.07086831068843602
1733901975487672800,4.6876728515625,-0.21090543467104433,-0.0358607101932168,0.1433922796294093
1733901975497699800,4.697699951171875,-0.1937012018918991,0.05439736061990261,0.15960867041498422
1733901975507726800,4.707726806640625,-0.14566694656312465,0.17838526707738636,0.17710808674842118
1733901975517752800,4.7177529296875,-0.1197141746610403,0.29310704027861356,0.17131898195296524
1733901975527779800,4.72777978515625,-0.09938742594718933,0.41840953646600243,0.20027561184614895
1733901975537806800,4.737806884765625,-0.046231005299091334,0.5425558483555912,0.20757979737967253
1733901975547833900,4.747833740234375,0.019217910689115523,0.6923275998890399,0.19076894783228635
1733901975557859800,4.75785986328125,0.08711948052644729,0.8133920201152562,0.16631722814291713
1733901975567886800,4.767886962890625,0.16692834577858448,0.866245073902607,0.129022978015244
1733901975577913900,4.777913818359375,0.23009002761244773,0.8602198222637176,0.06572860971242189
1733901975587940900,4.78794091796875,0.2597632813423872,0.7116939791381358,0.03960369611382484
1733901975597966800,4.797966796875,0.2846937244594097,0.41652942180782554,-0.012667466132342814
1733901975607993900,4.807993896484375,0.2853390366256237,0.0479535913079977,-0.09868599967956543
1733901975618020900,4.818020751953125,0.2606768890559673,-0.1676873474523425,-0.1885954031854868
1733901975628046800,4.828046875,0.20301789629161357,-0.26893004587739705,-0.2649231483235955
1733901975638073600,4.838073486328125,0.13143559211492536,-0.310010536545515,-0.30060294899195433
1733901975648100900,4.848100830078125,0.02489011110663414,-0.33089375009834765,-0.27790859436392784
1733901975658128000,4.8581279296875,-0.06618424452543259,-0.32632746509611604,-0.23114216701388357
1733901975668153900,4.86815380859375,-0.1568108563899994,-0.30242870311439035,-0.19225714056342838
1733901975678180600,4.8781806640625,-0.19455694193840026,-0.2151812122941017,-0.10820844578444958
1733901975688208000,4.888207763671875,-0.11385843437016009,-0.06926642844974994,-0.09392799149751663
1733901975698235000,4.89823486328125,-0.01640519135594368,0.0497182628929615,-0.12425064904689788
1733901975708260900,4.9082607421875,0.028453941068053244,0.0889531256943941,-0.18548925386369228
1733901975718287600,4.91828759765625,0.023158172747492788,0.1178103868663311,-0.1512219503417611
1733901975728315000,4.92831494140625,-0.0951449660718441,0.29172318470478054,0.0025327333480119705
1733901975738342000,4.938341796875,-0.13343348793387413,0.4624976845175028,0.06416822852790355
1733901975748368000,4.948367919921875,0.016871055302023888,0.2229454165548086,0.0003673720076680183
1733901975758394600,4.95839453125,0.022325229054689404,0.005870937860012054,-0.005981704758107662
1733901975768422000,4.968421875,-0.05013794960975647,-0.006904372560977936,-0.07719254527390003
1733901975778449000,4.978448974609375,-0.1064122100174427,-0.007590016737580299,-0.1547223596781492
1733901975788475000,4.988474853515625,-0.059523617592453955,-0.0927916809439659,-0.0593470919817686
1733901975798501600,4.998501708984375,-0.06510930877029895,-0.14016688784211873,0.057418169745802876
1733901975808528600,5.008528564453125,-0.08953121784329414,-0.11580460000187158,0.0661418666884303
1733901975818556000,5.018555908203125,-0.14078735782802104,-0.10236147332191467,-0.005418517917394638
1733901975828582000,5.028581787109375,-0.1248550446808338,-0.11521452515423297,-0.08805705363750457
1733901975838608600,5.038608642578125,-0.11379822861552238,-0.11345920591950416,-0.12944120342731474
1733901975848635600,5.0486357421875,-0.09351181191205978,-0.07933189539015292,-0.1565530822366476
1733901975858663000,5.058662841796875,-0.08397942893505096,0.01026478890478611,-0.15197978297173975
1733901975868689000,5.06868896484375,-0.06513678129911422,0.0811652482971549,-0.1489294554904103
1733901975878715600,5.078715576171875,-0.008534019589424133,0.09965279888510703,-0.08661766848415135
1733901975888742700,5.08874267578125,0.04682721762657165,0.06936725847572088,0.011696283012628554
1733901975898770000,5.09877001953125,0.09173544988930225,0.03829261351525783,0.07576105116605758
1733901975908796000,5.1087958984375,0.10152209988832474,-0.0053904608666896815,0.08745528835207224
1733901975918822700,5.11882275390625,0.07554360902309418,-0.029099837756156918,0.10739800618439913
1733901975928849700,5.128849609375,0.0635480508029461,-0.07427431973963976,0.11411796208918094
1733901975938877000,5.138876953125,0.011819032609462737,-0.1129343052625656,0.12450374702513217
1733901975948903000,5.14890283203125,-0.028027240088582036,-0.12027239306569099,0.10345891316980123
1733901975958929700,5.1589296875,-0.029560441005229948,-0.12511515692174435,0.05000526314079761
1733901975968956700,5.168956787109375,-0.051534956926107406,-0.0853279209345579,0.014280162025988101
1733901975978982700,5.178982666015625,-0.054982467031478875,-0.06570581335872411,-0.0015180033475160597
1733901975989010000,5.189010009765625,-0.0036953473865985868,-0.02633358791321516,0.004468669846653938
1733901975999036700,5.19903662109375,0.05551438195109367,0.007610182742774486,-0.0041559506356716154
1733901976009063700,5.209063720703125,0.10231588061451911,0.01827829175144434,-0.004779050970077514
1733901976019089700,5.219089599609375,0.14087445158958434,0.04444470640420913,-0.02273760924786329
1733901976029117000,5.229116943359375,0.15121464381814,0.03202566207498312,0.006930383785068988
1733901976039143700,5.239143798828125,0.10801263095140456,-0.015234686271846293,0.06193389360457659
1733901976049170700,5.249170654296875,0.06552841096520423,-0.06164280170351266,0.0596785158932209
1733901976059196700,5.25919677734375,0.01598550463914871,-0.10670125609189271,0.04166559707969427
1733901976069224000,5.269223876953125,-0.021741876208782193,-0.11994213819801806,0.07178454875051975
1733901976079250700,5.279250732421875,-0.047513446325063706,-0.13981325209885834,0.1078217845544219
1733901976089277700,5.289277587890625,0.008486088794469833,-0.14396891047358512,0.12714549370557068
1733901976099303700,5.2993037109375,0.06533201161026954,-0.1665612660318613,0.1420002407491207
1733901976109330700,5.30933056640625,0.0951531493782997,-0.14572890588343143,0.14450783965587616
1733901976119358000,5.31935791015625,0.08151625369191169,-0.09426292254030703,0.09636544777750969
1733901976129384700,5.329384765625,0.060038581377267836,-0.04876549221277237,0.03930412864536047
1733901976139410700,5.33941064453125,0.026454291683435438,-0.04305909726470709,0.027168869693577288
1733901976149437700,5.349437744140625,-0.01751227581501007,-0.009508709840476512,-0.00865092396736145
1733901976159465000,5.35946484375,-0.05064473008811474,0.020101415525376795,-0.06164543205201625
1733901976169491700,5.36949169921875,-0.07666472200751304,0.024392682978510855,-0.09004851971566677
1733901976179517700,5.379517578125,-0.08103928382992744,0.04652765015810728,-0.10201748218983411
1733901976189544700,5.389544677734375,-0.06474865876436234,0.07903262018263339,-0.09519406591057777
1733901976199572000,5.399572021484375,-0.04024024045169353,0.07680909891426563,-0.10308511142134666
1733901976209598700,5.4095986328125,-0.03520224628448486,0.0525657612785697,-0.11711012964248657
1733901976219624700,5.419624755859375,-0.04135959987044334,0.015490414598584175,-0.0970291723832488
1733901976229651700,5.429651611328125,-0.05835048215985298,-0.028935002583265302,-0.059816755320131774
1733901976239679000,5.439678955078125,-0.06813420954942703,-0.06789514009654521,-0.0146919576972723
1733901976249705700,5.449705810546875,-0.08177402784526347,-0.06961597253978252,0.03695902682393789
1733901976259731700,5.459731689453125,-0.11330606118440627,-0.0490256044536829,0.04555763608217239
1733901976269758700,5.4697587890625,-0.09039806380569934,-0.020412088909745215,0.049477439874410625
1733901976279786000,5.479785888671875,-0.07508885099291801,0.00718085141479969,0.026200901444256304
1733901976289812700,5.489812744140625,-0.06399813265800476,0.00017068039178848266,-0.023792671258747577
1733901976299838700,5.499838623046875,-0.031174305942654607,-0.0126572369992733,-0.033661446583271026
1733901976309865700,5.50986572265625,0.030282910060882566,-0.012731471279263495,-0.06573766980171203
1733901976319893000,5.51989306640625,0.05404664748609066,-0.030005554424226283,-0.07931845138669014
1733901976329919000,5.5299189453125,0.08090250570774078,-0.12554448824971914,-0.021014730978012083
1733901976339945700,5.53994580078125,0.041019992652535434,-0.10797288346290587,-0.04174333849102258
1733901976349972700,5.54997265625,0.021231588599085808,-0.082742872877419,-0.019464578926563263
1733901976359999700,5.559999755859375,0.0112847796022892,-0.07416764449477195,0.04852554597705602
1733901976370026000,5.57002587890625,0.013164601999521255,-0.054796296809613704,0.09236351865977048
1733901976380052700,5.580052734375,0.01218143618106842,-0.0339738735333085,0.07792232085317373
1733901976390079700,5.590079833984375,0.009877250891923903,0.009017419192194938,0.0389344185501337
1733901976400106800,5.600106689453125,0.010797288346290589,0.01608662692606449,0.009592588731646538
1733901976410133000,5.610133056640625,0.035141456007957456,-0.0001958148330450058,-0.01511982772052288
1733901976420159700,5.62015966796875,0.0356318698734045,-0.023160803095996378,-0.012979893082380295
1733901976430186800,5.630186767578125,0.03131283763051033,-0.049746904465556144,-0.00381371306926012
1733901976440213800,5.6402138671875,0.013842062869668006,-0.05858779804706573,0.014811200162768363
1733901976450239700,5.65023974609375,0.006164367848634719,-0.05256400771290064,0.017173837640881536
1733901976460266800,5.660266845703125,-0.005444236880540848,-0.019701310291886327,0.03190904995799065
1733901976470293800,5.670293701171875,0.0067120648592710495,0.011367781710624695,0.017922610181570053
1733901976480320800,5.68032080078125,0.01888824034333229,0.025775077247619627,0.021699498371779917
1733901976490346800,5.6903466796875,0.0002262099713087082,0.05132978974282741,0.02606938401907682
1733901976500373800,5.700373779296875,-0.010142623829841614,0.05065466696023941,0.009135200352966786
1733901976510400800,5.71040087890625,-0.0310614932179451,0.04360445618778467,-0.021408114209771154
1733901976520427800,5.720427734375,-0.046774026134610173,0.022566928856074808,-0.03211304809749126
1733901976530453800,5.730453857421875,-0.04714519753456115,-0.04791530512422323,-0.00950491044819355
1733901976540480800,5.740480712890625,-0.05398994886279106,-0.08670213189721107,-0.004564823697507381
1733901976550507800,5.7505078125,-0.04087386218011379,-0.08639496564418077,0.002177051778137684
1733901976560533800,5.76053369140625,-0.04760638530552387,-0.06791676740646362,0.023008535143733022
1733901976570560800,5.770560791015625,-0.03479834165871143,-0.06679156276881694,0.024725860455632208
1733901976580587800,5.780587890625,-0.02663373990356922,-0.04942892455756664,-0.00026508067697286606
1733901976590614800,5.79061474609375,0.0007879355072975159,-0.04338642952293157,-0.0364028542459011
1733901976600640800,5.800640869140625,0.0023918635725975034,-0.025352175660431384,-0.05980740296989679
1733901976610667800,5.810667724609375,-0.019160627543926237,-0.025396599324047565,-0.0636453736975789
1733901976620694800,5.82069482421875,-0.032850714722275735,-0.04077449345886707,-0.03699468265920877
1733901976630721800,5.8307216796875,-0.027247487887740132,-0.028489889164268967,-0.03043342444747686
1733901976640747800,5.840747802734375,-0.017186112600564955,-0.04280161537230014,-0.03264233266860247
1733901976650775000,5.850775146484375,-0.015132102680206297,-0.028803777419030663,-0.027257424759864805
1733901976660801800,5.8608017578125,-0.026674071913957594,-0.004212356998026371,-0.02964782702773809
1733901976670828800,5.870828857421875,-0.037326398831605906,0.031988837195932866,-0.04018851026445627
1733901976680854800,5.880854736328125,-0.03998246629834175,0.05669979234337806,-0.03245528566390276
1733901976690882000,5.890882080078125,-0.02146890448629856,0.05817044941782951,-0.024631752431392668
1733901976700908800,5.90090869140625,0.007433949393033981,0.030318273635208604,0.013995499865710734
1733901976710935800,5.910935791015625,-0.0056780456364154816,0.01774754587560892,0.026474457688629625
1733901976720961800,5.9209619140625,-0.0000017535656690597534,0.010149638092517852,0.025647651475667953
1733901976730988800,5.93098876953125,0.025320903739333152,-0.0006648936495184898,0.044999709938466546
1733901976741015800,5.941015869140625,0.05396539894342422,0.013196750703454017,0.05097586173862219
1733901976751042800,5.951042724609375,0.07772036854028701,0.023215748153626918,0.04471592456102371
1733901976761068800,5.96106884765625,0.09529109654426574,0.0315016382008791,0.029093992537260055
1733901976771095800,5.971095703125,0.08168225790858269,0.013023147702217101,0.04209200579822063
1733901976781122800,5.981122802734375,0.06131342361867428,-0.009494389054179191,0.041430034758150575
1733901976791149800,5.99114990234375,0.046073184388875955,-0.024317864176630972,0.0592559065669775
1733901976801175800,6.00117578125,0.015508534777164459,-0.033141222101449964,0.04303308604061603
1733901976811202800,6.011202880859375,-0.005745850175619125,-0.027079730105400084,0.036052433373034
1733901976821229800,6.021229736328125,-0.0032242227435111998,-0.031079028874635695,0.04106792344748974
1733901976831255800,6.031255859375,0.017327566897869108,-0.037193712362647055,0.0570753476575017
1733901976841282800,6.04128271484375,0.02558101598024368,-0.05029898539036512,0.05005874689370393
1733901976851309800,6.051309814453125,0.007872340810298918,-0.06921674408912658,0.050507075183093546
1733901976861336800,6.0613369140625,-0.01563479150533676,-0.07602262471169233,0.03729366560578346
1733901976871362800,6.07136279296875,-0.022808044135570523,-0.05205401236414909,0.01747954258918762
1733901976881389800,6.081389892578125,-0.004121463844180107,-0.033306641796231266,0.0001131049856543541
1733901976891416800,6.091416748046875,0.005130933147668838,0.003596855448186397,-0.018449848926067353
1733901976901443800,6.10144384765625,0.027522797697782514,0.0017588263660669326,-0.005484861151874065
1733901976911469800,6.1114697265625,0.040973815423250196,0.00005289923101663589,-0.01544832902252674
1733901976921496800,6.121496826171875,0.024233108502626416,0.004214110563695431,-0.039006314742565155
1733901976931523800,6.13152392578125,-0.012515782701969146,0.02649608499854803,-0.05012245977967977
1733901976941550800,6.14155078125,-0.027131168031692503,0.07382453014552592,-0.06973989118039607
1733901976951576800,6.151576904296875,-0.046886254337429996,0.13054156588464974,-0.08617518541365861
1733901976961603800,6.161603759765625,-0.0733417150646448,0.09098112439066171,-0.08562778066396713
1733901976971630800,6.171630859375,-0.057020694860816,-0.011574410198628902,-0.12035568743497133
1733901976981657900,6.181657958984375,-0.05102233122885227,-0.1607844361960888,-0.1157338728532195
1733901976991683800,6.191683837890625,-0.08348609246015548,-0.268225112478435,-0.04635492393970489
1733901977001710800,6.2017109375,-0.12094634680449962,-0.2746355640426278,0.029394436788558957
1733901977011737900,6.21173779296875,-0.13536708634495734,-0.18815584272444247,-0.0008908113598823546
1733901977021764900,6.221764892578125,-0.19720541062057018,-0.06069762980788946,-0.035251346123218535
1733901977031790800,6.231790771484375,-0.24444120904803274,0.054472763943672176,-0.0375511474981904
1733901977041817900,6.24181787109375,-0.2500859369367361,0.13611030592769383,-0.01073532902598381
1733901977051844900,6.251844970703125,-0.22298574856519698,0.21299948434084653,-0.019245090956985948
1733901977061870800,6.261870849609375,-0.17268997804522512,0.293751475661993,-0.08327069614380597
1733901977071897900,6.27189794921875,-0.11782675347924232,0.3202817551910877,-0.1715419770538807
1733901977081924900,6.2819248046875,-0.07452770997881888,0.2965811461299658,-0.23667817383110523
1733901977091951900,6.291951904296875,-0.006696867290139198,0.21868746684938667,-0.24805501563102006
1733901977101977900,6.301977783203125,0.03920271409749985,0.15530512800216673,-0.1940031074479222
1733901977112004900,6.3120048828125,0.07107844630777835,0.10460749868303537,-0.12581921353787184
1733901977122031900,6.322031982421875,0.07655132476091385,0.04222118513584137,-0.056338265554606914
1733901977132059000,6.332058837890625,0.10339607706665992,-0.02459901920557022,0.01476034675836563
1733901977142084900,6.3420849609375,0.10413549725711345,-0.08012509159445762,0.04519932416379451
1733901977152111900,6.35211181640625,0.11084990020394325,-0.12402823846787213,0.034333354495465755
1733901977162139000,6.362138916015625,0.12098317168354987,-0.18633008860200642,0.03555938915908336
1733901977172166000,6.372165771484375,0.06806640501022339,-0.23575901315957307,0.06455079810470342
1733901977182191900,6.38219189453125,0.015780921977758405,-0.2153533539906144,0.10705869122743605
1733901977192219000,6.392218994140625,-0.0014285714983940123,-0.16610913835018873,0.13723638734817503
1733901977202246000,6.402245849609375,-0.019233108258247374,-0.11808160502314567,0.1590676954060793
1733901977212273000,6.41227294921875,-0.04011865989863872,-0.08876461738497018,0.14513795425295828
1733901977222299000,6.422298828125,-0.04680734388232231,-0.07794365590214729,0.09307780440896748
1733901977232326000,6.432325927734375,-0.039486791735887525,-0.08356792552471161,0.03537906415611505
1733901977242353000,6.442352783203125,0.013221300622820854,-0.10203297201991081,-0.014615385329723358
1733901977252380000,6.4523798828125,0.06026069969534874,-0.11245821218341588,-0.026627017901837823
1733901977262406000,6.462406005859375,0.06724865888655185,-0.11166180110871791,-0.0336734292820096
1733901977272433000,6.472432861328125,0.039545243924856185,-0.13930530257672072,-0.005368541295826435
1733901977282459600,6.482459716796875,-0.01421791044473648,-0.15009323857277632,0.019409633868932723
1733901977292487000,6.49248681640625,-0.0163999306589365,-0.15963935781419275,0.028124562983214852
1733901977302513000,6.502512939453125,-0.042757776230573655,-0.15373744029402733,0.058495151327550406
1733901977312540000,6.512539794921875,-0.050289340779185294,-0.12143062319010496,0.09682166711241007
1733901977322566700,6.522566650390625,-0.05103694427609443,-0.06625964784920216,0.11271160242259502
1733901977332594000,6.532593994140625,-0.009507248535752296,-0.05075958863943815,0.11839344745129346
1733901977342620000,6.542619873046875,0.011816694521903991,-0.04019903165847063,0.08944295503795147
1733901977352647000,6.55264697265625,0.04476210179030895,-0.020777707351744175,0.07931874364763498
1733901977362673700,6.562673583984375,0.06909224092662335,-0.00898994666337967,0.06917144364267587
1733901977372699600,6.57269970703125,0.10198153409361839,0.011987667174637317,0.030637130326032637
1733901977382727000,6.582726806640625,0.09015314913392067,0.0007093173131346702,0.02507043610960245
1733901977392754000,6.59275390625,0.05802490346729755,-0.03912643399089574,0.03528700195848942
1733901977402780700,6.60278076171875,0.028128946897387503,-0.05235825600773096,0.05391074614673853
1733901977412806700,6.612806640625,0.008846154278516769,-0.059979544666409486,0.07203852351158857
1733901977422834000,6.622833984375,0.0029237784922122954,-0.06277677416950464,0.05224222841262817
1733901977432861000,6.63286083984375,-0.006933598655462264,-0.056037821303308005,0.03240677034705877
1733901977442887700,6.6428876953125,-0.02532616443634033,-0.05970452711731195,0.04365852446258068
1733901977452913700,6.65291357421875,-0.04114683390259743,-0.047587972865998744,0.04616115493327379
1733901977462941000,6.66294091796875,-0.030921207964420317,-0.01795505114644766,0.04031009081751108
1733901977472968000,6.672968017578125,-0.019027356553077697,-0.026825755344331265,0.01664572211354971
1733901977482994700,6.68299462890625,-0.027332243561744688,-0.06261223125755787,-0.011679624138772486
1733901977493020700,6.693020751953125,-0.07533668827414512,-0.0808519445642829,-0.022588848426938056
1733901977503048000,6.7030478515625,-0.12816343857645987,-0.07762830634266138,-0.02233107427358627
1733901977513075000,6.713074951171875,-0.1464659879863262,-0.03231500041037798,-0.03044102323204279
1733901977523101700,6.723101806640625,-0.15536533375680445,-0.009769114342331886,-0.01811784049272537
1733901977533127700,6.733127685546875,-0.15433891331851482,0.05951894141733646,0.016181903994083403
1733901977543155000,6.743155029296875,-0.1286111823439598,0.09385931017547845,0.01688829869776964
1733901977553182000,6.753181884765625,-0.04384790955483913,0.1317880588144064,-0.030337855118513106
1733901977563208700,6.763208740234375,0.040132103902101514,0.13763093962371348,-0.13718962559700013
1733901977573234700,6.773234619140625,0.11760463516116142,0.14003390911221503,-0.24369857398718595
1733901977583262000,6.783261962890625,0.0679307959318161,0.12354103947281837,-0.29731209075301884
1733901977593289000,6.7932890625,-0.04299567663967609,0.08265256424546241,-0.2607619369909167
1733901977603315000,6.80331494140625,-0.1667787081748247,-0.0030550036564469334,-0.21142799724042413
1733901977613341700,6.813341796875,-0.27695348559617994,-0.06614478929787874,-0.08391425474435091
1733901977623369500,6.823369384765625,-0.32788521593213077,-0.09760492644459008,0.05926701248288154
1733901977633396500,6.833396484375,-0.29529344440698624,-0.09566343698799609,0.14499913030415773
1733901977643422500,6.84342236328125,-0.16803835284709928,-0.06828823106735944,0.18548925386369228
1733901977653449200,6.85344921875,0.020634791749715803,-0.024199206233024597,0.16048311516195535
1733901977663476500,6.8634765625,0.16468670433163643,-0.010936989077925681,0.07539572498500346
1733901977673503500,6.87350341796875,0.18417057248055935,-0.006506313154101371,0.010035948584973812
1733901977683529500,6.883529541015625,0.07494330504238605,-0.018412147264182565,-0.048636020614206785
1733901977693556200,6.89355615234375,-0.061335635450482366,-0.025272388422489165,-0.06575169832706451
1733901977703583500,6.90358349609375,-0.2165665291726589,-0.03126724492311477,-0.047074178124964235
1733901977713610500,6.913610595703125,-0.3400339188873768,-0.028904022923111915,-0.01602817473709583
1733901977723636500,6.923636474609375,-0.3633563422858715,-0.04371609986871481,0.022333996883034706
1733901977733663200,6.933663330078125,-0.31983518046736714,-0.039862347050011154,-0.028356618173420427
1733901977743690500,6.9436904296875,-0.24905016414821146,-0.012548515927791595,-0.10743132393211126
1733901977753717500,6.953717529296875,-0.1510533157765865,-0.03529167813360691,-0.15519377658218145
1733901977763743500,6.963743408203125,-0.03261632144451141,-0.07303893272578715,-0.21353169152140616
1733901977773770200,6.973770263671875,0.1540297012388706,-0.11093144100755452,-0.2548676182553172
1733901977783797500,6.983797607421875,0.2780792747557163,-0.08583031749874354,-0.2849757562711835
1733901977793824500,6.993824462890625,0.27930326359272,0.006459551402926445,-0.2625713245004415
1733901977803850500,7.0038505859375,0.26708675609827043,0.14462854342609643,-0.22898031280487774
1733901977813877200,7.013877197265625,0.22674656240344046,0.2793962025731802,-0.1871522186398506
1733901977823904500,7.023904541015625,0.15314531961977482,0.3999836529374122,-0.17835691776573656
1733901977833931500,7.033931640625,0.064279287686944,0.5376224836066364,-0.164698687030375
1733901977843957500,7.04395751953125,-0.036568858462572094,0.6748828363522886,-0.130285545296967
1733901977853984300,7.053984375,-0.09786299285888671,0.7483034618720412,-0.12483341737091541
1733901977864011300,7.06401123046875,-0.1189209784567356,0.7797998393759131,-0.12570815437883137
1733901977874037500,7.07403759765625,-0.13068389696478844,0.7166925180777907,-0.12898702991902827
1733901977884064500,7.084064453125,-0.1350292326927185,0.6031582010954618,-0.09419687156677245
1733901977894091300,7.09409130859375,-0.12315233241617679,0.4542702466592192,-0.1315107031777501
1733901977904118300,7.1041181640625,-0.13597089745700358,0.2585676418170333,-0.18651129038780925
1733901977914144300,7.114144287109375,-0.13587094421386717,0.05186024335771799,-0.23431349052637815
1733901977924171500,7.124171630859375,-0.12185761643052101,-0.09334463865160941,-0.23858546875715253
1733901977934198300,7.1341982421875,-0.09895371070504189,-0.15023323156535626,-0.2091986307531595
1733901977944225300,7.144225341796875,-0.14402327100932596,-0.1508653919890523,-0.1701777029633522
1733901977954251300,7.154251220703125,-0.2594868024885654,-0.12503800003230572,-0.0528621138766408
1733901977964278500,7.164278564453125,-0.39306875898241994,-0.052370238706469535,0.03786883514523506
1733901977974305300,7.17430517578125,-0.4823422026723623,-0.012183482007682322,0.1204068331003189
1733901977984332300,7.184332275390625,-0.4945926124364137,-0.0005246083959937096,0.19111586157381533
1733901977994358300,7.194358154296875,-0.38909810178577897,-0.06770341691672802,0.17740970004349946
1733901978004385500,7.204385498046875,-0.21496026301980017,-0.1411962308898568,0.08010521785020827
1733901978014412300,7.214412353515625,-0.02350362518429756,-0.23704233096837996,-0.07414309457540512
1733901978024439300,7.224439208984375,0.10679857898652553,-0.29044249724447724,-0.2360088962674141
1733901978034465300,7.23446533203125,0.14089490985572337,-0.3012555676817894,-0.3225686970844865
1733901978044492500,7.244492431640625,0.10720248361229896,-0.246473591658473,-0.36307372595220805
1733901978054519300,7.254519287109375,0.03911854294538498,-0.19015081593394279,-0.32281390401721
1733901978064546300,7.26454638671875,-0.010886720195412635,-0.15051789372563362,-0.2554623692780733
1733901978074572300,7.274572265625,0.0559270544052124,-0.09945113883316516,-0.21475363453179597
1733901978084599600,7.284599609375,0.23256255520582197,-0.07315788293033838,-0.19729922638386488
1733901978094626300,7.294626220703125,0.3901385507494211,-0.024810616129636764,-0.11451572923511266
1733901978104653300,7.3046533203125,0.3850795137941837,0.04370850108414888,0.010372340932488441
1733901978114679300,7.31467919921875,0.3069879738539457,0.11814619469195603,0.13612374993115664
1733901978124706600,7.32470654296875,0.2688029123663902,0.16514000105708837,0.22186901949495075
1733901978134733300,7.3347333984375,0.29631226606070993,0.20280980649888514,0.3154118110671639
1733901978144759300,7.34475927734375,0.3125912006884813,0.22282880443781614,0.36637305975854395
1733901978154786300,7.354786376953125,0.3140215257525444,0.20741934612095356,0.40498423770368097
1733901978164813300,7.364813232421875,0.3107166389882564,0.23000059576332568,0.3525280742794275
1733901978174840600,7.374840576171875,0.2717278599023819,0.2713917598158121,0.21945026791542768
1733901978184866300,7.3848662109375,0.20939210749864576,0.2989303396046161,0.07360007373988628
1733901978194893300,7.394893310546875,0.1736497629880905,0.32836832327395676,-0.055954526934027665
1733901978204920300,7.40492041015625,0.16765256839990614,0.31081191605627534,-0.14925649548768996
1733901978214947600,7.414947509765625,0.12433598924279213,0.2648211492538452,-0.21006372314989566
1733901978224973600,7.4249736328125,0.08130114963650703,0.197733526147902,-0.2287558563992381
1733901978235000300,7.435000244140625,0.01872574325799942,0.14651976400017738,-0.2626718622654676
1733901978245027300,7.44502734375,-0.06485621079206466,0.17426175740659236,-0.32644553851783276
1733901978255054600,7.4550546875,-0.19134031797945497,0.21967180171161887,-0.35019933907091616
1733901978265080600,7.46508056640625,-0.296733706343174,0.26626930223554374,-0.3424541317716241
1733901978275107300,7.475107421875,-0.33656185886263845,0.3077648034453392,-0.33292116427272556
1733901978285134300,7.48513427734375,-0.3202151196956634,0.3463619528651237,-0.29421675508618356
1733901978295161600,7.49516162109375,-0.31567572270035743,0.34083705196380615,-0.1936620389252901
1733901978305187600,7.5051875,-0.35285014584064484,0.29654519803375,-0.04120528609156608
1733901978315214300,7.51521435546875,-0.3733329618990421,0.1892766634479165,0.16587591411620378
1733901978325241300,7.525241455078125,-0.33696517896652217,0.03514934705346823,0.36701398801058527
1733901978335268600,7.5352685546875,-0.32106033834815023,-0.12624503773450851,0.5217027376800776
1733901978345294600,7.545294677734375,-0.323431159132719,-0.2639908359095454,0.6302575126841664
1733901978355321300,7.5553212890625,-0.30662849289178845,-0.3652019701525569,0.6986623558685183
1733901978365348400,7.565348388671875,-0.2459112816005945,-0.4281777740254998,0.6861503725588322
1733901978375374300,7.575374267578125,-0.14883096355199812,-0.47276437311843034,0.6494187247499823
1733901978385401600,7.585401611328125,-0.04431260445713996,-0.5100600845508277,0.5951786005184054
1733901978395428400,7.595428466796875,0.06584405278563499,-0.5391286503858864,0.5482470457345247
1733901978405455400,7.605455322265625,0.1508276903271675,-0.5279468927666544,0.5164607453733683
1733901978415481300,7.6154814453125,0.20473931325674055,-0.5130506446689367,0.4959811441853642
1733901978425508600,7.625508544921875,0.2512631640225649,-0.48779798386022444,0.48621729054003954
1733901978435535400,7.635535400390625,0.25558044269978997,-0.48161812618151306,0.4545481868177652
1733901978445562400,7.645562255859375,0.20091770914196966,-0.4932759768798947,0.4531047100111842
1733901978455588400,7.65558837890625,0.11515315035581589,-0.5329083145663142,0.4517322526142001
1733901978465615600,7.66561572265625,0.04044423859119415,-0.6128178637139499,0.40437458137273785
1733901978475642400,7.675642333984375,-0.017078560572862625,-0.6722830291174352,0.3658049044817686
1733901978485669400,7.68566943359375,-0.0582885228395462,-0.7308426239833236,0.33434009115993973
1733901978495695400,7.6956953125,-0.03762918117046356,-0.7694776211954653,0.29407997696399685
1733901978505722400,7.705722412109375,0.03464402787983417,-0.7521291576400398,0.23723113153874872
1733901978515749400,7.715749267578125,0.1308726975351572,-0.6869429842412471,0.21273907983899115
1733901978525776400,7.7257763671875,0.21924305490553378,-0.6060165131360292,0.17026304315924642
1733901978535802400,7.73580224609375,0.26010055047273634,-0.45914662052392957,0.11418547436743974
1733901978545829400,7.745829345703125,0.2545902626186609,-0.3205504891298711,0.05313479333817959
1733901978555856400,7.7558564453125,0.19953589939475058,-0.22727029401659965,-0.003582242400944233
1733901978565883400,7.76588330078125,0.09067512718141078,-0.1151033198647201,-0.02496025373339653
1733901978575909400,7.775909423828125,-0.04779577039778232,0.0005794073231518268,0.003230360223352909
1733901978585936400,7.785936279296875,-0.18771686678528784,0.0643048605196178,0.04321925626248121
1733901978595963400,7.79596337890625,-0.2929839984208345,0.1173398467451334,0.08102467078268527
1733901978605990400,7.805990478515625,-0.37023265779614445,0.17578809019103644,0.08200082233846187
1733901978616016400,7.816016357421875,-0.3782745099544525,0.23793138876259326,0.05299333904087543
1733901978626043100,7.826043212890625,-0.3321685923397541,0.28074557135552164,-0.0013233575582504273
1733901978636070000,7.83606982421875,-0.24231238032579422,0.2759836176507175,-0.12484393876492976
1733901978646096000,7.846095947265625,-0.2015612677425146,0.2568086693204939,-0.26315818447768685
1733901978656123000,7.856122802734375,-0.2815402288645506,0.1951519852221012,-0.31364275556802745
1733901978666150100,7.866150146484375,-0.37752281480431554,0.12966390626728533,-0.31630992895066734
1733901978676177200,7.87617724609375,-0.40019641890525814,0.04936491941064596,-0.279355578301847
1733901978686203000,7.886202880859375,-0.3671335227370262,-0.01641395918428898,-0.21989830394387244
1733901978696230000,7.89622998046875,-0.30897242566943167,-0.04576353391781449,-0.17975217151641845
1733901978706257000,7.9062568359375,-0.24994915881454943,-0.06096943248659372,-0.18220424084365366
1733901978716284200,7.9162841796875,-0.1843336540877819,-0.06510258676856756,-0.2136655470341444
1733901978726310000,7.926309814453125,-0.11655424932539463,-0.02192702351734042,-0.23851737195700407
1733901978736337000,7.9363369140625,-0.04206336422562599,0.04559256126508116,-0.27164982623010875
1733901978746364000,7.946364013671875,-0.01808043109178543,0.11562588243409991,-0.28980624516755343
1733901978756391200,7.95639111328125,-0.060758712345361704,0.17827376952692867,-0.30376404337137936
1733901978766417200,7.966417236328125,-0.12334054846465586,0.19087649985998867,-0.3016334610834718
1733901978776444000,7.97644384765625,-0.12798691296577452,0.20754501832723615,-0.308473828497529
1733901978786471000,7.986470947265625,-0.12063479663729668,0.19742007628455757,-0.29487258864641186
1733901978796498200,7.996498291015625,-0.08872808476686476,0.16329013540670276,-0.27309476434141394
1733901978806524200,8.006524169921875,-0.07284896311163902,0.12089388596490025,-0.24512977583408355
1733901978816551000,8.016551025390624,-0.022821488139033317,0.03968216817751526,-0.21648440384715795
1733901978826578000,8.026577880859374,0.0014297405421733855,0.07580868970006704,-0.15362871922254562
1733901978836605200,8.036605224609374,0.030538346126675605,0.12909648164287207,-0.07242138534933328
1733901978846631200,8.046631103515624,0.08782207583785057,0.11815306282415985,-0.02989946370124817
1733901978856658000,8.056657958984376,0.12678045978546143,0.0759920834429562,0.02298778461664915
1733901978866685000,8.066684814453126,0.15089081869125365,0.04425210644155741,0.06079962887763977
1733901978876712200,8.076712158203126,0.15350129345059393,0.028643326160311698,0.11459580873399972
1733901978886738200,8.08673828125,0.14604513222575186,0.020243162083625792,0.13589169474095106
1733901978896765000,8.096764892578125,0.12139701318144798,0.02889481670334935,0.1408148303568363
1733901978906792000,8.1067919921875,0.08022855196893215,0.062477060570567844,0.10193711043000221
1733901978916818000,8.11681787109375,0.02380991465449333,0.1045630750194192,0.07110270396620035
1733901978926845200,8.12684521484375,-0.017851298511028287,0.09892667656764388,0.027949206416308877
1733901978936872000,8.136871826171875,-0.05565817433595657,0.09954510072693228,-0.043108489364385605
1733901978946899000,8.14689892578125,-0.09518588260412215,0.09081336660832166,-0.07309270873963833
1733901978956925000,8.156925048828125,-0.09019114305675029,0.07846475716680287,-0.08249298976957797
1733901978966952200,8.1669521484375,-0.017249240964651108,0.07369783502593637,-0.07839987523704767
1733901978976979000,8.17697900390625,-0.033438159221410746,0.06939663070067763,-0.08195289154350757
1733901978987006000,8.187005859375,-0.045237318086624144,0.0527777965940535,-0.03912088103294372
1733901978997032000,8.197031982421874,-0.003716390174627304,0.03930281347110867,0.034814708271622655
1733901979007059200,8.20705908203125,0.02322831537425518,-0.008541618373990058,0.10822276657074689
1733901979017086000,8.2170859375,0.06317512583732604,-0.08896905391588807,0.15534487549066542
1733901979027113000,8.227113037109374,0.07226093409061432,-0.1913992085598409,0.18450667256712913
1733901979037139000,8.237138916015626,0.03879004164338112,-0.2292594220072031,0.24108926827162502
1733901979047166000,8.247166015625,0.013111995029449462,-0.22812311145365236,0.26619652926027776
1733901979057193000,8.25719287109375,0.002348608952760696,-0.2335449903719127,0.27357202646434303
1733901979067220000,8.267219970703126,-0.028883564656972883,-0.2211022729061544,0.24682401253134012
1733901979077246000,8.277245849609375,-0.07463467748463154,-0.2614244925528765,0.15525339781492947
1733901979087273000,8.28727294921875,-0.12514029136300087,-0.28952509013861416,0.03455927220582962
1733901979097300000,8.297300048828125,-0.13463994111418723,-0.32135625255480404,-0.037569559937715526
1733901979107327000,8.307326904296875,-0.10059504817128181,-0.33338556691408155,-0.11741408102512359
1733901979117353000,8.31735302734375,-0.035574002206325527,-0.32825814089775085,-0.16576427043527364
1733901979127380000,8.3273798828125,0.043131285718083376,-0.3386481636174023,-0.19058219308853147
1733901979137407000,8.337406982421875,0.10120879615545272,-0.3010584376744926,-0.20098346785455942
1733901979147433000,8.347432861328125,0.184443544203043,-0.255311854891479,-0.19936258865445852
1733901979157460000,8.3574599609375,0.30703532012701035,-0.1988021782927215,-0.1842959524258971
1733901979167487000,8.367487060546875,0.4210691110640764,-0.14732713486030696,-0.1509127382621169
1733901979177514000,8.377513916015625,0.4808347207188606,-0.1225387305624783,-0.13482231194376945
1733901979187540000,8.3875400390625,0.4519745369374752,-0.12049831077605486,-0.15335399393439292
1733901979197567000,8.39756689453125,0.3941296662122011,-0.15578721243068575,-0.17499416333436965
1733901979207594000,8.407593994140624,0.2772515917599201,-0.1866328709408641,-0.18567425504177806
1733901979217621000,8.41762109375,0.11995324411392211,-0.15332111457809805,-0.18416472726166247
1733901979227647000,8.42764697265625,0.038892917495965955,-0.13863237175121904,-0.20142653544694183
1733901979237674000,8.437674072265626,0.030151392635703086,-0.1373858788214624,-0.23137363768219946
1733901979247701000,8.447700927734376,0.03156710465252399,-0.15931860142722726,-0.2744090618103742
1733901979257727700,8.457727783203126,0.04732289218902588,-0.14679025150462985,-0.3024064912825823
1733901979267754000,8.46775390625,0.011958733341097831,-0.13887421768307684,-0.30295301924943924
1733901979277781000,8.477781005859375,-0.0022837270230054853,-0.09463175585269927,-0.26815643115639687
1733901979287808000,8.48780810546875,0.012497662523388861,-0.0874327842593193,-0.2518614221766591
1733901979297834800,8.497834716796875,-0.01855447834432125,0.06981061832904815,-0.19064327562600372
1733901979307861000,8.507861083984375,-0.0418014984190464,0.19592998385727403,-0.1329836983397603
1733901979317888000,8.517887939453125,-0.0808534058690071,0.2833668597698212,-0.12027560793608426
1733901979327915000,8.5279150390625,-0.07220715807676314,0.3527398173339665,-0.12232231133282184
1733901979337941800,8.537941650390625,-0.04744505726397037,0.3578057224214077,-0.10836159051954745
1733901979347967700,8.5479677734375,-0.026222821015119552,0.37255437874197955,-0.09207768745571375
1733901979357995000,8.5579951171875,0.011580547678470611,0.3628742578573525,-0.05700140563845634
1733901979368022000,8.56802197265625,0.04411035988330841,0.30111762051582336,-0.028480829074978828
1733901979378049000,8.578049072265625,0.05221300231814384,0.21845044322311877,-0.03137187434136867
1733901979388074800,8.58807470703125,0.03304652955532074,0.12231631998345255,-0.08402326807677746
1733901979398102000,8.59810205078125,-0.025025720185041424,0.06416866691932081,-0.12516659484803677
1733901979408129000,8.60812890625,-0.12977671899199486,0.01936053403019905,-0.15732640469670295
1733901979418155000,8.618155029296876,-0.2266401794195175,-0.03828267664313316,-0.1776806259393692
1733901979428181800,8.628181640625,-0.2636211258143186,-0.11972732640355825,-0.20590601894855498
1733901979438209000,8.638208984375,-0.2550783383965492,-0.15345730817839504,-0.16161650310605763
1733901979448236000,8.648236083984376,-0.31925241214334965,-0.08654124224707484,-0.0948418914720416
1733901979458262000,8.658261962890625,-0.3770896840840578,-0.028702655132114886,0.0018193243816494941
1733901979468289000,8.6682890625,-0.38971477237939833,0.01117021331191063,0.06662000559419393
1733901979478316000,8.67831591796875,-0.38397885907590384,0.03677197981923818,0.1268970719024539
1733901979488343000,8.688343017578125,-0.4136673103749752,0.02438055414929986,0.15786504161804912
1733901979498369000,8.698369140625,-0.4832996495276689,0.04051423508748412,0.17815233510434628
1733901979508396000,8.70839599609375,-0.49663434739708895,0.013438888896256685,0.18659341571331023
1733901979518423000,8.718423095703125,-0.4493593860030174,-0.03575242751315236,0.20615648657828567
1733901979528450000,8.728449951171875,-0.3842383867949247,-0.05639496417790651,0.157054017496109
1733901979538476000,8.73847607421875,-0.3620972821354866,-0.09649038933143018,0.13721242195069788
1733901979548503000,8.7485029296875,-0.3329074280083179,-0.08470730481818319,0.12577888152748345
1733901979558530000,8.758530029296875,-0.28064123419821263,-0.06179945356994867,0.12947072178274394
1733901979568557000,8.76855712890625,-0.28209084848463534,-0.07485197349712253,0.12648498397022484
1733901979578583000,8.7785830078125,-0.29826398465037346,-0.08553352650925516,0.1650207585915923
1733901979588610000,8.788610107421874,-0.2633095756471157,-0.08110387349873781,0.2016997994303703
1733901979598636800,8.79863671875,-0.16942483876943587,-0.04791603577658534,0.24017419925332067
1733901979608664000,8.8086640625,-0.1028349360525608,-0.03706351011171937,0.23704233096837996
1733901979618690000,8.81868994140625,-0.0020154314756393433,-0.10207593437880277,0.20984160483181474
1733901979628716800,8.828716796875,0.07690788311362266,-0.14009966782480476,0.13512757850065826
1733901979638743600,8.83874365234375,0.06529518673121928,-0.08555427703633904,0.11200476932749151
1733901979648770600,8.8487705078125,0.07203413959741592,-0.06846665637418628,0.06396437651887536
1733901979658796500,8.858796630859375,0.07811901246905327,-0.08317512681484222,-0.002005932994931936
1733901979668823800,8.86882373046875,0.11418225949704647,-0.11391133360117674,-0.046507484152913094
1733901979678850600,8.8788505859375,0.16250117698609828,-0.14143018577620387,-0.11198562623560428
1733901979688876500,8.88887646484375,0.1788964314699173,-0.1279354750394821,-0.14106237537711858
1733901979698903600,8.898903564453125,0.19270400754809378,-0.13344634741544723,-0.1281743983618915
1733901979708930600,8.9089306640625,0.2235913132429123,-0.12063099724501371,-0.11167568350359797
1733901979718957600,8.91895751953125,0.2443389177173376,-0.08677899652570485,-0.09029124243035912
1733901979728983600,8.928983642578125,0.22789807052612304,-0.0718071989737451,-0.06339315250217914
1733901979739010600,8.939010498046875,0.23153028954863547,-0.12418781294375657,-0.04795446809083223
1733901979749037600,8.94903759765625,0.2555845343530178,-0.2727063495457172,-0.09161971455514431
1733901979759064600,8.959064697265624,0.1682908663034439,-0.2310837148249149,-0.028414193579554554
1733901979769090600,8.969090576171874,0.12684358814954758,-0.11838365670964121,0.06696165863871574
1733901979779117600,8.97911767578125,0.07675766098797321,-0.07101034950762987,0.11771598658114671
1733901979789144600,8.98914453125,0.04910802204012871,-0.03312412483617663,0.14278715334311126
1733901979799171600,8.999171630859376,0.019946224963665007,0.010121727172285318,0.12171163208857178
1733901979809197600,9.009197509765626,-0.010818331134319304,-0.011903934413939714,0.0949586497195065
1733901979819224600,9.019224609375,-0.0530208115696907,-0.06682809538692236,0.08486249537989497
1733901979829251600,9.02925146484375,-0.10409341168105601,-0.1053678155310452,0.08793591147586703
1733901979839278600,9.039278564453125,-0.18072013976573942,-0.16151947247236967,0.08948153348267078
1733901979849304600,9.0493046875,-0.2520762339711189,-0.19022431956157088,0.13358853236511348
1733901979859331600,9.05933154296875,-0.31578795090317724,-0.2300041028946638,0.17119404039904473
1733901979869358600,9.069358642578125,-0.3709972124278545,-0.22417057443559169,0.24142712192386387
1733901979879385600,9.079385498046875,-0.36025603818297386,-0.2155715267859399,0.2929455661065876
1733901979889411600,9.08941162109375,-0.3353051367998123,-0.1892882077552378,0.3007688070781529
1733901979899438600,9.0994384765625,-0.24232933146059513,-0.13656199521794915,0.2682306654363871
1733901979909465600,9.109465576171875,-0.1301098964691162,-0.07768895048871637,0.14980726123824714
1733901979919492600,9.11949267578125,-0.04265606942176819,-0.06531988278105855,-0.015070581751316784
1733901979929518600,9.1295185546875,-0.035602059257030486,-0.05737608416974544,-0.21153744896426796
1733901979939545600,9.139545654296874,-0.09958733243346214,-0.07504121245890856,-0.35565073634460564
1733901979949572600,9.149572509765624,-0.15163666862249373,-0.11061784501373767,-0.4313027741782367
1733901979959598600,9.1595986328125,-0.15034721333384513,-0.18617972034588456,-0.444020655323565
1733901979969625600,9.16962548828125,-0.10195815321803092,-0.24896555460467934,-0.3881389013648033
1733901979979652600,9.179652587890626,-0.009025017976760863,-0.27477146538197994,-0.29203254291489716
1733901979989679600,9.1896796875,0.13449030351042746,-0.33050723499879237,-0.19638678771406412
1733901979999705600,9.19970556640625,0.3039607349872589,-0.3044372664578259,-0.13866320528089998
1733901980009732600,9.209732666015626,0.43287119253873824,-0.2925288019992411,-0.1173946456722915
1733901980019759600,9.219759521484375,0.5109983883142472,-0.3303973448835313,-0.17040362067371606
1733901980029786600,9.22978662109375,0.5174959336400031,-0.1878656276062131,-0.19912205789685247
1733901980039812600,9.2398125,0.42888709133863445,-0.08088219357207417,-0.2269067214012146
1733901980049839600,9.249839599609375,0.2953764465153217,-0.022155863837152717,-0.22951588098630307
1733901980059866600,9.25986669921875,0.18426234241724013,0.023898177459836006,-0.24002923782467842
1733901980069893600,9.2698935546875,0.11661503960192203,0.047845893149822946,-0.24711013599634168
1733901980079919600,9.279919677734375,0.06243278303742408,0.059817339842021464,-0.22690204522609708
1733901980089946600,9.289946533203125,0.08751227923631667,0.029066520008444785,-0.1650280651152134
1733901980099973600,9.2999736328125,0.15148469293117522,0.03935819692015648,-0.11370602028742433
1733901980110000600,9.310000732421875,0.23762568381428717,0.0486070867806673,-0.09191343680471181
1733901980120026600,9.320026611328124,0.3784662331342697,0.057808484237641095,-0.07628083725646138
1733901980130053600,9.3300537109375,0.5089700973570347,0.054724839008599514,-0.11014774328395724
1733901980140080600,9.34008056640625,0.6000567279487848,0.09113514590859413,-0.1727012300916016
1733901980150107600,9.350107666015624,0.6520107870697974,0.12791209416389465,-0.2455642217285931
1733901980160133600,9.360133544921876,0.548990557578206,0.1942750562570989,-0.3327000688679516
1733901980170160600,9.37016064453125,0.35589433584213254,0.25494915905892845,-0.4458284353978932
1733901980180187600,9.380187744140626,0.09320259983241558,0.3408708081029355,-0.4897967564620077
1733901980190214700,9.390214599609376,-0.20580781927108763,0.42655981743484733,-0.5177879023239016
1733901980200240600,9.40024072265625,-0.4642360526174307,0.4643317680768668,-0.519878883253783
1733901980210267600,9.410267578125,-0.6105635089159012,0.4788830021291971,-0.523994063487649
1733901980220294700,9.420294677734375,-0.6785586022555827,0.4855138184458017,-0.47433439891412854
1733901980230321700,9.43032177734375,-0.6599480098098516,0.4707854742608964,-0.3722606564924121
1733901980240347600,9.44034765625,-0.5669657747298479,0.48661914933919903,-0.2896750200033188
1733901980250374700,9.450374755859375,-0.4236906917393207,0.45352162024900317,-0.18640169253349304
1733901980260401400,9.4604013671875,-0.30262101081609727,0.4231603842549026,-0.12214841607064009
1733901980270428700,9.4704287109375,-0.2033908212572336,0.3408452352702617,-0.0636366058692336
1733901980280454700,9.48045458984375,-0.135199913084507,0.2583287184946239,-0.010334347009658813
1733901980290481700,9.490481689453125,-0.02629530172944069,0.1864149904064834,-0.00733268097564578
1733901980300508400,9.50050830078125,-0.021496961537003517,0.09785875507518649,-0.020232640689611434
1733901980310534700,9.51053466796875,-0.03450315810441971,0.038717707059532404,-0.06176598969176411
1733901980320561700,9.520561767578124,-0.049554596763849254,0.02320990293473005,-0.11662921425774693
1733901980330588700,9.530588623046874,-0.06088380002975464,0.0021028174981474876,-0.1852490153670311
1733901980340615400,9.540615478515624,-0.0919768574297428,-0.007224398295581341,-0.24713264008909464
1733901980350641400,9.550641357421876,-0.13973697199225424,-0.013932225371152162,-0.29748905475512144
1733901980360668700,9.560668701171876,-0.19618308183550834,-0.027650954122096297,-0.30441856175735593
1733901980370695700,9.57069580078125,-0.20285013850927353,-0.04831497196629643,-0.27188348885551095
1733901980380722400,9.580722412109376,-0.21437398756444453,-0.053069326886534686,-0.19426248903647064
1733901980390748400,9.59074853515625,-0.19459201325178146,-0.056699646212905644,-0.0764578743238002
1733901980400775700,9.600775634765625,-0.12485387563705444,-0.10722264961749314,0.015486980532482266
1733901980410802700,9.610802734375,-0.08220072882473468,-0.14969664047062395,0.05960040915571153
1733901980420829400,9.620829345703125,-0.06985036581754685,-0.15994170176163314,0.07195004151053726
1733901980430855400,9.63085546875,-0.037431612771749494,-0.20390067047551272,0.061094885497167704
1733901980440882700,9.640882568359375,-0.044559272694587704,-0.23909327214881776,0.0762303491782397
1733901980450909700,9.65090966796875,-0.03554126898050308,-0.2793811511345208,0.06675831808634101
1733901980460936400,9.6609365234375,0.03787994106113911,-0.2673033214583993,0.05088109612725675
1733901980470962400,9.67096240234375,0.11067454363703727,-0.23107377795279024,0.052648324995487925
1733901980480989700,9.68098974609375,0.18006489072740076,-0.20335268120393155,0.04912606915347278
1733901980491016700,9.6910166015625,0.24391630839109418,-0.139947253742069,0.05304346179291606
1733901980501043500,9.70104345703125,0.24999065986871719,-0.05417231969237327,0.08611775613799691
1733901980511069400,9.7110693359375,0.20307108778357505,0.03554156124144792,0.13053323644772172
1733901980521096700,9.7210966796875,0.12358721670210361,0.1081155068039894,0.17662030323147773
1733901980531123700,9.731123779296874,0.023648002091050148,0.125149351452291,0.2094180456575006
1733901980541150500,9.741150390625,0.013892916274070738,0.12540741786658763,0.22335860046558081
1733901980551176400,9.751176513671876,0.012536240968108176,0.08148162076994776,0.21078619220554828
1733901980561203700,9.76120361328125,0.00447509958744049,0.006326572673022747,0.18181882172264158
1733901980571230700,9.771230712890626,-0.03971826240420341,-0.08630436475127935,0.17377251258492468
1733901980581257500,9.781257568359376,-0.10628010807037352,-0.16994637842550872,0.17481464204899966
1733901980591283500,9.791283447265625,-0.1685036322712898,-0.2400513035260141,0.177889884775877
1733901980601310500,9.801310546875,-0.13803367520570753,-0.280074394095689,0.17204356990046799
1733901980611337700,9.811337646484375,-0.0950315688252449,-0.30938422134071586,0.17044190685749053
1733901980621364500,9.821364501953125,-0.08564706988632678,-0.28048955076783894,0.19716493247970937
1733901980631391000,9.831390869140625,-0.11399579701423644,-0.23278861904665826,0.2144298094049096
1733901980641418000,9.84141796875,-0.1800017623633146,-0.18826865544915197,0.25317016668766734
1733901980651445000,9.851445068359375,-0.2410188333839178,-0.2130519451804459,0.25800598934628066
1733901980661471000,9.861470947265625,-0.2154255424439907,-0.31332842892184853,0.2391778816923499
1733901980671498000,9.871498046875,-0.14508651632666586,-0.24584610740989446,0.2833766505114734
1733901980681525000,9.88152490234375,-0.04012275155186653,-0.17862345974743365,0.3103587654612958
1733901980691552000,9.891552001953125,0.012847791135311126,-0.13387304839491843,0.27830994170643386
1733901980701578000,9.901577880859374,0.015386954224109649,-0.1196959083519876,0.2114364728078246
1733901980711605000,9.91160498046875,0.04534896176755428,-0.10725625962615012,0.12763568837530911
1733901980721632000,9.921632080078124,0.03539864563941955,-0.10935308577492832,0.020127865140885114
1733901980731659000,9.931658935546874,-0.013740940582752227,-0.09043883420750498,-0.05481828944571316
1733901980741685000,9.94168505859375,-0.10432722043693066,-0.09483180846944451,-0.13726619796454906
1733901980751712000,9.9517119140625,-0.17577040840387342,-0.09629866615161299,-0.1900948479630053
1733901980761739000,9.961739013671876,-0.15865210034251212,-0.07593012412264942,-0.22964411047585306
1733901980771766000,9.97176611328125,-0.1237573125720024,-0.016401391963660715,-0.2448809887047857
1733901980781792000,9.9817919921875,-0.10352233379483222,0.015043109222501516,-0.26628983356691893
1733901980791819000,9.991819091796875,-0.0921340938180685,0.04297039606794715,-0.2583024880748242
1733901980801846000,10.001845947265625,-0.08482990828454494,0.06130450965985655,-0.23389913757182657
1733901980811873000,10.011873046875,-0.026990882778167722,0.07600114353224635,-0.21224888516925275
1733901980821899000,10.02189892578125,0.11958265723586081,0.08773805081620811,-0.15161365307308733
1733901980831925800,10.03192578125,0.2654746447265148,0.07813391777724027,-0.12637969696484505
1733901980841953000,10.041953125,0.3571685935616493,0.031189795772731302,-0.09552790097482503
1733901980851980000,10.05197998046875,0.39341362689733506,0.015178279909491539,-0.052304224265553055
1733901980862006000,10.062006103515625,0.39699440799355507,0.0043066111527383325,-0.04229991292785853
1733901980872032800,10.07203271484375,0.43889235252439973,-0.02217909858226776,-0.048923459253460165
1733901980882060000,10.08206005859375,0.42552024525403975,-0.04686579607129097,-0.05051292040199041
1733901980892087000,10.092087158203125,0.3978898955285549,-0.022232874596118925,-0.04027052599210292
1733901980902113000,10.102113037109374,0.3508569261968136,0.001301145726442337,-0.04859309478793293
1733901980912139800,10.112139892578124,0.2857172222882509,0.04294862262755632,-0.0789145832935348
1733901980922167000,10.1221669921875,0.2864157259464264,0.10413666630089283,-0.11947612812146544
1733901980932194000,10.132194091796874,0.27588556410372256,0.13752484890073538,-0.1535119609750807
1733901980942220000,10.142219970703126,0.20887071397304532,0.18430545090660452,-0.19545462143048642
1733901980952246800,10.152246826171876,0.12471943560242651,0.2202909565232694,-0.23908859597370027
1733901980962274000,10.162274169921876,0.022731471768021583,0.2368320492185652,-0.2515798652889207
1733901980972301000,10.172301025390626,-0.027500585865974425,0.22799466276839375,-0.25403098476808517
1733901980982327000,10.1823271484375,-0.041672319081425664,0.21717647776454685,-0.22906726043596862
1733901980992353800,10.192353759765625,-0.06226327168941497,0.1722717526331544,-0.19816344199776648
1733901981002381000,10.202381103515625,-0.055686231386661525,0.0827314747005701,-0.15528353722486643
1733901981012407000,10.212406982421875,-0.04776595978140831,-0.005042670342326164,-0.09981999041186645
1733901981022434000,10.22243408203125,-0.04523264191150665,-0.06215455061793327,-0.05146026598839089
1733901981032460800,10.232460693359375,-0.05525017805695533,-0.0790583391457796,-0.02599574339413084
1733901981042487800,10.24248779296875,-0.10908581314086914,-0.07341916421502828,-0.005229278955608606
1733901981052514000,10.25251416015625,-0.18636019147932528,-0.07959171537011861,0.018529453500919044
1733901981062541000,10.262541015625,-0.24319910003244877,-0.05346563272774219,0.03336034931142349
1733901981072568000,10.272568115234375,-0.2837958988368511,-0.1368289755910635,-0.0009116258190479129
1733901981082594800,10.2825947265625,-0.28006431109309193,-0.10814707098603248,-0.014296661069639957
1733901981092621000,10.29262109375,-0.32183132272064685,-0.014902677838504314,0.0038378428635187445
1733901981102648000,10.30264794921875,-0.3364940543234348,0.03963964421004057,0.010021177990816067
1733901981112675000,10.312675048828124,-0.33595044896602627,0.042264439755678174,0.037834252455621026
1733901981122701800,10.322701904296874,-0.340520241099596,0.040112522418797016,0.08319348445544018
1733901981132727800,10.332727783203126,-0.34312720872759817,0.04536445159763097,0.1273125482350122
1733901981142755000,10.342755126953126,-0.37781858288049697,-0.007196925766766071,0.14110274392012506
1733901981152782000,10.352781982421876,-0.41782559909820555,-0.07847790890932083,0.1740932689718902
1733901981162808800,10.362808837890626,-0.4289104722142219,-0.1349967917278409,0.13846506149345078
1733901981172834800,10.372834716796875,-0.4087210861444473,-0.1642301927357912,0.11206592493019997
1733901981182862000,10.382862060546875,-0.3401180900394916,-0.17173019310235976,0.08130815476602875
1733901981192889000,10.39288916015625,-0.23499182817935943,-0.16048866811990736,0.02395345131102949
1733901981202915800,10.402915771484375,-0.1766308246254921,-0.13252689448297023,-0.053354135177284476
1733901981212941800,10.41294189453125,-0.2140694516599178,-0.12784516640752552,-0.10389635473899543
1733901981222969000,10.422968994140625,-0.2985223433256149,-0.12417553798407316,-0.14822859547836706
1733901981232996000,10.43299609375,-0.3344026350021362,-0.10740472818613052,-0.19089412684822454
1733901981243022800,10.44302294921875,-0.2553758600383997,-0.067688511608541,-0.22886695209089666
1733901981253048800,10.453048828125,-0.20520634624660014,-0.023154373355209826,-0.25329781165532766
1733901981263076000,10.463076171875,-0.13570727808475494,-0.04825228199362754,-0.25599256716463714
1733901981273103000,10.47310302734375,-0.10302899731993674,-0.008325929796695709,-0.20739830333292483
1733901981283129900,10.4831298828125,-0.11167641415596008,0.09750760354995727,-0.15138112295884637
1733901981293155800,10.49315576171875,-0.10540449427962302,0.1629731784120202,-0.0912274638345465
1733901981303183000,10.50318310546875,-0.08933481848835945,0.21545301497280597,-0.015680822604149578
1733901981313210000,10.513210205078124,-0.03979892642498016,0.23986148004233837,0.017168503878638147
1733901981323236900,10.52323681640625,0.015196400088071823,0.24740824216008184,0.0030385639782994985
1733901981333262800,10.533262939453126,0.04528758696913719,0.24546938305199145,-0.0038243805937469002
1733901981343290000,10.5432900390625,0.028280922588706014,0.2047834446594119,-0.005571443456783891
1733901981353317000,10.553317138671876,0.013262801676988602,0.17984715632349252,0.00837623521182686
1733901981363344000,10.56334375,0.045026890206336975,0.1456079098522663,0.008298018876463174
1733901981373369900,10.573369873046875,0.04344868110418319,0.10482874021828174,-0.005232493826001882
1733901981383396900,10.58339697265625,0.047884033203124995,0.08608224643319845,-0.023039368673413992
1733901981393424100,10.593424072265625,-0.010485153657197951,0.06857260096669196,-0.04315795452930033
1733901981403450000,10.6034501953125,-0.10250175857543944,0.03280336844921112,-0.08379055529944598
1733901981413476900,10.613476806640625,-0.1130740059942007,-0.018519114769995213,-0.1307640495289117
1733901981423504000,10.62350390625,-0.095523736256361,-0.05014467161148786,-0.15866064897514878
1733901981433531100,10.63353125,-0.07815408378243446,-0.06873305222541093,-0.17645488353669642
1733901981443557000,10.64355712890625,-0.09525310262143612,-0.04939005385190248,-0.1902231505177915
1733901981453584000,10.653583984375,-0.14369301614165306,-0.021987083141505718,-0.1611004433427006
1733901981463611000,10.66361083984375,-0.15418869119286535,-0.0771349698677659,-0.17323182983696458
1733901981473638100,10.67363818359375,-0.2319429620027542,-0.018199673557281495,-0.1512280147563666
1733901981483664100,10.6836640625,-0.25705636047124863,0.04593494496196508,-0.111632721144706
1733901981493691000,10.69369091796875,-0.21354455100297925,0.08261983101963996,-0.08787322150319814
1733901981503718000,10.7037177734375,-0.18976444696485995,0.08887100036889314,-0.08969517623335123
1733901981513745200,10.7137451171875,-0.17059329802691936,0.08639233529567718,-0.09795366681702435
1733901981523771100,10.723771240234376,-0.1799684446156025,0.09097147977948188,-0.08143843921534717
1733901981533798000,10.7337978515625,-0.12072832013964652,0.044774961271882054,-0.041415275580435985
1733901981543825000,10.743824951171876,-0.12100889064669608,0.016046294915676117,-0.048432095539942384
1733901981553852200,10.75385205078125,-0.09101707248687743,-0.01388064131438732,-0.013912059365957975
1733901981563878100,10.763878173828125,-0.08790624698996544,-0.03750497026890516,-0.0021020137805491685
1733901981573905000,10.77390478515625,-0.12504442977309227,-0.039838966174423694,0.003977013872191309
1733901981583932000,10.783931884765625,-0.1622691217958927,-0.0483870142892003,-0.004567746306955814
1733901981593959200,10.793959228515625,-0.1651543218433857,-0.05643178905695676,-0.0021172844149172304
1733901981603985200,10.803985107421875,-0.15395020626187322,-0.05947159514427185,-0.006054843059554696
1733901981614012000,10.814011962890625,-0.09724223061203956,-0.052716860187053675,0.005427797202393413
1733901981624039000,10.824038818359375,-0.026903204494714734,-0.07573854707330464,0.005955474338307977
1733901981634065700,10.834065673828125,0.014061258578300475,-0.08582593358457088,0.019646438299492
1733901981644092000,10.844091796875,-0.006994388931989669,-0.09394055871814488,-0.00508760546259582
1733901981654118700,10.85411865234375,0.015533084696531295,-0.057251288746297355,-0.002748348860070109
1733901981664145700,10.864145751953124,0.056574704658985134,-0.06206541102975607,-0.011194763231277466
1733901981674172700,10.874172607421874,0.1264116264730692,-0.109712712867558,-0.04746069322451949
1733901981684198700,10.88419873046875,0.13086100709736345,-0.10983458568155764,-0.03628258886709809
1733901981694225700,10.8942255859375,0.1666734942346811,-0.06427256568521261,-0.024782559078931808
1733901981704252700,10.904252685546876,0.20994506520628928,-0.035335517275333406,-0.012599953854084014
1733901981714279700,10.91427978515625,0.17451485538482664,-0.0028609423890709877,-0.015179741214215755
1733901981724305700,10.9243056640625,0.1195616144478321,0.03529810787439346,-0.031030075166374443
1733901981734332700,10.934332763671875,0.024427169770002363,0.05052110370844602,-0.03549816049113869
1733901981744359700,10.944359619140625,-0.027936639195680617,0.07855185092836618,-0.05051365105435252
1733901981754386700,10.95438671875,-0.0026268413722515104,0.07285100893825291,-0.06707052584066987
1733901981764412700,10.96441259765625,0.03972176953554153,0.05897504379898309,-0.08026654589176177
1733901981774440000,10.97443994140625,0.031138650107383727,-0.01255523792952299,-0.06979907402172685
1733901981784466700,10.984466796875,-0.01015840592086315,-0.08287906647771597,-0.04652881920188665
1733901981794493700,10.99449365234375,-0.06198503926992416,-0.13887304863929748,0.009209580763429403
1733901981804519700,11.004519775390625,-0.05433364773392677,-0.1962611155077815,0.04311170423477888
1733901981814547000,11.014546875,-0.008531681501865387,-0.23900223286449906,0.02386836684346199
1733901981824573700,11.02457373046875,0.004490881678462028,-0.25044307981133457,0.017554507521539926
1733901981834599700,11.034599609375,-0.003065232789516449,-0.25188334174752236,-0.0005832067154347896
1733901981844626700,11.044626708984374,-0.02892681927680969,-0.23484891257733106,-0.009435498473793267
1733901981854654000,11.054654052734374,-0.10915654028952121,-0.1917071054652333,-0.033264410089701414
1733901981864680700,11.0646806640625,-0.18956687856614587,-0.1654062507778406,-0.04365940124541521
1733901981874706700,11.074706787109376,-0.24844635303616522,-0.1798565086737275,-0.07407645907998085
1733901981884733700,11.084733642578126,-0.2448141340136528,-0.18528584024608133,-0.11018515268489718
1733901981894761000,11.094760986328126,-0.26280747134387494,-0.21375351757854222,-0.15091244600117207
1733901981904787700,11.10478759765625,-0.31237668115496636,-0.23122692268788814,-0.17192366984784602
1733901981914813700,11.114813720703125,-0.32013094854354857,-0.25763065322786566,-0.19758184271752832
1733901981924840700,11.1248408203125,-0.3222305511713028,-0.26536680043786764,-0.21721754042729735
1733901981934867700,11.13486767578125,-0.25170389352738853,-0.21208295401781796,-0.21267215208262205
1733901981944894700,11.144894775390625,-0.10840659870505333,-0.14194032725542782,-0.1651684964992106
1733901981954920700,11.154920654296875,-0.029314941811561582,-0.10460983677059411,-0.10233005527034401
1733901981964947700,11.16494775390625,-0.0015793781459331512,-0.07793401129096746,-0.05605389565527439
1733901981974974700,11.174974609375,-0.028723990181088444,-0.04130319350808859,-0.027096973501145837
1733901981985001700,11.185001708984375,-0.016388824743032455,-0.010148176787793636,0.0492835247375071
1733901981995027700,11.19502783203125,0.0791197139441967,0.04894786304235458,0.09809490191861986
1733901982005054700,11.2050546875,0.21012509794831274,0.06615180356055497,0.0874003432944417
1733901982015081700,11.215081787109375,0.26712358097732064,0.0662140551418066,0.08154913304820656
1733901982025108700,11.225108642578125,0.29650223567485806,0.047907121817767614,0.013406740192323923
1733901982035134700,11.235134765625,0.24502923806905744,0.029891280394792556,-0.022253771253675222
1733901982045161700,11.24516162109375,0.27973347170352936,0.02648351777791977,-0.02406798106878996
1733901982055188700,11.255188720703124,0.25049685582518577,0.022358254541456696,-0.036024522452801466
1733901982065215700,11.2652158203125,0.1511988617271185,0.02424742928892374,-0.06472673919349908
1733901982075241700,11.27524169921875,0.08401917642354964,0.07313391753286123,-0.06799260912165045
1733901982085268700,11.285268798828126,0.06301029066443443,0.0690522011771798,-0.07009469596743584
1733901982095295700,11.295295654296876,-0.002248071187734604,0.034627953527867794,-0.090079791636765
1733901982105322800,11.30532275390625,-0.01735679299235344,0.015391922660171985,-0.09183335730582474
1733901982115348700,11.3153486328125,0.05174070863127708,-0.0269090497136116,-0.05824029978364706
1733901982125375700,11.325375732421875,0.039711248141527176,-0.023598317730426786,-0.014214695574343204
1733901982135402800,11.33540283203125,0.0008966565787792205,-0.011397007805109024,0.0289721197232604
1733901982145429500,11.345429443359375,-0.07694412347078323,-0.000793196204304695,0.028532851523160933
1733901982155455700,11.355455810546875,-0.1219838731586933,0.020797581095993518,0.025199615447223184
1733901982165482800,11.365482666015625,-0.145960961073637,0.02314502100497484,0.02089358881637454
1733901982175509800,11.375509765625,-0.2133773777425289,0.017372282822430134,0.025518326007574796
1733901982185536500,11.38553662109375,-0.3183691995680332,0.013050035709142684,0.013989362385869026
1733901982195562800,11.395562744140625,-0.4226934973955154,-0.002833177599310875,-0.007414952431619167
1733901982205589800,11.40558984375,-0.4487456380188465,-0.007931669782102108,-0.02970014173686504
1733901982215616800,11.41561669921875,-0.4199801467835903,0.0048655602097511285,-0.014386983401328324
1733901982225643500,11.4256435546875,-0.40474049207568163,-0.021742752991616723,-0.012481003649532795
1733901982235669500,11.43566943359375,-0.33558220017552376,-0.08238456095904112,-0.04793079495429992
1733901982245696800,11.44569677734375,-0.25878829883038995,-0.12486994998902082,-0.06069470719844103
1733901982255723800,11.455723876953124,-0.26123218485116956,-0.1434185831144452,-0.05897811253890395
1733901982265750500,11.46575048828125,-0.2515729606240988,-0.13400719616860152,-0.045409898174554104
1733901982275776500,11.475776611328126,-0.23627543824911115,-0.059170858632028096,-0.01941562521830201
1733901982285803800,11.4858037109375,-0.21178163298368452,-0.010209843847155571,-0.014054390446096658
1733901982295830800,11.495830810546876,-0.20429449209868908,0.04562748644798994,-0.033732758253812785
1733901982305857500,11.505857421875,-0.21194237650334835,0.11522183167785405,-0.06918561829850077
1733901982315883500,11.515883544921875,-0.23269991784989832,0.13921177907437085,-0.12876578838378192
1733901982325910800,11.525910888671875,-0.11403320641517639,0.15544219838529824,-0.18811448780074713
1733901982335937800,11.535937744140625,0.062360886844992636,0.16099515633732078,-0.21584464463889597
1733901982345963800,11.5459638671875,0.1476163270652294,0.17022271114885806,-0.23652254487797617
1733901982355990500,11.555990478515625,0.1752747338414192,0.17888094163984058,-0.22524492566883564
1733901982366017800,11.566017822265625,0.17598200532793998,0.18284750718325377,-0.19359511116892097
1733901982376044800,11.576044921875,0.07429273217916488,0.15823445945233106,-0.2065292654134333
1733901982386070800,11.58607080078125,0.08399871815741061,0.15623744041621684,-0.19011939788237214
1733901982396097500,11.59609765625,0.18764087893962858,0.15514000056833027,-0.18373729562982916
1733901982406124800,11.606124755859375,0.21566402737498283,0.11293079813122749,-0.156080496288836
1733901982416151800,11.61615185546875,0.223925659763813,0.08386632394939661,-0.11037044612392782
1733901982426177800,11.626177734375,0.1983762079656124,0.04746902266144752,-0.06407090563327074
1733901982436204500,11.63620458984375,0.1590624347090721,0.04260112436413765,0.002538724697381258
1733901982446231800,11.646231689453124,0.15391162781715392,0.04525602278709411,0.07392316821441054
1733901982456258800,11.6562587890625,0.08615501940846443,0.04544920727163553,0.08970949701964855
1733901982466284800,11.666284912109376,0.0372656085550785,-0.0045215690776705736,0.10694164071902632
1733901982476311800,11.676311767578126,-0.0458534041583538,-0.08960136047005653,0.13956526868715882
1733901982486338600,11.686338623046876,-0.09087561818957328,-0.1285039225772023,0.13264029172956943
1733901982496365800,11.69636572265625,-0.03370470120310783,-0.13918606011122464,0.09821209855750203
1733901982506391800,11.706391845703125,0.01237315936088562,-0.1377086810350418,0.07995294989794492
1733901982516418800,11.716418701171875,-0.00017009586989879608,-0.15205051012039184,0.09215878986790775
1733901982526445600,11.726445556640625,-0.015017536389827727,-0.1791220569193363,0.10987038764730095
1733901982536472800,11.736472900390625,-0.06061024378538132,-0.14434943422377108,0.1544602016106248
1733901982546498800,11.746498779296875,-0.11400690293014049,-0.12646920187920332,0.1636165908820927
1733901982556525800,11.75652587890625,-0.11825228541493416,-0.11452040541023015,0.1566517203055322
1733901982566552600,11.766552490234375,-0.054767362976074214,-0.17830255722999572,0.1240421208627522
1733901982576579800,11.776579833984375,-0.06526186898350715,-0.1774985473707318,0.06830664350688458
1733901982586605800,11.786605712890625,-0.07912906629443169,-0.0783764943614602,0.03939268371164799
1733901982596632800,11.7966328125,-0.0796995596587658,-0.05633037450909614,0.016623071890324352
1733901982606659600,11.80665966796875,-0.14125322177410124,-0.02479980247467756,-0.05362754529118537
1733901982616686800,11.816686767578124,-0.23483400726914405,0.018877134427428246,-0.14656930223032832
1733901982626712800,11.826712890625,-0.1872048256099224,0.060168052975833414,-0.21384557977616786
1733901982636740600,11.83674072265625,-0.0973147113263607,0.07507628377228975,-0.24410993126705288
1733901982646767600,11.846767578125,-0.11897826160192489,0.07763502834439277,-0.25144261224269865
1733901982656794600,11.856794677734374,-0.19362462952435017,0.0992839655727148,-0.2559036833047867
1733901982666820600,11.866820556640626,-0.23125088808536529,0.09894260478913783,-0.22929785432144997
1733901982676847600,11.87684765625,-0.29886954932808873,0.1084860936820507,-0.2041832868091762
1733901982686874600,11.88687451171875,-0.3698562256991863,0.10435936914086341,-0.18903832464739678
1733901982696901600,11.896901611328126,-0.42484336890578267,0.0749821757480502,-0.16137962561026215
1733901982706927600,11.906927734375,-0.41340544456839556,0.020011106893420217,-0.10630348894596099
1733901982716954600,11.91695458984375,-0.42954993916153905,-0.024269348859786984,-0.053190469048172234
1733901982726981600,11.926981689453125,-0.4327145406723022,-0.0878188609674573,0.013962912770360707
1733901982737008600,11.937008544921875,-0.3726128309309482,-0.17342384527772664,0.08483882224336266
1733901982747034600,11.94703466796875,-0.28158640609383584,-0.2696191971853375,0.13258081662729382
1733901982757061600,11.9570615234375,-0.2520189508259296,-0.33669396080970765,0.21092560067623853
1733901982767088600,11.967088623046875,-0.22881693893671035,-0.39103053115308284,0.27508973755091426
1733901982777115600,11.97711572265625,-0.21843407661020756,-0.41985973527431486,0.2949941691994667
1733901982787141600,11.9871416015625,-0.30992052017450333,-0.4278571637690067,0.27009572865590453
1733901982797168400,11.99716845703125,-0.3041828533053398,-0.44942543697655196,0.184524646615237
1733901982807195600,12.007195556640625,-0.14535773448348044,-0.42914223514348265,0.08752806132733822
1733901982817222700,12.01722265625,-0.06585223609209061,-0.3224325034841895,0.032820904105901716
1733901982827248600,12.02724853515625,-0.13364742294549942,-0.21432138059437272,0.015531477261334657
1733901982837275400,12.037275390625,-0.2019967365503311,-0.13011544942706824,-0.005269026444107294
1733901982847302700,12.047302734375,-0.23150398606359956,-0.07367138541042804,-0.027520459610223768
1733901982857329700,12.05732958984375,-0.18879355610609053,0.021890052507817743,-0.024191899709403514
1733901982867355600,12.067355712890626,-0.10449731630682944,0.03972118501365184,-0.014982757337391376
1733901982877382400,12.07738232421875,0.09390811775326728,0.05912468140274286,-0.019138415712118148
1733901982887409700,12.08740966796875,0.2329460015654564,0.11461539021730423,-0.0012539455838501453
1733901982897436700,12.097436767578126,0.246111772608757,0.0970797335267067,-0.0704724432386458
1733901982907463400,12.10746337890625,0.21420915239155291,0.1674146679908037,-0.08875088112056255
1733901982917489400,12.117489501953125,0.2615367207556963,0.298499839232862,-0.05547185798361897
1733901982927516700,12.1275166015625,0.28607845681607724,0.38531478385478257,-0.1404198396898806
1733901982937543700,12.137543701171875,0.263062907409668,0.44218087267577644,-0.2520788643196225
1733901982947569700,12.147569580078125,0.15616145257055758,0.47427521607279777,-0.28354513894617556
1733901982957596400,12.157596435546875,0.03933013986945152,0.46038989858329293,-0.3048503773033619
1733901982967623700,12.167623779296875,-0.03903787892460823,0.37986528627723454,-0.38742023170143364
1733901982977650700,12.177650634765625,-0.0757470226407051,0.2812655035763979,-0.4113334605999291
1733901982987676700,12.1876767578125,-0.06516717643737793,0.17169979796409607,-0.41537893659844993
1733901982997703700,12.19770361328125,-0.06977028631865978,0.11988719314038752,-0.3173857414886355
1733901983007730700,12.207730712890625,-0.10024082790613174,0.05878185931444168,-0.2229568147316575
1733901983017757700,12.2177578125,-0.10654431196451186,-0.031311376325786115,-0.13907339351698755
1733901983027783700,12.22778369140625,-0.13958324273526668,-0.09462561837285756,-0.051888446538895364
1733901983037810700,12.237810791015624,-0.1626800406843424,-0.1464428993716836,0.0006888590469956398
1733901983047837400,12.24783740234375,-0.12952712814509867,-0.18372107514739036,-0.0026820786908268927
1733901983057864700,12.25786474609375,-0.08801964423656464,-0.20147768111228942,0.00019683774635195731
1733901983067891700,12.2678916015625,-0.1469628315925598,-0.18483400482535361,0.019069734390079973
1733901983077917700,12.277917724609376,-0.2131201881110668,-0.2024868581548333,0.028802169983834027
1733901983087944400,12.2879443359375,-0.18703297617435455,-0.23194822269976137,0.024185762229561803
1733901983097971700,12.2979716796875,-0.17465806324779987,-0.23821137474775314,0.03737608319222927
1733901983107998700,12.307998779296875,-0.18988076682090757,-0.22660393906235693,0.05581219585388898
1733901983118024700,12.318024658203125,-0.24816636705100534,-0.20160627592802047,0.092904347538203
