time,seconds_elapsed,z,y,x
1733901970825239300,0.0252392578125,-0.025642186403274536,-0.15128543972969055,-0.5907073020935059
1733901970835265300,0.035265380859375,0.005975203588604927,-0.10356789082288742,-0.5987755656242371
1733901970845292300,0.045292236328125,0.03968070447444916,-0.10769551992416382,-0.6174211502075195
1733901970855319300,0.0553193359375,0.08607906103134155,-0.1506890505552292,-0.6185847520828247
1733901970865346300,0.06534619140625,0.11825910210609436,-0.1824512481689453,-0.6143961548805237
1733901970875372300,0.075372314453125,0.1409023553133011,-0.20002450048923492,-0.607967734336853
1733901970885399300,0.0853994140625,0.14010420441627502,-0.2650591731071472,-0.6176145076751709
1733901970895426300,0.09542626953125,0.14100956916809082,-0.36733007431030273,-0.6375328898429871
1733901970905452300,0.105452392578125,0.14921237528324127,-0.5632314085960388,-0.6688506007194519
1733901970915479300,0.115479248046875,0.17769354581832886,-0.6981149315834045,-0.6756608486175537
1733901970925506000,0.125506103515625,0.25283411145210266,-0.6872955560684204,-0.6529574394226074
1733901970935532300,0.1355322265625,0.3544279634952545,-0.6383599042892456,-0.6149806380271912
1733901970945559300,0.145559326171875,0.46180182695388794,-0.652897834777832,-0.5645039081573486
1733901970955586300,0.15558642578125,0.5623316764831543,-0.6512506008148193,-0.530479907989502
1733901970965612300,0.1656123046875,0.6119969487190247,-0.6433588266372681,-0.482084721326828
1733901970975639300,0.175639404296875,0.5789652466773987,-0.5600215196609497,-0.3876524269580841
1733901970985666300,0.185666259765625,0.484529584646225,-0.4612925052642822,-0.28331562876701355
1733901970995693300,0.195693359375,0.38396355509757996,-0.45504698157310486,-0.20452065765857697
1733901971005719300,0.20571923828125,0.2875584661960602,-0.5342544317245483,-0.161535382270813
1733901971015746000,0.21574609375,0.2059668004512787,-0.6608449220657349,-0.12911482155323029
1733901971025773300,0.225773193359375,0.1484646201133728,-0.8311415314674377,-0.09491236507892609
1733901971035799300,0.23579931640625,0.11151336133480072,-0.9843258857727051,-0.06630799174308777
1733901971045826300,0.245826416015625,0.07107724994421005,-1.1371026039123535,-0.04714947193861008
1733901971055853000,0.25585302734375,0.03306311368942261,-1.2900655269622803,-0.03340941667556763
1733901971065879300,0.26587939453125,0.018442627042531967,-1.4531795978546143,0.007115373853594065
1733901971075906300,0.27590625,0.04214831814169884,-1.580235242843628,0.07436919212341309
1733901971085933300,0.285933349609375,0.15439124405384064,-1.6072708368301392,0.1391785442829132
1733901971095959300,0.295959228515625,0.34676650166511536,-1.474105954170227,0.17788469791412354
1733901971105986000,0.305986083984375,0.5257663130760193,-1.286069393157959,0.17566628754138947
1733901971116013300,0.316013427734375,0.6095738410949707,-1.0098122358322144,0.1197347640991211
1733901971126040300,0.326040283203125,0.5851017832756042,-0.795486330986023,0.008401314727962017
1733901971136066300,0.33606640625,0.47696876525878906,-0.6759689450263977,-0.14603830873966217
1733901971146093000,0.346093017578125,0.3564484715461731,-0.7083649635314941,-0.2836473286151886
1733901971156120300,0.356120361328125,0.26756617426872253,-0.755905270576477,-0.32939910888671875
1733901971166146300,0.366146240234375,0.23197197914123535,-0.8139616847038269,-0.2650880515575409
1733901971176173300,0.37617333984375,0.18977227807044983,-0.897618293762207,-0.12311632931232452
1733901971186200000,0.386199951171875,0.16054221987724304,-1.091497540473938,0.05430293455719948
1733901971196227300,0.396227294921875,0.17021715641021729,-1.3807317018508911,0.2454555332660675
1733901971206253300,0.40625341796875,0.14584124088287354,-1.5778194665908813,0.39112910628318787
1733901971216280300,0.4162802734375,0.06084324046969414,-1.708847165107727,0.4644944667816162
1733901971226307000,0.42630712890625,-0.035614319145679474,-1.7752048969268799,0.5008021593093872
1733901971236333000,0.4363330078125,-0.08349777013063431,-1.7639414072036743,0.5398213863372803
1733901971246360300,0.4463603515625,-0.013082988560199738,-1.7687705755233765,0.5952308177947998
1733901971256387300,0.45638720703125,0.16549639403820038,-1.8119770288467407,0.6631388068199158
1733901971266413300,0.466413330078125,0.4035784602165222,-1.8588111400604248,0.7311601638793945
1733901971276440000,0.476440185546875,0.6350101232528687,-1.7581181526184082,0.7662398219108582
1733901971286467300,0.48646728515625,0.8734756708145142,-1.5211082696914673,0.6339377164840698
1733901971296493300,0.496493408203125,1.021467685699463,-1.1199634075164795,0.25009357929229736
1733901971306520300,0.506520263671875,1.1206609010696411,-1.0503220558166504,-0.06336396187543869
1733901971316547000,0.516547119140625,1.2628732919692993,-1.1063629388809204,-0.3202424943447113
1733901971326574300,0.52657421875,1.4587339162826538,-1.4262412786483765,-0.5313472747802734
1733901971336600300,0.536600341796875,1.6039942502975464,-1.8375239372253418,-0.7072416543960571
1733901971346627300,0.54662744140625,1.6732563972473145,-2.2464847564697266,-0.8852097988128662
1733901971356654000,0.556654052734375,1.705659031867981,-2.7297580242156982,-1.0318443775177002
1733901971366680000,0.56668017578125,1.6946402788162231,-3.1351025104522705,-1.1371513605117798
1733901971376707300,0.576707275390625,1.680799961090088,-3.3839972019195557,-1.1724015474319458
1733901971386734300,0.586734375,1.728873372077942,-3.450016736984253,-1.1629984378814697
1733901971396761000,0.596760986328125,1.7596921920776367,-3.206785202026367,-1.082535982131958
1733901971406787000,0.606787109375,1.7200524806976318,-2.7764477729797363,-0.9368618726730347
1733901971416814300,0.616814453125,1.670141339302063,-2.4499783515930176,-0.773903489112854
1733901971426841300,0.62684130859375,1.5666301250457764,-2.271857976913452,-0.6022603511810303
1733901971436867300,0.636867431640625,1.4016265869140625,-2.1067075729370117,-0.41895467042922974
1733901971446894000,0.64689404296875,1.2137796878814697,-1.8941291570663452,-0.2094922512769699
1733901971456921300,0.65692138671875,1.0437166690826416,-1.6275397539138794,0.03128858655691147
1733901971466947300,0.666947265625,0.9996192455291748,-1.404618263244629,0.3871508240699768
1733901971476974300,0.676974365234375,1.0510026216506958,-1.3349664211273193,0.9015952348709106
1733901971487001000,0.6870009765625,1.0641080141067505,-1.5577102899551392,1.5054320096969604
1733901971497027000,0.697027099609375,0.9572794437408447,-1.766294002532959,2.1121985912323
1733901971507054300,0.707054443359375,0.725123941898346,-1.9388118982315063,2.692139148712158
1733901971517081300,0.717081298828125,0.47949251532554626,-2.22102952003479,3.192762613296509
1733901971527108000,0.727108154296875,0.21050390601158142,-2.6754438877105713,3.568392515182495
1733901971537134000,0.737134033203125,-0.08631870150566101,-3.335193395614624,3.8512959480285645
1733901971547161300,0.747161376953125,-0.3513599634170532,-4.109729290008545,4.021094799041748
1733901971557188400,0.757188232421875,-0.5667411088943481,-4.734694957733154,4.078434467315674
1733901971567214300,0.76721435546875,-0.693857729434967,-4.931224346160889,4.043534755706787
1733901971577241000,0.777240966796875,-0.6870815753936768,-4.8624587059021,3.9548256397247314
1733901971587268000,0.78726806640625,-0.5710630416870117,-4.6755900382995605,3.8550429344177246
1733901971597294300,0.79729443359375,-0.42668887972831726,-4.407721042633057,3.788383960723877
1733901971607321300,0.8073212890625,-0.34651920199394226,-4.086158752441406,3.7730302810668945
1733901971617348000,0.81734814453125,-0.39056962728500366,-3.941006660461426,3.8288369178771973
1733901971627375000,0.827375,-0.5238222479820251,-3.822131395339966,3.904108762741089
1733901971637401000,0.837401123046875,-0.6235328912734985,-3.5380859375,3.9668946266174316
1733901971647428000,0.847427978515625,-0.6264224052429199,-3.298603057861328,4.078534126281738
1733901971657455000,0.857455078125,-0.6244149804115295,-3.169473171234131,4.2618937492370605
1733901971667481000,0.867481201171875,-0.6767314672470093,-3.0624687671661377,4.4954376220703125
1733901971677508000,0.877508056640625,-0.7878387570381165,-2.838139057159424,4.788509368896484
1733901971687535000,0.88753515625,-0.967782199382782,-2.784006118774414,5.142077445983887
1733901971697561000,0.89756103515625,-1.2152031660079956,-2.864426851272583,5.560795783996582
1733901971707588000,0.907588134765625,-1.4551923274993896,-2.8596439361572266,5.954895496368408
1733901971717615000,0.917614990234375,-1.5758452415466309,-2.8980154991149902,6.2674994468688965
1733901971727642000,0.92764208984375,-1.5754897594451904,-2.95033597946167,6.4502997398376465
1733901971737668000,0.937668212890625,-1.4901585578918457,-2.920982837677002,6.4345574378967285
1733901971747695000,0.947695068359375,-1.3308000564575195,-2.8473033905029297,6.209471225738525
1733901971757722000,0.95772216796875,-1.1905126571655273,-2.427974224090576,5.806738376617432
1733901971767748000,0.967748046875,-1.0243995189666748,-1.9421846866607666,5.299116134643555
1733901971777775000,0.977775146484375,-0.8235551118850708,-1.5927693843841553,4.7379889488220215
1733901971787802000,0.987802001953125,-0.5880629420280457,-1.0709607601165771,4.169530391693115
1733901971797828000,0.997828125,-0.24835023283958435,-0.7125978469848633,3.6119208335876465
1733901971807855000,1.007855224609375,0.08423490077257156,-0.4852038323879242,3.050194501876831
1733901971817882000,1.017882080078125,0.3208731710910797,-0.21983467042446136,2.522768259048462
1733901971827909000,1.0279091796875,0.44934725761413574,-0.12366925925016403,2.061783790588379
1733901971837935000,1.03793505859375,0.4380912482738495,-0.08587443083524704,1.666743516921997
1733901971847962000,1.047962158203125,0.3199528753757477,-0.01907355710864067,1.3426517248153687
1733901971857989000,1.057989013671875,0.13250412046909332,0.013076147064566612,1.0733755826950073
1733901971868015000,1.06801513671875,-0.09889686852693558,0.025849997997283936,0.8542887568473816
1733901971878042000,1.0780419921875,-0.3656923174858093,-0.000669250963255763,0.7088133096694946
1733901971888069000,1.088069091796875,-0.650610625743866,-0.061098773032426834,0.6349047422409058
1733901971898095000,1.09809521484375,-0.8339999318122864,0.06447568535804749,0.5546622276306152
1733901971908122000,1.1081220703125,-0.8006768822669983,0.2914696931838989,0.43357551097869873
1733901971918149000,1.118149169921875,-0.6927869319915771,0.2936265170574188,0.33665731549263
1733901971928176000,1.128176025390625,-0.6975196599960327,0.1727248579263687,0.28009045124053955
1733901971938202000,1.1382021484375,-0.7615021467208862,0.09709708392620087,0.2297648787498474
1733901971948229000,1.14822900390625,-0.8155909180641174,-0.09213195741176605,0.1588883101940155
1733901971958256000,1.158256103515625,-0.8079594969749451,-0.2926288843154907,0.07328559458255768
1733901971968282000,1.1682822265625,-0.717628002166748,-0.36157920956611633,-0.07450252771377563
1733901971978309000,1.17830908203125,-0.6226728558540344,-0.7688217759132385,0.15300221741199493
1733901971988336000,1.188336181640625,0.14797541499137878,-0.9258667826652527,2.6659367084503174
1733901971998362000,1.198362060546875,0.7810252904891968,-0.03460222855210304,4.387645721435547
1733901972008389000,1.20838916015625,0.9028422832489014,-0.8660893440246582,4.236025810241699
1733901972018416000,1.218416015625,0.7727258801460266,-1.2934132814407349,3.3333635330200195
1733901972028443100,1.228443115234375,0.4921266734600067,-1.4031511545181274,2.23355770111084
1733901972038469000,1.23846923828125,0.11053109914064407,-1.5953532457351685,1.4714758396148682
1733901972048496000,1.24849609375,0.013346219435334206,-1.8706601858139038,1.1139565706253052
1733901972058523100,1.258523193359375,-0.026776544749736786,-1.9903430938720703,0.9056621789932251
1733901972068549000,1.268549072265625,-0.13882958889007568,-1.780556559562683,0.769538164138794
1733901972078576000,1.278576171875,-0.4399867355823517,-1.5864536762237549,0.6414632797241211
1733901972088603100,1.28860302734375,-1.0643079280853271,-1.5265759229660034,0.6408910155296326
1733901972098629000,1.298629150390625,-1.833709716796875,-1.1940410137176514,0.5958501100540161
1733901972108656000,1.30865625,-2.7896087169647217,-0.7626025676727295,0.3477449417114258
1733901972118683100,1.31868310546875,-3.593235969543457,-0.7039103507995605,-0.02951645851135254
1733901972128710100,1.328710205078125,-4.002811908721924,-0.5766000747680664,-0.4251950979232788
1733901972138736000,1.338736083984375,-4.101686000823975,-0.11914326250553131,-0.7404192686080933
1733901972148763100,1.34876318359375,-4.053245544433594,0.29722172021865845,-0.9697360396385193
1733901972158790100,1.3587900390625,-3.9006049633026123,0.5903921723365784,-1.1646836996078491
1733901972168816000,1.368816162109375,-3.6154096126556396,0.6825966238975525,-1.1857240200042725
1733901972178843100,1.378843017578125,-3.1867270469665527,0.5024845600128174,-0.8581846356391907
1733901972188870100,1.3888701171875,-2.623187303543091,0.13700485229492188,-0.24579393863677979
1733901972198897200,1.398897216796875,-2.014127492904663,-0.18874257802963257,0.3909384310245514
1733901972208923100,1.408923095703125,-1.4804893732070923,-0.7896385788917542,0.618594765663147
1733901972218950100,1.4189501953125,-1.1562292575836182,-1.1769474744796753,0.42045706510543823
1733901972228977200,1.42897705078125,-1.0004692077636719,-1.4901325702667236,-0.019355470314621925
1733901972239003100,1.439003173828125,-0.9019663333892822,-1.6402912139892578,-0.5831758379936218
1733901972249030100,1.449030029296875,-0.8092225790023804,-1.6881706714630127,-1.0549242496490479
1733901972259057200,1.45905712890625,-0.5678716897964478,-1.5749205350875854,-1.3001539707183838
1733901972269084200,1.469084228515625,-0.5278017520904541,-0.7023939490318298,-0.9013798832893372
1733901972279110100,1.479110107421875,-0.4636152982711792,0.20508579909801483,-0.3798045516014099
1733901972289137200,1.48913720703125,-0.10697783529758453,1.0805996656417847,-0.32105201482772827
1733901972299164200,1.4991640625,0.2920783758163452,1.8027514219284058,-0.3603191077709198
1733901972309190100,1.509190185546875,0.558322548866272,2.180000066757202,-0.4911695420742035
1733901972319217200,1.519217041015625,0.6195855736732483,2.2423765659332275,-0.5464175939559937
1733901972329244200,1.529244140625,0.5303465127944946,1.8058080673217773,-0.38331443071365356
1733901972339271200,1.539271240234375,0.45140379667282104,1.1242599487304688,0.0694836750626564
1733901972349297200,1.549297119140625,0.3822585344314575,0.4433610439300537,0.5072975158691406
1733901972359324200,1.55932421875,0.35126543045043945,-0.04541672766208649,0.7075173258781433
1733901972369351200,1.56935107421875,0.35317251086235046,-0.20830951631069183,0.7342826724052429
1733901972379378200,1.579378173828125,0.36365920305252075,-0.0938301682472229,0.767020583152771
1733901972389404200,1.589404052734375,0.30138784646987915,0.6104403734207153,0.9942481517791748
1733901972399431000,1.599430908203125,0.20544399321079254,1.0088465213775635,1.1920791864395142
1733901972409458200,1.609458251953125,0.25580278038978577,1.5006910562515259,0.9976125359535217
1733901972419485200,1.619485107421875,0.32653889060020447,1.7157173156738281,0.6652175188064575
1733901972429511200,1.62951123046875,0.3908174932003021,1.7460293769836426,0.37834975123405457
1733901972439538000,1.639537841796875,0.4962645471096039,1.5285394191741943,0.1838172972202301
1733901972449565200,1.649565185546875,0.5999240875244141,0.8830991387367249,0.06044396013021469
1733901972459592200,1.65959228515625,0.6684073805809021,-0.04884243384003639,-0.0428340882062912
1733901972469618200,1.6696181640625,0.687157928943634,-0.8810957670211792,-0.15378031134605408
1733901972479645000,1.67964501953125,0.6940801739692688,-1.4005372524261475,-0.25337114930152893
1733901972489672200,1.689672119140625,0.6759853363037109,-1.5321016311645508,-0.2889840006828308
1733901972499699200,1.69969921875,0.5746217966079712,-1.2885435819625854,-0.23730133473873138
1733901972509725200,1.70972509765625,0.34316298365592957,-0.7201586365699768,-0.09278490394353867
1733901972519752000,1.719751953125,0.06522601842880249,-0.026267293840646744,0.10469309240579605
1733901972529779200,1.729779296875,-0.1611916720867157,0.5837902426719666,0.24875600636005402
1733901972539806200,1.73980615234375,-0.28412312269210815,0.8859378099441528,0.22554749250411987
1733901972549832200,1.749832275390625,-0.28038111329078674,0.8731775283813477,0.04114729166030884
1733901972559859000,1.75985888671875,-0.19857490062713623,0.502446174621582,-0.18728481233119965
1733901972569886200,1.76988623046875,-0.09467780590057373,-0.06825750321149826,-0.3830591142177582
1733901972579913200,1.779913330078125,0.0543641522526741,-0.6778349876403809,-0.4789866805076599
1733901972589939200,1.789939208984375,0.19755353033542633,-1.000241994857788,-0.48437371850013733
1733901972599966000,1.799966064453125,0.28149423003196716,-0.9990180730819702,-0.44556400179862976
1733901972609993200,1.8099931640625,0.3430761992931366,-0.9110658764839172,-0.378775030374527
1733901972620020000,1.82002001953125,0.3646067678928375,-0.6712873578071594,-0.34320035576820374
1733901972630046000,1.8300458984375,0.28221628069877625,-0.5276404619216919,-0.3354681432247162
1733901972640073000,1.840072998046875,0.1680476814508438,-0.5755479335784912,-0.2487799972295761
1733901972650100000,1.850099853515625,0.22375141084194183,-0.8306316137313843,-0.011354668065905571
1733901972660127000,1.860126953125,0.3508993089199066,-1.2100152969360352,0.21904829144477844
1733901972670153000,1.870153076171875,0.4579874277114868,-1.4887497425079346,0.28878822922706604
1733901972680180000,1.880179931640625,0.4736591875553131,-1.5282785892486572,0.28817233443260193
1733901972690207000,1.89020703125,0.48817527294158936,-1.3306621313095093,0.23367764055728912
1733901972700234000,1.90023388671875,0.5828207731246948,-1.0426968336105347,0.12868249416351318
1733901972710260000,1.910260009765625,0.5833067893981934,-0.7361604571342468,0.012275194749236107
1733901972720287000,1.920286865234375,0.4539318084716797,-0.5498431324958801,-0.05328724905848503
1733901972730314000,1.93031396484375,0.36262479424476624,-0.5800585746765137,-0.10122707486152649
1733901972740341000,1.940341064453125,0.3937340974807739,-0.8942611813545227,-0.15604542195796967
1733901972750367000,1.950366943359375,0.41871482133865356,-1.378721833229065,-0.31176576018333435
1733901972760394000,1.96039404296875,0.5766235589981079,-2.121380090713501,-0.24543122947216034
1733901972770421000,1.9704208984375,0.7922639846801758,-2.3102760314941406,-0.03816086798906326
1733901972780448000,1.980447998046875,0.9460240006446838,-2.405205488204956,0.057790517807006836
1733901972790474000,1.990473876953125,1.0298733711242676,-2.37882137298584,0.09186886250972748
1733901972800501000,2.0005009765625,1.073110580444336,-2.2663068771362305,0.12970304489135742
1733901972810528000,2.010528076171875,1.028796911239624,-2.052523612976074,0.15954110026359558
1733901972820555000,2.020554931640625,0.9345581531524658,-1.7476521730422974,0.2245897501707077
1733901972830582000,2.03058203125,0.8307399153709412,-1.355936884880066,0.2736438512802124
1733901972840608000,2.04060791015625,0.6180280447006226,-0.8367119431495667,0.3251311779022217
1733901972850635000,2.050635009765625,0.336373507976532,-0.291737824678421,0.4828004539012909
1733901972860662000,2.060662109375,0.11393018066883087,0.24039126932621002,0.686012864112854
1733901972870689000,2.07068896484375,-0.02663598395884037,0.5324995517730713,0.8851073384284973
1733901972880715000,2.080715087890625,-0.1390991508960724,0.7533539533615112,1.0738729238510132
1733901972890742000,2.090741943359375,-0.30478635430336,0.9741321206092834,1.2463747262954712
1733901972900769000,2.10076904296875,-0.5034247636795044,1.1929068565368652,1.4271172285079956
1733901972910796000,2.110796142578125,-0.6850952506065369,1.3267461061477661,1.568238377571106
1733901972920822000,2.120822021484375,-0.9738763570785522,1.4469577074050903,1.6467502117156982
1733901972930849000,2.13084912109375,-1.2753411531448364,1.6342490911483765,1.7296360731124878
1733901972940876000,2.1408759765625,-1.4121228456497192,1.8039203882217407,1.7966368198394775
1733901972950903000,2.150903076171875,-1.3276963233947754,1.7711818218231201,1.7436362504959106
1733901972960929800,2.1609296875,-1.205075740814209,1.6500364542007446,1.6273247003555298
1733901972970956000,2.1709560546875,-1.407408356666565,1.425808072090149,1.6070668697357178
1733901972980983000,2.180983154296875,-1.919996738433838,1.345664381980896,1.7286654710769653
1733901972991010000,2.191010009765625,-2.1220481395721436,1.5067976713180542,1.9358776807785034
1733901973001036800,2.201036865234375,-1.9393593072891235,1.6867985725402832,1.9650061130523682
1733901973011062800,2.211062744140625,-1.5961254835128784,1.7248098850250244,1.739756464958191
1733901973021090000,2.221090087890625,-1.2592188119888306,1.8234411478042603,1.5890485048294067
1733901973031117000,2.231116943359375,-1.2671469449996948,1.9725574254989624,1.554507851600647
1733901973041143800,2.241143798828125,-1.6514463424682617,2.2571964263916016,1.599850058555603
1733901973051169800,2.251169677734375,-2.113680362701416,2.6257569789886475,1.6643917560577393
1733901973061197000,2.261197021484375,-2.3668737411499023,2.855459451675415,1.5923750400543213
1733901973071224000,2.27122412109375,-2.402409076690674,2.7137961387634277,1.3458890914916992
1733901973081250800,2.281250732421875,-2.277996778488159,2.2296481132507324,0.9809449911117554
1733901973091276800,2.29127685546875,-1.9967548847198486,1.5475436449050903,0.6474434733390808
1733901973101304000,2.301303955078125,-1.7521406412124634,0.7150656580924988,0.36973652243614197
1733901973111331000,2.3113310546875,-1.6881637573242188,-0.003924195654690266,0.2150566577911377
1733901973121357800,2.32135791015625,-1.6643258333206177,-0.3418797254562378,0.11970869451761246
1733901973131385000,2.331385009765625,-1.8036972284317017,-0.48825716972351074,0.032866474241018295
1733901973141411000,2.3414111328125,-2.303800344467163,-0.2100812792778015,-0.13447993993759155
1733901973151438000,2.35143798828125,-3.134479284286499,0.8195843696594238,-0.2438623458147049
1733901973161464800,2.36146484375,-3.6905996799468994,1.1098089218139648,-0.3216777443885803
1733901973171491800,2.371491943359375,-3.915756940841675,1.1279205083847046,-0.5436477065086365
1733901973181518000,2.38151806640625,-3.8151791095733643,0.5012692809104919,-0.5436385273933411
1733901973191545000,2.391545166015625,-3.7072741985321045,-2.3960249423980713,-0.1592695713043213
1733901973201571800,2.40157177734375,-3.8705618381500244,-6.140340805053711,-0.3736654222011566
1733901973211598800,2.411598876953125,-3.213160276412964,-8.012423515319824,-1.65976881980896
1733901973221626000,2.421626220703125,-1.1652625799179077,-6.530126571655273,-3.160435676574707
1733901973231652000,2.431652099609375,1.226755976676941,-2.593863010406494,-2.6018927097320557
1733901973241678800,2.441678955078125,2.02143931388855,-0.8123840689659119,-1.4867830276489258
1733901973251705900,2.451705810546875,1.7422454357147217,-1.177626609802246,-1.2798575162887573
1733901973261733000,2.461733154296875,1.4962791204452515,-1.22750723361969,-1.1452710628509521
1733901973271759000,2.471759033203125,1.6490484476089478,-0.8738303184509277,-0.8822895884513855
1733901973281785900,2.481785888671875,1.7933958768844604,-0.4155574440956116,-0.4917706549167633
1733901973291812900,2.491812744140625,1.8154828548431396,0.00032205507159233093,-0.04942519962787628
1733901973301840100,2.501840087890625,1.7900539636611938,0.4787880480289459,0.402169406414032
1733901973311866000,2.5118662109375,1.6750608682632446,1.1153615713119507,0.8242197036743164
1733901973321892900,2.521892822265625,1.4562517404556274,1.5703890323638916,1.122212529182434
1733901973331920000,2.531919921875,1.1503586769104004,1.636843204498291,1.2657147645950317
1733901973341947100,2.541947021484375,0.7843158841133118,1.3798178434371948,1.1827021837234497
1733901973351974000,2.551973876953125,0.4692562222480774,1.1429815292358398,0.9720509052276611
1733901973362000000,2.561999755859375,0.1539614051580429,1.0237834453582764,0.7719972133636475
1733901973372027000,2.57202685546875,-0.13384002447128296,1.1710871458053589,0.5949720740318298
1733901973382054100,2.58205419921875,-0.43669185042381287,1.6460856199264526,0.41595834493637085
1733901973392081000,2.592080810546875,-0.5705202221870422,2.0987205505371094,0.09853031486272812
1733901973402107000,2.60210693359375,-0.557833731174469,2.3136441707611084,-0.22134087979793549
1733901973412134000,2.6121337890625,-0.4609505534172058,2.284618616104126,-0.509283721446991
1733901973422161000,2.622160888671875,-0.2963106334209442,1.944869875907898,-0.8815820813179016
1733901973432188200,2.632188232421875,-0.2805841267108917,1.1571569442749023,-1.3246982097625732
1733901973442215000,2.64221484375,-0.3797929883003235,0.32160764932632446,-1.5810003280639648
1733901973452241000,2.652240966796875,-0.30870094895362854,0.24616535007953644,-1.7262229919433594
1733901973462268000,2.662267822265625,-0.18340060114860535,0.4157539904117584,-1.8332113027572632
1733901973472295200,2.672295166015625,-0.30640003085136414,0.4347958564758301,-2.089829683303833
1733901973482322000,2.682322021484375,-0.5266849994659424,0.5203203558921814,-2.615058660507202
1733901973492348000,2.692347900390625,-0.6502532958984375,0.5230237245559692,-3.315103530883789
1733901973502375000,2.702375,-0.49975985288619995,-0.07444506138563156,-3.9280550479888916
1733901973512402200,2.712402099609375,-0.082565538585186,-1.0528088808059692,-4.228513717651367
1733901973522429000,2.722428955078125,0.36350777745246887,-1.9583255052566528,-4.042707443237305
1733901973532455000,2.732454833984375,0.349184513092041,-2.118006467819214,-3.0027267932891846
1733901973542482000,2.74248193359375,0.06473056972026825,-1.2348957061767578,-1.7835626602172852
1733901973552509200,2.75250927734375,-0.13323816657066345,-0.36207345128059387,-0.6710973381996155
1733901973562536000,2.762535888671875,-0.21346843242645264,0.15745186805725098,0.24355560541152954
1733901973572563000,2.77256298828125,-0.21525302529335022,0.4443723261356354,0.8172929286956787
1733901973582589000,2.7825888671875,-0.12741616368293762,0.6915001273155212,1.220267653465271
1733901973592616200,2.7926162109375,0.040097471326589584,1.0930166244506836,1.2310609817504883
1733901973602643000,2.802642822265625,0.324044793844223,1.4551746845245361,0.8709769248962402
1733901973612670000,2.812669921875,0.8510244488716125,1.6176831722259521,0.38655081391334534
1733901973622696400,2.822696533203125,0.9822805523872375,1.7700555324554443,0.03989946097135544
1733901973632723500,2.832723388671875,1.0150909423828125,1.7746902704238892,-0.2497515231370926
1733901973642750500,2.84275048828125,1.0205870866775513,1.4825711250305176,-0.4332309365272522
1733901973652777500,2.852777587890625,0.9018378257751465,1.148641586303711,-0.49982938170433044
1733901973662804500,2.862804443359375,0.8490040302276611,0.7535426020622253,-0.6599494218826294
1733901973672830500,2.87283056640625,0.7638800740242004,0.2341824769973755,-0.8559386134147644
1733901973682857500,2.882857421875,0.6393575072288513,-0.1661943942308426,-0.9310712814331055
1733901973692884500,2.892884521484375,0.4762228727340698,-0.44067469239234924,-0.8381014466285706
1733901973702911500,2.902911376953125,0.26981791853904724,-0.5951851010322571,-0.5255295038223267
1733901973712937500,2.9129375,0.06256541609764099,-0.5438883900642395,-0.12850065529346466
1733901973722964200,2.922964111328125,-0.10189932584762573,-0.6253912448883057,0.2509858012199402
1733901973732991500,2.932991455078125,-0.06478524208068848,-0.6356204152107239,0.5389171838760376
1733901973743018500,2.9430185546875,0.0542459636926651,-0.3850114345550537,0.6349392533302307
1733901973753044500,2.95304443359375,0.04520240053534508,-0.2066936492919922,0.5783140063285828
1733901973763071200,2.9630712890625,0.02791612595319748,-0.45117002725601196,0.38122496008872986
1733901973773098500,2.973098388671875,0.23698784410953522,-0.6189894080162048,0.0754983052611351
1733901973783125500,2.98312548828125,0.5442502498626709,-0.8383427262306213,-0.3073870539665222
1733901973793152300,2.99315234375,0.8016650080680847,-1.1528229713439941,-0.5967459082603455
1733901973803178200,3.00317822265625,0.9270102381706238,-1.2697335481643677,-0.8092144131660461
1733901973813205500,3.01320556640625,0.9782806038856506,-0.7913897037506104,-1.1087369918823242
1733901973823232500,3.023232421875,0.9436847567558289,-0.014684858731925488,-1.381083607673645
1733901973833259300,3.03325927734375,1.3323345184326172,0.8244910836219788,-1.2794294357299805
1733901973843285200,3.04328515625,0.749394416809082,1.1710224151611328,-0.5874706506729126
1733901973853312500,3.0533125,-0.11569403111934662,1.5020054578781128,0.6455996036529541
1733901973863339500,3.063339599609375,-0.19083335995674133,1.6853872537612915,1.4117320775985718
1733901973873366300,3.0733662109375,0.11784591525793076,3.7592992782592773,2.128480911254883
1733901973883392300,3.083392333984375,0.7050866484642029,5.746501922607422,2.1906545162200928
1733901973893419500,3.09341943359375,-0.16052645444869995,4.877228736877441,2.1125869750976562
1733901973903446500,3.103446533203125,-0.061716485768556595,3.3624560832977295,2.0396573543548584
1733901973913473300,3.113473388671875,0.08122868835926056,2.002927780151367,2.0535953044891357
1733901973923500300,3.123500244140625,-0.23297001421451569,0.7437189221382141,2.037299156188965
1733901973933526300,3.1335263671875,-0.5326432585716248,0.2046503722667694,2.2252438068389893
1733901973943553500,3.143553466796875,-0.6381229162216187,0.06686817109584808,2.3591065406799316
1733901973953580300,3.153580322265625,-0.6720068454742432,0.07721508294343948,2.266873836517334
1733901973963607300,3.163607177734375,-0.5960953235626221,-0.1892349272966385,2.0521843433380127
1733901973973633300,3.17363330078125,-0.22362643480300903,-0.18037405610084534,2.0296952724456787
1733901973983660500,3.18366064453125,0.11338923871517181,0.18534301221370697,1.8587288856506348
1733901973993687300,3.193687255859375,0.3552649915218353,0.534679114818573,1.4826487302780151
1733901974003714300,3.20371435546875,0.749737560749054,0.5133776664733887,1.078027606010437
1733901974013740300,3.213740234375,0.8082464337348938,-0.09380491077899933,0.8412328362464905
1733901974023767600,3.223767578125,0.9529363512992859,-0.20224200189113617,0.5802975296974182
1733901974033794300,3.233794189453125,0.58921217918396,-0.25590068101882935,0.4515150189399719
1733901974043821300,3.2438212890625,0.3041324019432068,0.11847656220197678,0.35030972957611084
1733901974053847300,3.253847412109375,0.3492380976676941,0.7058535218238831,0.4127376973628998
1733901974063874600,3.26387451171875,0.5103250741958618,0.3584713935852051,0.5511673092842102
1733901974073901300,3.2739013671875,0.6721376776695251,0.1555561125278473,0.33019202947616577
1733901974083928300,3.28392822265625,0.5781482458114624,0.5380425453186035,-0.060452766716480255
1733901974093955300,3.293955322265625,0.5183674693107605,0.5290226340293884,-0.016124185174703598
1733901974103981600,3.303981689453125,0.4039026200771332,0.14540338516235352,0.006450073793530464
1733901974114008300,3.31400830078125,0.4932844340801239,-0.24772873520851135,0.1287275105714798
1733901974124035300,3.324035400390625,0.7925564050674438,-0.5504628419876099,0.23540182411670685
1733901974134062300,3.334062255859375,0.8161810636520386,-0.6766734719276428,0.2731587588787079
1733901974144088600,3.344088623046875,0.6165812611579895,-0.5642070770263672,0.4362615942955017
1733901974154115300,3.354115234375,0.30832916498184204,-0.5652651190757751,0.6531051993370056
1733901974164142300,3.364142333984375,-0.04550938308238983,-0.885149359703064,0.7508048415184021
1733901974174169300,3.37416943359375,-0.4431041479110718,-0.8734394311904907,0.6848716139793396
1733901974184195300,3.3841953125,-0.8153358697891235,-0.3559834659099579,0.6197414994239807
1733901974194222300,3.394222412109375,-1.1171655654907227,-0.17625150084495544,0.5981200933456421
1733901974204249300,3.404249267578125,-1.4314075708389282,-0.08980246633291245,0.517228901386261
1733901974214276400,3.4142763671875,-1.459958553314209,0.024844227358698845,0.5436112284660339
1733901974224302300,3.42430224609375,-1.1658613681793213,-0.12826935946941376,0.5346261858940125
1733901974234329300,3.434329345703125,-0.7376747727394104,-0.3060806393623352,0.4026090204715729
1733901974244356400,3.4443564453125,-0.4271734058856964,-0.36990848183631897,0.2513619661331177
1733901974254383400,3.45438330078125,-0.4078516364097595,-0.40044108033180237,0.16815069317817688
1733901974264409300,3.464409423828125,-0.5653454661369324,-0.3783835768699646,0.18464885652065277
1733901974274436400,3.474436279296875,-0.9139811992645264,-0.48581817746162415,0.2759462893009186
1733901974284463400,3.48446337890625,-1.4114861488342285,-0.5496269464492798,0.39584678411483765
1733901974294490400,3.494490478515625,-1.8406295776367188,-0.7692820429801941,0.5312104821205139
1733901974304516400,3.504516357421875,-2.0584516525268555,-1.1555908918380737,0.5994234681129456
1733901974314543400,3.51454345703125,-2.1012797355651855,-1.4041389226913452,0.47528764605522156
1733901974324570400,3.5245703125,-2.0740935802459717,-1.2836666107177734,0.31616586446762085
1733901974334597400,3.534597412109375,-2.012061834335327,-0.9073014855384827,0.20259293913841248
1733901974344624400,3.544624267578125,-1.8298076391220093,-0.5601279139518738,0.18617776036262512
1733901974354650600,3.554650634765625,-1.486171007156372,-0.36326491832733154,0.4772580862045288
1733901974364677400,3.564677490234375,-1.2270561456680298,-0.22987821698188782,0.8135915398597717
1733901974374704400,3.574704345703125,-1.0531642436981201,-0.3709013760089874,1.023672342300415
1733901974384731400,3.5847314453125,-0.9595321416854858,-0.5859962105751038,1.114930510520935
1733901974394757600,3.594757568359375,-1.0903860330581665,-0.49855583906173706,1.0682487487792969
1733901974404784400,3.604784423828125,-1.2735284566879272,-0.15239043533802032,0.9745721220970154
1733901974414811400,3.614811279296875,-1.402590274810791,0.12019607424736023,0.9243419766426086
1733901974424838400,3.62483837890625,-1.377300500869751,0.008098963648080826,0.871533215045929
1733901974434864400,3.634864501953125,-1.29890775680542,-0.09401648491621017,0.8190960884094238
1733901974444891400,3.644891357421875,-1.192091703414917,-0.24671371281147003,0.7675330638885498
1733901974454918400,3.65491845703125,-0.9838934540748596,-0.8299521207809448,0.6404232978820801
1733901974464945400,3.6649453125,-0.6508686542510986,-1.4144773483276367,0.41397711634635925
1733901974474971400,3.674971435546875,-0.35110750794410706,-1.5661221742630005,0.14272667467594147
1733901974484998400,3.684998291015625,-0.2140088826417923,-1.2230278253555298,-0.12132930010557175
1733901974495025400,3.695025390625,-0.036237023770809174,-0.9544810652732849,-0.33660751581192017
1733901974505052400,3.705052490234375,0.1860441416501999,-0.2329309731721878,-0.44575464725494385
1733901974515078400,3.715078369140625,0.402996689081192,0.4248322546482086,-0.5323910117149353
1733901974525105400,3.72510546875,0.6643306612968445,0.5725414156913757,-0.6834530830383301
1733901974535132400,3.73513232421875,0.9561628103256226,0.6479759812355042,-0.7683322429656982
1733901974545159400,3.745159423828125,1.1412155628204346,0.6156154870986938,-0.8398802876472473
1733901974555185400,3.755185302734375,1.4556450843811035,0.25320693850517273,-0.7788968086242676
1733901974565212400,3.76521240234375,1.6602816581726074,0.2921164929866791,-1.0067635774612427
1733901974575239400,3.775239501953125,1.6060796976089478,0.06191548705101013,-1.497378945350647
1733901974585266400,3.785266357421875,1.4468655586242676,0.09497455507516861,-1.7947402000427246
1733901974595292400,3.79529248046875,1.129878282546997,0.45641475915908813,-1.9969415664672852
1733901974605319400,3.8053193359375,0.5938020944595337,0.6883966326713562,-2.3821206092834473
1733901974615346400,3.815346435546875,0.23046359419822693,1.2006738185882568,-2.7565927505493164
1733901974625373000,3.825373046875,-0.05484658479690552,1.6567673683166504,-3.0662777423858643
1733901974635399000,3.83539892578125,-0.11740823090076447,1.7512341737747192,-3.2912261486053467
1733901974645426000,3.845426025390625,0.02091502584517002,1.1578116416931152,-3.3734047412872314
1733901974655453000,3.855452880859375,0.19463621079921722,-0.1282818764448166,-3.216923236846924
1733901974665480000,3.86547998046875,0.2674700617790222,-1.097765326499939,-2.7488858699798584
1733901974675506000,3.875505859375,0.47992560267448425,-1.4152833223342896,-2.1249630451202393
1733901974685533000,3.885532958984375,0.5357320308685303,-0.661608099937439,-1.3674992322921753
1733901974695559700,3.8955595703125,0.3486329913139343,-0.4066580533981323,-0.6119636297225952
1733901974705587000,3.9055869140625,0.09718692302703857,-0.4460079073905945,-0.10066013038158417
1733901974715613000,3.915613037109375,0.017988506704568863,-0.5837324261665344,0.1064981147646904
1733901974725640000,3.925639892578125,0.07188670337200165,-0.8010444641113281,0.03260345757007599
1733901974735666700,3.935666748046875,0.1957937330007553,-1.0807589292526245,-0.22411541640758514
1733901974745694000,3.94569384765625,0.34024688601493835,-1.1534343957901,-0.5034372806549072
1733901974755721000,3.955720947265625,0.34256675839424133,-0.9791120886802673,-0.6650844812393188
1733901974765747000,3.965746826171875,0.22789759933948517,-0.7222044467926025,-0.7077338099479675
1733901974775773700,3.975773681640625,0.16652238368988037,-0.49696144461631775,-0.6416307091712952
1733901974785801000,3.985801025390625,0.10045161843299866,-0.34908759593963623,-0.47847890853881836
1733901974795828000,3.995827880859375,0.046871479600667953,-0.24151907861232758,-0.29322969913482666
1733901974805854000,4.00585400390625,0.024853022769093513,-0.16740886867046356,-0.14388436079025269
1733901974815880700,4.015880615234375,0.045810502022504807,-0.11113148927688599,-0.05234032869338989
1733901974825908000,4.025907958984375,0.09811459481716156,-0.05010403320193291,-0.010836963541805744
1733901974835935000,4.03593505859375,0.15300022065639496,0.011119642294943333,0.02314656972885132
1733901974845961000,4.0459609375,0.19848507642745972,0.07122159749269485,0.06984768062829971
1733901974855987700,4.05598779296875,0.2252463847398758,0.12404939532279968,0.10655295848846436
1733901974866015000,4.066014892578125,0.23922507464885712,0.14658242464065552,0.1187974363565445
1733901974876042000,4.0760419921875,0.23831747472286224,0.13350710272789001,0.10165467113256454
1733901974886068000,4.08606787109375,0.23190048336982727,0.0999208316206932,0.06521239876747131
1733901974896094700,4.0960947265625,0.22735340893268585,0.07518139481544495,0.021534692496061325
1733901974906122000,4.1061220703125,0.23313464224338531,0.06637173891067505,-0.012525783851742744
1733901974916149000,4.11614892578125,0.25193867087364197,0.07960152626037598,-0.03270615264773369
1733901974926175000,4.126175048828125,0.28299885988235474,0.11863627284765244,-0.043527908623218536
1733901974936201700,4.13620166015625,0.3260864019393921,0.19234485924243927,-0.06113353371620178
1733901974946228700,4.146228759765625,0.3741294741630554,0.28112083673477173,-0.08978736400604248
1733901974956256000,4.156256103515625,0.4174002707004547,0.3648410439491272,-0.12287154793739319
1733901974966282000,4.166281982421875,0.4627167284488678,0.43750429153442383,-0.15745015442371368
1733901974976308700,4.176308837890625,0.5123116970062256,0.4921579658985138,-0.1832234263420105
1733901974986335700,4.186335693359375,0.5600686073303223,0.544896125793457,-0.2010420560836792
1733901974996363000,4.196363037109375,0.6020908951759338,0.5815033912658691,-0.2107098549604416
1733901975006389000,4.206388916015625,0.6403785943984985,0.5956995487213135,-0.2049628496170044
1733901975016415700,4.216415771484375,0.6706554889678955,0.6079471707344055,-0.18982890248298645
1733901975026442800,4.22644287109375,0.6914379000663757,0.6299322247505188,-0.16977433860301971
1733901975036468700,4.23646875,0.7060129046440125,0.6474888920783997,-0.1495436429977417
1733901975046496000,4.24649609375,0.7051172256469727,0.6513378024101257,-0.12509723007678986
1733901975056522800,4.256522705078125,0.6902796626091003,0.6570838689804077,-0.09085430204868317
1733901975066549800,4.2665498046875,0.6686748266220093,0.6699330806732178,-0.05361204221844673
1733901975076575700,4.27657568359375,0.6527288556098938,0.6838787198066711,-0.026245666667819023
1733901975086603000,4.28660302734375,0.6495319604873657,0.7099207043647766,-0.012502267956733704
1733901975096629800,4.296629638671875,0.657056450843811,0.7383001446723938,-0.0069628930650651455
1733901975106656800,4.30665673828125,0.6635039448738098,0.7665509581565857,-0.010419143363833427
1733901975116682800,4.316682861328125,0.6677783131599426,0.7872341871261597,-0.01729089766740799
1733901975126710000,4.3267099609375,0.6738222241401672,0.8083459734916687,-0.028590325266122818
1733901975136736800,4.33673681640625,0.6744552254676819,0.828648030757904,-0.03358481824398041
1733901975146763800,4.346763671875,0.672579288482666,0.8369144201278687,-0.030894193798303604
1733901975156791000,4.356791015625,0.6685691475868225,0.8456394672393799,-0.01287657767534256
1733901975166817000,4.366817138671875,0.6651496291160583,0.8588937520980835,0.007166904862970114
1733901975176843800,4.37684375,0.6530532240867615,0.8696050047874451,0.030260661616921425
1733901975186870800,4.386870849609375,0.6494137644767761,0.8839080333709717,0.05416421592235565
1733901975196896800,4.396896728515625,0.6363086104393005,0.8754940629005432,0.07650201767683029
1733901975206924000,4.406924072265625,0.6214543581008911,0.8455417156219482,0.09030546247959137
1733901975216950800,4.41695068359375,0.5919451713562012,0.8055940270423889,0.09813942015171051
1733901975226977800,4.426977783203125,0.5497307181358337,0.7577086091041565,0.11127098649740219
1733901975237003800,4.437003662109375,0.4981098473072052,0.699602484703064,0.1306031495332718
1733901975247030800,4.44703076171875,0.4383181631565094,0.6422626972198486,0.1627892702817917
1733901975257057800,4.457057861328125,0.3714278042316437,0.5875923037528992,0.19683006405830383
1733901975267084800,4.467084716796875,0.2945512533187866,0.5436972975730896,0.22401492297649384
1733901975277110800,4.47711083984375,0.2145719975233078,0.4986715018749237,0.23864126205444336
1733901975287137800,4.4871376953125,0.14766553044319153,0.45365968346595764,0.23682355880737305
1733901975297164800,4.497164794921875,0.08612600713968277,0.4051342308521271,0.2212246209383011
1733901975307191800,4.50719189453125,0.035341668874025345,0.3627522587776184,0.2050856351852417
1733901975317217800,4.5172177734375,-0.003298669122159481,0.33541011810302734,0.192229226231575
1733901975327244800,4.527244873046875,-0.026296019554138184,0.3194831609725952,0.1905214488506317
1733901975337271800,4.537271728515625,-0.03454170003533363,0.31231793761253357,0.1942986100912094
1733901975347298800,4.547298828125,-0.03853268176317215,0.31142762303352356,0.20032855868339539
1733901975357324800,4.55732470703125,-0.029765820130705833,0.31970205903053284,0.21114978194236755
1733901975367351800,4.567351806640625,-0.013117998838424683,0.3312920331954956,0.217960387468338
1733901975377378800,4.57737890625,0.009355085901916027,0.3355025053024292,0.22330668568611145
1733901975387405800,4.58740576171875,0.031741950660943985,0.3311454653739929,0.21716128289699554
1733901975397431800,4.597431884765625,0.04201909154653549,0.3146631419658661,0.20173093676567078
1733901975407458800,4.607458740234375,0.043690990656614304,0.3053824007511139,0.1803129017353058
1733901975417486000,4.617486083984375,0.036961447447538376,0.3035717308521271,0.15936633944511414
1733901975427512800,4.627512939453125,0.022617949172854424,0.3170553147792816,0.1398579478263855
1733901975437538800,4.637538818359375,0.00627386337146163,0.33158817887306213,0.1253650188446045
1733901975447565800,4.64756591796875,-0.011820762418210506,0.35058891773223877,0.11062916368246078
1733901975457593000,4.657593017578125,-0.019318627193570137,0.3756532669067383,0.10157947242259979
1733901975467619800,4.667619873046875,-0.015796540305018425,0.396148681640625,0.0973786935210228
1733901975477645800,4.677645751953125,0.0017078854143619537,0.40965065360069275,0.0957682803273201
1733901975487672800,4.6876728515625,0.0330171063542366,0.42359307408332825,0.08803848177194595
1733901975497699800,4.697699951171875,0.06668052077293396,0.410347044467926,0.07634533941745758
1733901975507726800,4.707726806640625,0.09453929215669632,0.3821748197078705,0.06574007123708725
1733901975517752800,4.7177529296875,0.09831938147544861,0.33650827407836914,0.05682913586497307
1733901975527779800,4.72777978515625,0.08681781589984894,0.28792092204093933,0.04992097243666649
1733901975537806800,4.737806884765625,0.06336815655231476,0.24267517030239105,0.04728337749838829
1733901975547833900,4.747833740234375,0.034746717661619186,0.19694200158119202,0.04418729618191719
1733901975557859800,4.75785986328125,0.005237295292317867,0.15643265843391418,0.03709236904978752
1733901975567886800,4.767886962890625,-0.025987878441810608,0.11516985297203064,0.02881406806409359
1733901975577913900,4.777913818359375,-0.05247807875275612,0.07551565766334534,0.02164776809513569
1733901975587940900,4.78794091796875,-0.06420592963695526,0.05302395671606064,0.01711549051105976
1733901975597966800,4.797966796875,-0.06576494127511978,0.058769192546606064,0.016956232488155365
1733901975607993900,4.807993896484375,-0.0655566081404686,0.06356936693191528,0.023608090355992317
1733901975618020900,4.818020751953125,-0.06516405940055847,0.059924568980932236,0.040019821375608444
1733901975628046800,4.828046875,-0.06068548560142517,0.05199611559510231,0.05364396795630455
1733901975638073600,4.838073486328125,-0.05333702638745308,0.044757645577192307,0.06154103949666023
1733901975648100900,4.848100830078125,-0.04207093268632889,0.03799191862344742,0.0590185672044754
1733901975658128000,4.8581279296875,-0.03761333227157593,0.03962177410721779,0.051208846271038055
1733901975668153900,4.86815380859375,-0.032089438289403915,0.046752676367759705,0.03827677667140961
1733901975678180600,4.8781806640625,-0.02580198086798191,0.04183994233608246,0.021540407091379166
1733901975688208000,4.888207763671875,-0.01173556037247181,0.04389288276433945,0.01620779186487198
1733901975698235000,4.89823486328125,-0.007231356110423803,0.05318305268883705,0.011112099513411522
1733901975708260900,4.9082607421875,-0.011726927012205124,0.04513132572174072,-0.023016203194856644
1733901975718287600,4.91828759765625,-0.041441675275564194,-0.042834483087062836,-0.17471332848072052
1733901975728315000,4.92831494140625,-0.07362447679042816,-0.1452924758195877,-0.40522512793540955
1733901975738342000,4.938341796875,-0.04556407779455185,-0.11113796383142471,-0.4313685894012451
1733901975748368000,4.948367919921875,0.016496211290359497,-0.049751315265893936,-0.27646511793136597
1733901975758394600,4.95839453125,0.059501469135284424,-0.03291534259915352,-0.07922261953353882
1733901975768422000,4.968421875,0.04405857250094414,-0.04221165180206299,0.0460771806538105
1733901975778449000,4.978448974609375,0.0027255117893218994,-0.04804530739784241,0.07512427866458893
1733901975788475000,4.988474853515625,-0.01822776161134243,-0.04601597413420677,0.054495614022016525
1733901975798501600,4.998501708984375,-0.010923776775598526,-0.027691559866070747,0.03489368408918381
1733901975808528600,5.008528564453125,0.0067274561151862144,0.002214892767369747,0.028035294264554977
1733901975818556000,5.018555908203125,0.020483482629060745,0.016970403492450714,0.0208242516964674
1733901975828582000,5.028581787109375,0.02785855159163475,0.0051040551625192165,0.007863452658057213
1733901975838608600,5.038608642578125,0.03214384242892265,-0.020346974954009056,-0.01559020858258009
1733901975848635600,5.0486357421875,0.031139599159359932,-0.05207403749227524,-0.05010208487510681
1733901975858663000,5.058662841796875,0.0320834219455719,-0.06809374690055847,-0.086102694272995
1733901975868689000,5.06868896484375,0.0312341395765543,-0.06446252763271332,-0.10695870965719223
1733901975878715600,5.078715576171875,0.04121300205588341,-0.05238908901810646,-0.11637431383132935
1733901975888742700,5.08874267578125,0.041034020483493805,-0.039727721363306046,-0.11229834705591202
1733901975898770000,5.09877001953125,0.03751438483595848,-0.03487890586256981,-0.09675879776477814
1733901975908796000,5.1087958984375,0.03190264105796814,-0.030581142753362656,-0.06832657754421234
1733901975918822700,5.11882275390625,0.025169100612401962,-0.03313617780804634,-0.039155639708042145
1733901975928849700,5.128849609375,0.016131611540913582,-0.04399734362959862,-0.018635272979736328
1733901975938877000,5.138876953125,0.005284023471176624,-0.05137083679437637,-0.015793412923812866
1733901975948903000,5.14890283203125,-0.006402174010872841,-0.05524012818932533,-0.016339832916855812
1733901975958929700,5.1589296875,-0.016191154718399048,-0.058438584208488464,-0.0177057683467865
1733901975968956700,5.168956787109375,-0.018978696316480637,-0.06523910909891129,-0.019733263179659843
1733901975978982700,5.178982666015625,-0.015516320243477821,-0.06587293744087219,-0.026712875813245773
1733901975989010000,5.189010009765625,-0.014421625062823296,-0.06356380134820938,-0.04077932983636856
1733901975999036700,5.19903662109375,-0.01239815540611744,-0.06905923783779144,-0.0627746433019638
1733901976009063700,5.209063720703125,-0.014421594329178333,-0.07483707368373871,-0.09282885491847992
1733901976019089700,5.219089599609375,-0.01353263109922409,-0.0780232772231102,-0.11841011047363281
1733901976029117000,5.229116943359375,-0.004353053867816925,-0.07600541412830353,-0.12593315541744232
1733901976039143700,5.239143798828125,0.0062231579795479774,-0.06848490983247757,-0.11232573539018631
1733901976049170700,5.249170654296875,0.010752489790320396,-0.06165006384253502,-0.08242788165807724
1733901976059196700,5.25919677734375,0.009963927790522575,-0.0525529682636261,-0.03935418277978897
1733901976069224000,5.269223876953125,0.00881215464323759,-0.03511153906583786,0.0016308561898767948
1733901976079250700,5.279250732421875,0.009863304905593395,-0.01970941573381424,0.030426817014813423
1733901976089277700,5.289277587890625,0.013511646538972855,-0.007600724697113037,0.04119858518242836
1733901976099303700,5.2993037109375,0.01769094541668892,0.005360613577067852,0.036108218133449554
1733901976109330700,5.30933056640625,0.01544310711324215,0.017109591513872147,0.025287628173828125
1733901976119358000,5.31935791015625,0.014713933691382408,0.021674249321222305,0.015785470604896545
1733901976129384700,5.329384765625,0.010064363479614258,0.021564912050962448,0.010790235362946987
1733901976139410700,5.33941064453125,0.0061969212256371975,0.020958777517080307,0.005446602590382099
1733901976149437700,5.349437744140625,0.004709501750767231,0.01892799511551857,0.003720818320289254
1733901976159465000,5.35946484375,0.0027845692820847034,0.0118591682985425,0.008864181116223335
1733901976169491700,5.36949169921875,-0.002230051439255476,0.0037358012050390244,0.011035561561584473
1733901976179517700,5.379517578125,-0.0071374583058059216,-0.0035247746855020523,0.004668742418289185
1733901976189544700,5.389544677734375,-0.008076857775449753,-0.008366333320736885,-0.007795990444719791
1733901976199572000,5.399572021484375,-0.004266672767698765,-0.011232959106564522,-0.016106117516756058
1733901976209598700,5.4095986328125,-0.006153744645416737,-0.00794570054858923,-0.019306916743516922
1733901976219624700,5.419624755859375,-0.0054623885080218315,-0.0010009753750637174,-0.015906060114502907
1733901976229651700,5.429651611328125,-0.0017492091283202171,0.003155465004965663,-0.00700529245659709
1733901976239679000,5.439678955078125,-0.0028237944934517145,0.004595702514052391,0.0020284163765609264
1733901976249705700,5.449705810546875,-0.005354668945074081,0.004636703059077263,0.009990319609642029
1733901976259731700,5.459731689453125,-0.007590658962726593,-0.0007886888924986124,0.013645773753523827
1733901976269758700,5.4697587890625,-0.007876528427004814,-0.0023341947235167027,0.016577010974287987
1733901976279786000,5.479785888671875,-0.009432080201804638,-0.0017504298593848944,0.020364027470350266
1733901976289812700,5.489812744140625,-0.011349093168973923,0.0018057350534945726,0.021965069696307182
1733901976299838700,5.499838623046875,-0.01120901107788086,0.000890406547114253,0.013344417326152325
1733901976309865700,5.50986572265625,-0.007713524624705315,-0.0044511230662465096,0.005092990584671497
1733901976319893000,5.51989306640625,0.004894678480923176,-0.010300490073859692,-0.008031067438423634
1733901976329919000,5.5299189453125,0.004531379789113998,-0.014028768986463547,-0.011651690118014812
1733901976339945700,5.53994580078125,-0.0032330662943422794,-0.017676234245300293,-0.006473972462117672
1733901976349972700,5.54997265625,-0.005757751874625683,-0.019369348883628845,-0.000007582595571875572
1733901976359999700,5.559999755859375,-0.0014926993753761053,-0.019788796082139015,0.0037006030324846506
1733901976370026000,5.57002587890625,0.0003927163779735565,-0.02452728897333145,0.004790826700627804
1733901976380052700,5.580052734375,-0.0008264788193628192,-0.027613094076514244,-0.000030293595045804977
1733901976390079700,5.590079833984375,-0.0018511859234422445,-0.0337931290268898,-0.005718458443880081
1733901976400106800,5.600106689453125,-0.0005049579776823521,-0.036894116550683975,-0.010932927951216698
1733901976410133000,5.610133056640625,-0.004877757281064987,-0.03892097249627113,-0.02157827652990818
1733901976420159700,5.62015966796875,-0.006634378340095282,-0.0368487648665905,-0.025873688980937004
1733901976430186800,5.630186767578125,-0.009147902950644493,-0.029684308916330338,-0.021685359999537468
1733901976440213800,5.6402138671875,-0.008082373067736626,-0.02507757395505905,-0.012682011350989342
1733901976450239700,5.65023974609375,-0.008613106794655323,-0.017382390797138214,-0.018110839650034904
1733901976460266800,5.660266845703125,-0.007371008396148682,-0.004896426573395729,-0.01917610503733158
1733901976470293800,5.670293701171875,-0.0048516918905079365,-0.0011418794747442007,-0.020119953900575638
1733901976480320800,5.68032080078125,0.0019404341001063585,-0.013366321101784706,-0.026968007907271385
1733901976490346800,5.6903466796875,0.006038040854036808,-0.024432865902781487,-0.033225588500499725
1733901976500373800,5.700373779296875,0.005520855076611042,-0.02674608863890171,-0.03705387935042381
1733901976510400800,5.71040087890625,0.001051582396030426,-0.019606566056609154,-0.03769351914525032
1733901976520427800,5.720427734375,-0.0013516541803255677,-0.009274300187826157,-0.03194801136851311
1733901976530453800,5.730453857421875,-0.0034856554120779037,-0.006318419240415096,-0.02911437302827835
1733901976540480800,5.740480712890625,-0.004801789298653603,-0.003115967847406864,-0.024913236498832703
1733901976550507800,5.7505078125,-0.004359094426035881,0.0028318511322140694,-0.02142954245209694
1733901976560533800,5.76053369140625,-0.0037015597335994244,0.00821623019874096,-0.020671607926487923
1733901976570560800,5.770560791015625,-0.0011683263583108783,0.01423814706504345,-0.018999915570020676
1733901976580587800,5.780587890625,0.0004982796963304281,0.013174479827284813,-0.01963401399552822
1733901976590614800,5.79061474609375,-0.0009259929647669196,0.007829289883375168,-0.020188715308904648
1733901976600640800,5.800640869140625,-0.00022931001149117947,0.003056639339774847,-0.024123001843690872
1733901976610667800,5.810667724609375,0.00010762456804513931,-0.0018338707741349936,-0.0272793248295784
1733901976620694800,5.82069482421875,0.005241666454821825,-0.00020188558846712112,-0.03138618543744087
1733901976630721800,5.8307216796875,0.006835125386714935,-0.003180575091391802,-0.03251186013221741
1733901976640747800,5.840747802734375,0.005549617111682892,-0.015827927738428116,-0.03595905378460884
1733901976650775000,5.850775146484375,0.003009770531207323,-0.031955886632204056,-0.03763442113995552
1733901976660801800,5.8608017578125,0.00029121595434844494,-0.0399395115673542,-0.04420257359743118
1733901976670828800,5.870828857421875,-0.012142036110162735,-0.042591772973537445,-0.05046319216489792
1733901976680854800,5.880854736328125,-0.01987478882074356,-0.05339781567454338,-0.05497272312641144
1733901976690882000,5.890882080078125,-0.02295844629406929,-0.06788992136716843,-0.06002521142363548
1733901976700908800,5.90090869140625,-0.023239411413669586,-0.08295222371816635,-0.05514097586274147
1733901976710935800,5.910935791015625,-0.02391728386282921,-0.0889597237110138,-0.05098332092165947
1733901976720961800,5.9209619140625,-0.020591527223587036,-0.0811886191368103,-0.05088132247328758
1733901976730988800,5.93098876953125,-0.008790705353021622,-0.07487393915653229,-0.056690432131290436
1733901976741015800,5.941015869140625,-0.0003093366976827383,-0.07045309245586395,-0.07092209905385971
1733901976751042800,5.951042724609375,-0.00047575775533914566,-0.06489364057779312,-0.0882536917924881
1733901976761068800,5.96106884765625,0.00007977779023349285,-0.05912203714251518,-0.10127148777246475
1733901976771095800,5.971095703125,0.0008291855920106173,-0.05903050675988197,-0.11149716377258301
1733901976781122800,5.981122802734375,0.0027104425244033337,-0.06351687014102936,-0.11421331763267517
1733901976791149800,5.99114990234375,0.0027100539300590754,-0.061140745878219604,-0.1094016581773758
1733901976801175800,6.00117578125,0.003839500481262803,-0.05481334030628204,-0.09617453813552856
1733901976811202800,6.011202880859375,0.005113823339343071,-0.050722990185022354,-0.0785910114645958
1733901976821229800,6.021229736328125,0.010317639447748661,-0.05095069110393524,-0.0677330419421196
1733901976831255800,6.031255859375,0.01642928458750248,-0.056694451719522476,-0.0645972192287445
1733901976841282800,6.04128271484375,0.019633600488305092,-0.060352303087711334,-0.0667559802532196
1733901976851309800,6.051309814453125,0.0185806043446064,-0.05380363017320633,-0.06327473372220993
1733901976861336800,6.0613369140625,0.019523097202181816,-0.037773799151182175,-0.0510052852332592
1733901976871362800,6.07136279296875,0.020506728440523148,-0.02705341763794422,-0.03735401853919029
1733901976881389800,6.081389892578125,0.0180054884403944,-0.020589126273989677,-0.024979375302791595
1733901976891416800,6.091416748046875,0.018881196156144142,-0.01727953925728798,-0.018753154203295708
1733901976901443800,6.10144384765625,0.017528044059872627,-0.01655808836221695,-0.01745033450424671
1733901976911469800,6.1114697265625,0.012324011884629726,-0.012345770373940468,-0.019190091639757156
1733901976921496800,6.121496826171875,0.0019270312041044235,-0.0062418049201369286,-0.03063688986003399
1733901976931523800,6.13152392578125,-0.0091065913438797,-0.00048117199912667274,-0.051637373864650726
1733901976941550800,6.14155078125,-0.008906853385269642,-0.012331172823905945,-0.07350645959377289
1733901976951576800,6.151576904296875,-0.0025871952529996634,-0.014758214354515076,-0.08811096101999283
1733901976961603800,6.161603759765625,-0.001087036682292819,-0.008191658183932304,-0.09111500531435013
1733901976971630800,6.171630859375,-0.008839076384902,-0.0022696603555232286,-0.08908258378505707
1733901976981657900,6.181657958984375,-0.010076647624373436,0.008092166855931282,-0.08195889741182327
1733901976991683800,6.191683837890625,-0.00258429441601038,0.009953896515071392,-0.07512521743774414
1733901977001710800,6.2017109375,0.004279736429452896,0.006970623508095741,-0.07861369103193283
1733901977011737900,6.21173779296875,0.0030578095465898514,0.0009436698164790869,-0.08786928653717041
1733901977021764900,6.221764892578125,-0.005967110861092806,-0.0022617108188569546,-0.09685346484184265
1733901977031790800,6.231790771484375,-0.012760035693645477,-0.009129203855991364,-0.09679433703422546
1733901977041817900,6.24181787109375,-0.012007426470518112,-0.024556897580623627,-0.08675742149353027
1733901977051844900,6.251844970703125,-0.012177042663097382,-0.03613355755805969,-0.07286504656076431
1733901977061870800,6.261870849609375,-0.013236181810498238,-0.05561857670545578,-0.0697275772690773
1733901977071897900,6.27189794921875,-0.014845684170722961,-0.07866097241640091,-0.08041046559810638
1733901977081924900,6.2819248046875,-0.015951961278915405,-0.09699071198701859,-0.09740862995386124
1733901977091951900,6.291951904296875,-0.01970883458852768,-0.10863059014081955,-0.11651405692100525
1733901977101977900,6.301977783203125,-0.02306414768099785,-0.1089850589632988,-0.13604462146759033
1733901977112004900,6.3120048828125,-0.02289838157594204,-0.09475530683994293,-0.1452672779560089
1733901977122031900,6.322031982421875,-0.015396255999803543,-0.0847703218460083,-0.14671683311462402
1733901977132059000,6.332058837890625,-0.0006937164580449462,-0.07045120000839233,-0.14436207711696625
1733901977142084900,6.3420849609375,0.011699036695063114,-0.058838482946157455,-0.13782109320163727
1733901977152111900,6.35211181640625,0.020426327362656593,-0.04865235090255737,-0.12824052572250366
1733901977162139000,6.362138916015625,0.0275617353618145,-0.03414265066385269,-0.11631888151168823
1733901977172166000,6.372165771484375,0.032570771872997284,-0.022086452692747116,-0.10407347977161407
1733901977182191900,6.38219189453125,0.0341620109975338,-0.01646025851368904,-0.09604963660240173
1733901977192219000,6.392218994140625,0.036231838166713715,-0.009091805666685104,-0.08777061104774475
1733901977202246000,6.402245849609375,0.03998636454343796,0.0031084008514881134,-0.07789161056280136
1733901977212273000,6.41227294921875,0.048556506633758545,0.010564243420958519,-0.06818114221096039
1733901977222299000,6.422298828125,0.048852916806936264,0.013835936784744263,-0.06219729408621788
1733901977232326000,6.432325927734375,0.046707261353731155,0.010534410364925861,-0.0640728697180748
1733901977242353000,6.442352783203125,0.04101581871509552,0.003732963465154171,-0.06991185247898102
1733901977252380000,6.4523798828125,0.034528426826000214,-0.002054664073511958,-0.07857106626033783
1733901977262406000,6.462406005859375,0.02993687242269516,0.0005435158964246511,-0.08733659237623215
1733901977272433000,6.472432861328125,0.020598430186510086,0.004634176846593618,-0.09015160799026489
1733901977282459600,6.482459716796875,0.013587657362222672,0.01284630037844181,-0.09045547991991043
1733901977292487000,6.49248681640625,0.009689699858427048,0.019681375473737717,-0.08302195370197296
1733901977302513000,6.502512939453125,0.007548252120614052,0.027812007814645767,-0.07205798476934433
1733901977312540000,6.512539794921875,0.010334630496799946,0.023654576390981674,-0.06210533156991005
1733901977322566700,6.522566650390625,0.01575576141476631,0.012335874140262604,-0.05674385651946068
1733901977332594000,6.532593994140625,0.025363795459270477,0.012991061434149742,-0.05660098046064377
1733901977342620000,6.542619873046875,0.03294847533106804,0.015363671816885471,-0.05815759673714638
1733901977352647000,6.55264697265625,0.043298039585351944,0.030144257470965385,-0.060159727931022644
1733901977362673700,6.562673583984375,0.05427585542201996,0.04588460549712181,-0.05674475431442261
1733901977372699600,6.57269970703125,0.06450600922107697,0.05463327839970589,-0.05698241665959358
1733901977382727000,6.582726806640625,0.07501751184463501,0.0666089877486229,-0.06064266338944435
1733901977392754000,6.59275390625,0.07843787223100662,0.07548999041318893,-0.06153673678636551
1733901977402780700,6.60278076171875,0.07851909846067429,0.08054786175489426,-0.057776886969804764
1733901977412806700,6.612806640625,0.08091653138399124,0.08839500695466995,-0.04901443421840668
1733901977422834000,6.622833984375,0.08731424808502197,0.1056850478053093,-0.033467166125774384
1733901977432861000,6.63286083984375,0.09035035967826843,0.12926413118839264,-0.015017146244645119
1733901977442887700,6.6428876953125,0.08554095774888992,0.13790768384933472,-0.0015487417113035917
1733901977452913700,6.65291357421875,0.06835810840129852,0.11775439232587814,0.0026306568179279566
1733901977462941000,6.66294091796875,0.04193209111690521,0.07749884575605392,-0.006848332472145557
1733901977472968000,6.672968017578125,0.020939305424690247,0.04059150442481041,-0.02577371522784233
1733901977482994700,6.68299462890625,0.012374045327305794,0.027126561850309372,-0.04004586115479469
1733901977493020700,6.693020751953125,0.00999298132956028,0.02242150716483593,-0.042396049946546555
1733901977503048000,6.7030478515625,0.006764165125787258,0.020808430388569832,-0.030834203585982323
1733901977513075000,6.713074951171875,0.000019551953300833702,0.03009379841387272,-0.022060249000787735
1733901977523101700,6.723101806640625,-0.00905383750796318,0.05555069074034691,-0.008401427417993546
1733901977533127700,6.733127685546875,-0.01660514995455742,0.07955341041088104,-0.002498517744243145
1733901977543155000,6.743155029296875,-0.0231072586029768,0.09023214876651764,-0.0020979782566428185
1733901977553182000,6.753181884765625,-0.027222037315368652,0.08791648596525192,-0.012471208348870277
1733901977563208700,6.763208740234375,-0.03261334076523781,0.06816408783197403,-0.027801694348454475
1733901977573234700,6.773234619140625,-0.04208125174045563,0.03876365348696709,-0.040261100977659225
1733901977583262000,6.783261962890625,-0.05647403746843338,0.013022340834140778,-0.04746601730585098
1733901977593289000,6.7932890625,-0.07764910906553268,0.001987247262150049,-0.0576353594660759
1733901977603315000,6.80331494140625,-0.10091102123260498,0.000823179492726922,-0.06508316099643707
1733901977613341700,6.813341796875,-0.11249130964279175,0.017455607652664185,-0.0696646049618721
1733901977623369500,6.823369384765625,-0.12028798460960388,0.047918178141117096,-0.07620187103748322
1733901977633396500,6.833396484375,-0.12348921597003937,0.09319397062063217,-0.0844109058380127
1733901977643422500,6.84342236328125,-0.11854532361030579,0.13215655088424683,-0.10029453039169312
1733901977653449200,6.85344921875,-0.10862112790346146,0.15388599038124084,-0.11769117414951324
1733901977663476500,6.8634765625,-0.09979833662509918,0.15589188039302826,-0.13597005605697632
1733901977673503500,6.87350341796875,-0.09412551671266556,0.15041744709014893,-0.14374412596225739
1733901977683529500,6.883529541015625,-0.09256277978420258,0.13265655934810638,-0.14039920270442963
1733901977693556200,6.89355615234375,-0.0970420390367508,0.10325401276350021,-0.12577445805072784
1733901977703583500,6.90358349609375,-0.09632565081119537,0.06146661564707756,-0.10613177716732025
1733901977713610500,6.913610595703125,-0.08815501630306244,0.018968895077705383,-0.08052629232406616
1733901977723636500,6.923636474609375,-0.08453337848186493,-0.005585451610386372,-0.06530952453613281
1733901977733663200,6.933663330078125,-0.0861445963382721,-0.01200926210731268,-0.04961152374744415
1733901977743690500,6.9436904296875,-0.08966756612062454,-0.004909448325634003,-0.0366382971405983
1733901977753717500,6.953717529296875,-0.09092221409082413,0.013648812659084797,-0.026385685428977013
1733901977763743500,6.963743408203125,-0.09029877185821533,0.035381805151700974,-0.029003839939832687
1733901977773770200,6.973770263671875,-0.08444808423519135,0.04776228964328766,-0.0441700704395771
1733901977783797500,6.983797607421875,-0.08217454701662064,0.03952939435839653,-0.06499945372343063
1733901977793824500,6.993824462890625,-0.08712150901556015,0.016605794429779053,-0.08886120468378067
1733901977803850500,7.0038505859375,-0.10600225627422333,-0.01982518471777439,-0.10774648189544678
1733901977813877200,7.013877197265625,-0.13443097472190857,-0.05192369222640991,-0.12946851551532745
1733901977823904500,7.023904541015625,-0.1665114164352417,-0.08919649571180344,-0.14600993692874908
1733901977833931500,7.033931640625,-0.18714651465415955,-0.11494655162096024,-0.15262377262115479
1733901977843957500,7.04395751953125,-0.19839543104171753,-0.11867044866085052,-0.160175159573555
1733901977853984300,7.053984375,-0.20533044636249542,-0.10620801150798798,-0.16920344531536102
1733901977864011300,7.06401123046875,-0.2142147421836853,-0.08863779902458191,-0.17666110396385193
1733901977874037500,7.07403759765625,-0.22265364229679108,-0.08273070305585861,-0.17836032807826996
1733901977884064500,7.084064453125,-0.23126578330993652,-0.0804358571767807,-0.1783027946949005
1733901977894091300,7.09409130859375,-0.23590035736560822,-0.06934450566768646,-0.17455190420150757
1733901977904118300,7.1041181640625,-0.233562633395195,-0.05831609666347504,-0.1782931089401245
1733901977914144300,7.114144287109375,-0.22222308814525604,-0.06007087975740433,-0.18599779903888702
1733901977924171500,7.124171630859375,-0.20970197021961212,-0.06835251301527023,-0.1955079436302185
1733901977934198300,7.1341982421875,-0.1984892338514328,-0.09244830161333084,-0.208871990442276
1733901977944225300,7.144225341796875,-0.18834525346755981,-0.12297452241182327,-0.21698744595050812
1733901977954251300,7.154251220703125,-0.18827985227108002,-0.14548428356647491,-0.219014972448349
1733901977964278500,7.164278564453125,-0.19189295172691345,-0.15562427043914795,-0.21257545053958893
1733901977974305300,7.17430517578125,-0.1991032510995865,-0.1467181146144867,-0.20257748663425446
1733901977984332300,7.184332275390625,-0.21299056708812714,-0.11675489693880081,-0.19362127780914307
1733901977994358300,7.194358154296875,-0.2289687991142273,-0.08783677965402603,-0.18643049895763397
1733901978004385500,7.204385498046875,-0.2423969954252243,-0.08114372193813324,-0.17564469575881958
1733901978014412300,7.214412353515625,-0.26042070984840393,-0.08604608476161957,-0.17651952803134918
1733901978024439300,7.224439208984375,-0.2610313594341278,-0.10410045832395554,-0.17835497856140137
1733901978034465300,7.23446533203125,-0.2666091322898865,-0.1271347552537918,-0.18732398748397827
1733901978044492500,7.244492431640625,-0.26447543501853943,-0.17239011824131012,-0.20252478122711182
1733901978054519300,7.254519287109375,-0.2603136897087097,-0.218656986951828,-0.21305762231349945
1733901978064546300,7.26454638671875,-0.25813281536102295,-0.26498132944107056,-0.22759874165058136
1733901978074572300,7.274572265625,-0.26262006163597107,-0.31063321232795715,-0.23893028497695923
1733901978084599600,7.284599609375,-0.2774016857147217,-0.3410417139530182,-0.2466755509376526
1733901978094626300,7.294626220703125,-0.29858025908470154,-0.33767738938331604,-0.24756668508052826
1733901978104653300,7.3046533203125,-0.32060620188713074,-0.3133794963359833,-0.2317991703748703
1733901978114679300,7.31467919921875,-0.33278343081474304,-0.274680495262146,-0.20661944150924683
1733901978124706600,7.32470654296875,-0.33382660150527954,-0.23682205379009247,-0.17969222366809845
1733901978134733300,7.3347333984375,-0.3193848431110382,-0.21762605011463165,-0.15595299005508423
1733901978144759300,7.34475927734375,-0.28774091601371765,-0.23832014203071594,-0.1447562575340271
1733901978154786300,7.354786376953125,-0.24990297853946686,-0.2706025242805481,-0.14812448620796204
1733901978164813300,7.364813232421875,-0.2195192277431488,-0.2901383936405182,-0.17133261263370514
1733901978174840600,7.374840576171875,-0.21159453690052032,-0.29666274785995483,-0.20326483249664307
1733901978184866300,7.3848662109375,-0.22222347557544708,-0.2914770245552063,-0.22835101187229156
1733901978194893300,7.394893310546875,-0.23617006838321686,-0.290054053068161,-0.24133487045764923
1733901978204920300,7.40492041015625,-0.2475937008857727,-0.29806751012802124,-0.2400786578655243
1733901978214947600,7.414947509765625,-0.25235211849212646,-0.3115096986293793,-0.23120564222335815
1733901978224973600,7.4249736328125,-0.2538762390613556,-0.32911425828933716,-0.2249450981616974
1733901978235000300,7.435000244140625,-0.2512674629688263,-0.34732890129089355,-0.21593831479549408
1733901978245027300,7.44502734375,-0.24348890781402588,-0.36635103821754456,-0.21416732668876648
1733901978255054600,7.4550546875,-0.22935257852077484,-0.3796233832836151,-0.2231758087873459
1733901978265080600,7.46508056640625,-0.21307426691055298,-0.38413769006729126,-0.24510186910629272
1733901978275107300,7.475107421875,-0.19843466579914093,-0.3822360038757324,-0.2810039818286896
1733901978285134300,7.48513427734375,-0.18573778867721558,-0.3697172999382019,-0.3228299915790558
1733901978295161600,7.49516162109375,-0.17482446134090424,-0.34545081853866577,-0.3608008325099945
1733901978305187600,7.5051875,-0.1605272740125656,-0.3091716170310974,-0.39287859201431274
1733901978315214300,7.51521435546875,-0.15245620906352997,-0.27818337082862854,-0.41595637798309326
1733901978325241300,7.525241455078125,-0.1450078785419464,-0.24275270104408264,-0.429760605096817
1733901978335268600,7.5352685546875,-0.14388985931873322,-0.20375831425189972,-0.42835789918899536
1733901978345294600,7.545294677734375,-0.14214496314525604,-0.16321222484111786,-0.4130103886127472
1733901978355321300,7.5553212890625,-0.13591788709163666,-0.1248941719532013,-0.3852010667324066
1733901978365348400,7.565348388671875,-0.12049232423305511,-0.09097429364919662,-0.35161247849464417
1733901978375374300,7.575374267578125,-0.09384847432374954,-0.062391262501478195,-0.3174436390399933
1733901978385401600,7.585401611328125,-0.06564772874116898,-0.042708635330200195,-0.2893638014793396
1733901978395428400,7.595428466796875,-0.03640875965356827,-0.02667485736310482,-0.27243900299072266
1733901978405455400,7.605455322265625,-0.012396900914609432,-0.018049145117402077,-0.2663438320159912
1733901978415481300,7.6154814453125,0.005175952333956957,-0.008995688520371914,-0.2690061628818512
1733901978425508600,7.625508544921875,0.016720755025744438,-0.008834567852318287,-0.273427814245224
1733901978435535400,7.635535400390625,0.020824015140533447,0.002523580798879266,-0.2796267569065094
1733901978445562400,7.645562255859375,0.020698314532637596,0.016792265698313713,-0.2739640772342682
1733901978455588400,7.65558837890625,0.016895845532417297,0.03399135172367096,-0.26095378398895264
1733901978465615600,7.66561572265625,0.00238241720944643,0.04327699542045593,-0.23975928127765656
1733901978475642400,7.675642333984375,-0.006713560316711664,0.05237274989485741,-0.20796717703342438
1733901978485669400,7.68566943359375,-0.013329917564988136,0.060669027268886566,-0.17314954102039337
1733901978495695400,7.6956953125,-0.015250056982040405,0.06811309605836868,-0.14252957701683044
1733901978505722400,7.705722412109375,-0.0031214887276291847,0.07315685600042343,-0.11100813746452332
1733901978515749400,7.715749267578125,0.01724846288561821,0.0699661523103714,-0.08951166272163391
1733901978525776400,7.7257763671875,0.04029093310236931,0.06263473629951477,-0.07592874020338058
1733901978535802400,7.73580224609375,0.05737312510609627,0.04822521656751633,-0.07159990817308426
1733901978545829400,7.745829345703125,0.07039012014865875,0.027385981753468513,-0.07730093598365784
1733901978555856400,7.7558564453125,0.07293081283569336,0.012587304227054119,-0.08649919927120209
1733901978565883400,7.76588330078125,0.0803660973906517,0.021381061524152756,-0.09511745721101761
1733901978575909400,7.775909423828125,0.09286476671695709,0.03915303573012352,-0.09605204313993454
1733901978585936400,7.785936279296875,0.10742799937725067,0.06132545322179794,-0.0913318544626236
1733901978595963400,7.79596337890625,0.1251462996006012,0.10312845557928085,-0.0818312019109726
1733901978605990400,7.805990478515625,0.14877040684223175,0.14539575576782227,-0.07163581997156143
1733901978616016400,7.816016357421875,0.16668173670768738,0.17213881015777588,-0.06748665124177933
1733901978626043100,7.826043212890625,0.17079178988933563,0.1779058873653412,-0.06801954656839371
1733901978636070000,7.83606982421875,0.16074946522712708,0.16828468441963196,-0.07016196846961975
1733901978646096000,7.846095947265625,0.14086337387561798,0.15825015306472778,-0.06401193141937256
1733901978656123000,7.856122802734375,0.11817382276058197,0.15343184769153595,-0.0498211570084095
1733901978666150100,7.866150146484375,0.10155516117811203,0.15079665184020996,-0.026908382773399353
1733901978676177200,7.87617724609375,0.08583100885152817,0.149072527885437,-0.0030894239898771048
1733901978686203000,7.886202880859375,0.07821729779243469,0.15275141596794128,0.016660578548908234
1733901978696230000,7.89622998046875,0.07278641313314438,0.1601114422082901,0.03361573815345764
1733901978706257000,7.9062568359375,0.07033257186412811,0.16947218775749207,0.045795172452926636
1733901978716284200,7.9162841796875,0.07865121215581894,0.17440326511859894,0.04787956550717354
1733901978726310000,7.926309814453125,0.08979760110378265,0.17277447879314423,0.039676230400800705
1733901978736337000,7.9363369140625,0.09872765839099884,0.15824365615844727,0.026527386158704758
1733901978746364000,7.946364013671875,0.10287206619977951,0.13466084003448486,0.008648521266877651
1733901978756391200,7.95639111328125,0.10161901265382767,0.10365927219390869,-0.011216554790735245
1733901978766417200,7.966417236328125,0.09359651058912277,0.05961458012461662,-0.029530314728617668
1733901978776444000,7.97644384765625,0.0786990076303482,0.008448746055364609,-0.04520174115896225
1733901978786471000,7.986470947265625,0.06144119054079056,-0.042841337621212006,-0.0550711490213871
1733901978796498200,7.996498291015625,0.04529291018843651,-0.08126268535852432,-0.057406459003686905
1733901978806524200,8.006524169921875,0.022841395810246468,-0.11695677042007446,-0.05874629691243172
1733901978816551000,8.016551025390624,0.009920407086610794,-0.13250085711479187,-0.05755113437771797
1733901978826578000,8.026577880859374,0.008858071640133858,-0.12415905296802521,-0.06062149628996849
1733901978836605200,8.036605224609374,0.011117823421955109,-0.1058124527335167,-0.06296452134847641
1733901978846631200,8.046631103515624,0.008435487747192383,-0.08463659882545471,-0.0722736045718193
1733901978856658000,8.056657958984376,0.0070243217051029205,-0.06408033519983292,-0.07812238484621048
1733901978866685000,8.066684814453126,0.007265870459377766,-0.04592264071106911,-0.08170593529939651
1733901978876712200,8.076712158203126,0.00958368182182312,-0.03189702332019806,-0.07995887845754623
1733901978886738200,8.08673828125,0.020070943981409073,-0.02449849620461464,-0.07596040517091751
1733901978896765000,8.096764892578125,0.025413457304239273,-0.01795531064271927,-0.07238350808620453
1733901978906792000,8.1067919921875,0.0282830148935318,-0.017261290922760963,-0.06784654408693314
1733901978916818000,8.11681787109375,0.031187063083052635,-0.02084466442465782,-0.06622058898210526
1733901978926845200,8.12684521484375,0.02855798974633217,-0.026534508913755417,-0.06899666786193848
1733901978936872000,8.136871826171875,0.019773464649915695,-0.03175841644406319,-0.0698237195611
1733901978946899000,8.14689892578125,0.010522972792387009,-0.036629337817430496,-0.07518546283245087
1733901978956925000,8.156925048828125,0.0060448539443314075,-0.043384261429309845,-0.08453947305679321
1733901978966952200,8.1669521484375,0.00526268407702446,-0.040744535624980927,-0.08845112472772598
1733901978976979000,8.17697900390625,0.008209987543523312,-0.03878340497612953,-0.08907756954431534
1733901978987006000,8.187005859375,0.01642131246626377,-0.0390864722430706,-0.08711748570203781
1733901978997032000,8.197031982421874,0.023128148168325424,-0.035849615931510925,-0.08492255210876465
1733901979007059200,8.20705908203125,0.025598496198654175,-0.03708159551024437,-0.08366953581571579
1733901979017086000,8.2170859375,0.016625387594103813,-0.0326756127178669,-0.07778062671422958
1733901979027113000,8.227113037109374,0.005986325442790985,-0.01806178316473961,-0.06829364597797394
1733901979037139000,8.237138916015626,0.006048350594937801,0.014729352667927742,-0.05648038908839226
1733901979047166000,8.247166015625,0.013887631706893444,0.05607306584715843,-0.04637768864631653
1733901979057193000,8.25719287109375,0.025804633274674416,0.08983547985553741,-0.033187154680490494
1733901979067220000,8.267219970703126,0.03201192617416382,0.11772170662879944,-0.01938718929886818
1733901979077246000,8.277245849609375,0.031853560358285904,0.14559698104858398,-0.00439827423542738
1733901979087273000,8.28727294921875,0.025673693045973778,0.15763527154922485,0.009835523553192616
1733901979097300000,8.297300048828125,0.022746313363313675,0.15535244345664978,0.020204514265060425
1733901979107327000,8.307326904296875,0.015655381605029106,0.13996762037277222,0.023619219660758972
1733901979117353000,8.31735302734375,0.015905844047665596,0.11293337494134903,0.02570694126188755
1733901979127380000,8.3273798828125,0.015703709796071053,0.08948477357625961,0.024584684520959854
1733901979137407000,8.337406982421875,0.013752102851867676,0.06056671589612961,0.0202772319316864
1733901979147433000,8.347432861328125,0.0027047786861658096,0.033160123974084854,0.01268562488257885
1733901979157460000,8.3574599609375,-0.009191932156682014,0.007350436411798,-0.0011634191032499075
1733901979167487000,8.367487060546875,-0.02830597199499607,-0.014588152058422565,-0.013310362584888935
1733901979177514000,8.377513916015625,-0.050846368074417114,-0.04011867567896843,-0.02397913485765457
1733901979187540000,8.3875400390625,-0.07024723291397095,-0.06829811632633209,-0.023333851248025894
1733901979197567000,8.39756689453125,-0.08203188329935074,-0.09886674582958221,-0.01195595320314169
1733901979207594000,8.407593994140624,-0.08696378767490387,-0.12305304408073425,0.011750174686312675
1733901979217621000,8.41762109375,-0.08638466149568558,-0.15110890567302704,0.037850309163331985
1733901979227647000,8.42764697265625,-0.08082345128059387,-0.18900275230407715,0.06397458910942078
1733901979237674000,8.437674072265626,-0.06853917986154556,-0.22444655001163483,0.08278392255306244
1733901979247701000,8.447700927734376,-0.06201789900660515,-0.24925336241722107,0.09241897612810135
1733901979257727700,8.457727783203126,-0.0571003258228302,-0.26707884669303894,0.10096537321805954
1733901979267754000,8.46775390625,-0.05762523412704468,-0.2680296003818512,0.10149294883012772
1733901979277781000,8.477781005859375,-0.07040142267942429,-0.2723567485809326,0.08913592994213104
1733901979287808000,8.48780810546875,-0.07216096669435501,-0.26484209299087524,0.07401823252439499
1733901979297834800,8.497834716796875,-0.06347426772117615,-0.25707578659057617,0.0545894056558609
1733901979307861000,8.507861083984375,-0.049786683171987534,-0.2503156363964081,0.035837288945913315
1733901979317888000,8.517887939453125,-0.03420885652303696,-0.24151915311813354,0.01685875467956066
1733901979327915000,8.5279150390625,-0.023300550878047943,-0.23087236285209656,-0.002062471117824316
1733901979337941800,8.537941650390625,-0.015634452924132347,-0.21668261289596558,-0.01433759368956089
1733901979347967700,8.5479677734375,-0.013406186364591122,-0.19701623916625977,-0.01879705674946308
1733901979357995000,8.5579951171875,-0.011945142410695553,-0.17730699479579926,-0.017909133806824684
1733901979368022000,8.56802197265625,-0.01773192547261715,-0.16246414184570312,-0.00946451723575592
1733901979378049000,8.578049072265625,-0.025048496201634407,-0.15249773859977722,0.0024091373197734356
1733901979388074800,8.58807470703125,-0.034360505640506744,-0.1557643711566925,0.016690071672201157
1733901979398102000,8.59810205078125,-0.041966214776039124,-0.16723260283470154,0.02713635191321373
1733901979408129000,8.60812890625,-0.050517093390226364,-0.18422889709472656,0.03422461822628975
1733901979418155000,8.618155029296876,-0.06446794420480728,-0.21853744983673096,0.0358893983066082
1733901979428181800,8.628181640625,-0.08301739394664764,-0.2577570378780365,0.029974253848195076
1733901979438209000,8.638208984375,-0.09195195138454437,-0.2844637632369995,0.016528066247701645
1733901979448236000,8.648236083984376,-0.09315383434295654,-0.29768529534339905,0.003972325474023819
1733901979458262000,8.658261962890625,-0.09383425861597061,-0.3010404706001282,-0.009293381124734879
1733901979468289000,8.6682890625,-0.08664452284574509,-0.29416364431381226,-0.022609185427427292
1733901979478316000,8.67831591796875,-0.08133096247911453,-0.2809170186519623,-0.031192028895020485
1733901979488343000,8.688343017578125,-0.07782251387834549,-0.25925537943840027,-0.03289112448692322
1733901979498369000,8.698369140625,-0.07312753796577454,-0.23378518223762512,-0.02475239336490631
1733901979508396000,8.70839599609375,-0.07192805409431458,-0.218776673078537,-0.01589818112552166
1733901979518423000,8.718423095703125,-0.07573498040437698,-0.2139102965593338,-0.004609487950801849
1733901979528450000,8.728449951171875,-0.07989537715911865,-0.21230147778987885,0.0032178086694329977
1733901979538476000,8.73847607421875,-0.08300328254699707,-0.21419231593608856,0.005369642749428749
1733901979548503000,8.7485029296875,-0.07885860651731491,-0.21492256224155426,0.0039648255333304405
1733901979558530000,8.758530029296875,-0.06840302050113678,-0.21013183891773224,0.0015394478105008602
1733901979568557000,8.76855712890625,-0.06058531254529953,-0.1985742598772049,-0.0029852630104869604
1733901979578583000,8.7785830078125,-0.04761974886059761,-0.17463694512844086,-0.009119613096117973
1733901979588610000,8.788610107421874,-0.03358222544193268,-0.1474628448486328,-0.016154618933796883
1733901979598636800,8.79863671875,-0.021308163180947304,-0.12418604642152786,-0.017228560522198677
1733901979608664000,8.8086640625,-0.021791527047753334,-0.1154644638299942,-0.021550871431827545
1733901979618690000,8.81868994140625,-0.03578197956085205,-0.11888710409402847,-0.02182762324810028
1733901979628716800,8.828716796875,-0.036111678928136826,-0.11088696867227554,-0.019143689423799515
1733901979638743600,8.83874365234375,-0.024391580373048782,-0.09524081647396088,-0.00836266204714775
1733901979648770600,8.8487705078125,-0.0030780360102653503,-0.07895292341709137,0.009165997616946697
1733901979658796500,8.858796630859375,0.017701799049973488,-0.06788000464439392,0.02873361110687256
1733901979668823800,8.86882373046875,0.03638014569878578,-0.06944913417100906,0.04762661084532738
1733901979678850600,8.8788505859375,0.04163071885704994,-0.07137499749660492,0.0588843859732151
1733901979688876500,8.88887646484375,0.04150315374135971,-0.07082505524158478,0.06213131174445152
1733901979698903600,8.898903564453125,0.04176322743296623,-0.0656326413154602,0.05809328705072403
1733901979708930600,8.9089306640625,0.045094043016433716,-0.06998824328184128,0.049034278839826584
1733901979718957600,8.91895751953125,0.046767041087150574,-0.07578340172767639,0.04227707162499428
1733901979728983600,8.928983642578125,0.038058243691921234,-0.09336159378290176,0.035286806523799896
1733901979739010600,8.939010498046875,0.009352834895253181,-0.12591087818145752,0.03230090066790581
1733901979749037600,8.94903759765625,-0.013075241819024086,-0.15409697592258453,0.026942091062664986
1733901979759064600,8.959064697265624,-0.01814023032784462,-0.16549253463745117,0.029036745429039
1733901979769090600,8.969090576171874,-0.013573708944022655,-0.155957892537117,0.03163519129157066
1733901979779117600,8.97911767578125,-0.007137835957109928,-0.13758021593093872,0.04298466816544533
1733901979789144600,8.98914453125,-0.00043306197039783,-0.11782380938529968,0.05797693133354187
1733901979799171600,8.999171630859376,0.005697311367839575,-0.10137273371219635,0.07205758988857269
1733901979809197600,9.009197509765626,0.01043800450861454,-0.08583398908376694,0.08486286550760269
1733901979819224600,9.019224609375,0.01567799784243107,-0.07729201018810272,0.0943114385008812
1733901979829251600,9.02925146484375,0.0173022598028183,-0.06744204461574554,0.10404901951551437
1733901979839278600,9.039278564453125,0.021678820252418518,-0.048608001321554184,0.1134970411658287
1733901979849304600,9.0493046875,0.02115337923169136,-0.02089248225092888,0.1254599541425705
1733901979859331600,9.05933154296875,0.018140923231840134,0.006325096357613802,0.1388901025056839
1733901979869358600,9.069358642578125,0.012739500030875206,0.03295670822262764,0.14878109097480774
1733901979879385600,9.079385498046875,0.003439882304519415,0.04795879125595093,0.1606568545103073
1733901979889411600,9.08941162109375,-0.003986608237028122,0.054215092211961746,0.1647903472185135
1733901979899438600,9.0994384765625,-0.0003194469027221203,0.03355361148715019,0.16557888686656952
1733901979909465600,9.109465576171875,0.009401889517903328,0.0006659706123173237,0.1608152836561203
1733901979919492600,9.11949267578125,0.021155862137675285,-0.03108895570039749,0.155705064535141
1733901979929518600,9.1295185546875,0.03209106624126434,-0.054096538573503494,0.15695887804031372
1733901979939545600,9.139545654296874,0.04166550189256668,-0.06738843768835068,0.16420114040374756
1733901979949572600,9.149572509765624,0.03799512982368469,-0.07690231502056122,0.17379918694496155
1733901979959598600,9.1595986328125,0.029994362965226173,-0.0816943421959877,0.18166795372962952
1733901979969625600,9.16962548828125,0.019525742158293724,-0.07840614020824432,0.18017259240150452
1733901979979652600,9.179652587890626,0.008353084325790405,-0.08125977963209152,0.1713797003030777
1733901979989679600,9.1896796875,0.001542849000543356,-0.08253517001867294,0.15907002985477448
1733901979999705600,9.19970556640625,-0.005741332191973925,-0.08018055558204651,0.14891527593135834
1733901980009732600,9.209732666015626,-0.026534760370850563,-0.09311020374298096,0.1387004554271698
1733901980019759600,9.219759521484375,-0.03917676582932472,-0.11410273611545563,0.13586951792240143
1733901980029786600,9.22978662109375,-0.043954476714134216,-0.13793589174747467,0.14265310764312744
1733901980039812600,9.2398125,-0.04408570006489754,-0.15852093696594238,0.1553248167037964
1733901980049839600,9.249839599609375,-0.04644419625401497,-0.17419762909412384,0.17030642926692963
1733901980059866600,9.25986669921875,-0.05187474936246872,-0.17936134338378906,0.17723849415779114
1733901980069893600,9.2698935546875,-0.06155321002006531,-0.17537592351436615,0.17253561317920685
1733901980079919600,9.279919677734375,-0.072252556681633,-0.17058296501636505,0.15176048874855042
1733901980089946600,9.289946533203125,-0.07771044224500656,-0.16367393732070923,0.11683819442987442
1733901980099973600,9.2999736328125,-0.0776454359292984,-0.16157977283000946,0.07940000295639038
1733901980110000600,9.310000732421875,-0.07887661457061768,-0.17518027126789093,0.04045313596725464
1733901980120026600,9.320026611328124,-0.0751778706908226,-0.20148667693138123,0.005759734660387039
1733901980130053600,9.3300537109375,-0.0784868523478508,-0.2317788004875183,-0.023015720769762993
1733901980140080600,9.34008056640625,-0.09042181074619293,-0.2623433470726013,-0.03980481997132301
1733901980150107600,9.350107666015624,-0.11004983633756638,-0.30551666021347046,-0.04746992886066437
1733901980160133600,9.360133544921876,-0.14102350175380707,-0.34680721163749695,-0.049769096076488495
1733901980170160600,9.37016064453125,-0.17307332158088684,-0.38466590642929077,-0.0540597140789032
1733901980180187600,9.380187744140626,-0.20416036248207092,-0.4141029417514801,-0.05551271140575409
1733901980190214700,9.390214599609376,-0.23139864206314087,-0.43421274423599243,-0.059153784066438675
1733901980200240600,9.40024072265625,-0.24511215090751648,-0.43259063363075256,-0.06592117995023727
1733901980210267600,9.410267578125,-0.24829091131687164,-0.409089595079422,-0.07522226870059967
1733901980220294700,9.420294677734375,-0.22908857464790344,-0.3775804936885834,-0.09004320204257965
1733901980230321700,9.43032177734375,-0.19473406672477722,-0.3456563651561737,-0.11142119020223618
1733901980240347600,9.44034765625,-0.14816290140151978,-0.3380327820777893,-0.13163650035858154
1733901980250374700,9.450374755859375,-0.1010582447052002,-0.3394583761692047,-0.14844930171966553
1733901980260401400,9.4604013671875,-0.07272064685821533,-0.34122416377067566,-0.15900106728076935
1733901980270428700,9.4704287109375,-0.05955078825354576,-0.34484365582466125,-0.16591383516788483
1733901980280454700,9.48045458984375,-0.06594932824373245,-0.3560957610607147,-0.16508536040782928
1733901980290481700,9.490481689453125,-0.08908234536647797,-0.3737293481826782,-0.15672409534454346
1733901980300508400,9.50050830078125,-0.11781146377325058,-0.3822652995586395,-0.13362117111682892
1733901980310534700,9.51053466796875,-0.13618923723697662,-0.3913796544075012,-0.10272032022476196
1733901980320561700,9.520561767578124,-0.1425703912973404,-0.38887152075767517,-0.07114509493112564
1733901980330588700,9.530588623046874,-0.13611622154712677,-0.380139023065567,-0.04223727807402611
1733901980340615400,9.540615478515624,-0.12937591969966888,-0.35724011063575745,-0.021625835448503494
1733901980350641400,9.550641357421876,-0.1189243495464325,-0.3334519565105438,-0.008741462603211403
1733901980360668700,9.560668701171876,-0.11289983242750168,-0.31932786107063293,-0.011011919006705284
1733901980370695700,9.57069580078125,-0.1085498258471489,-0.3099391460418701,-0.020955096930265427
1733901980380722400,9.580722412109376,-0.10235095024108887,-0.3067692518234253,-0.033335525542497635
1733901980390748400,9.59074853515625,-0.09933066368103027,-0.3081112205982208,-0.03937504440546036
1733901980400775700,9.600775634765625,-0.10845854878425598,-0.3095954358577728,-0.04044125974178314
1733901980410802700,9.610802734375,-0.12280286848545074,-0.308908075094223,-0.033240072429180145
1733901980420829400,9.620829345703125,-0.1442713439464569,-0.3048175275325775,-0.015504435636103153
1733901980430855400,9.63085546875,-0.16810451447963715,-0.2991580367088318,0.00879291445016861
1733901980440882700,9.640882568359375,-0.18599329888820648,-0.2928635776042938,0.03658508136868477
1733901980450909700,9.65090966796875,-0.19958101212978363,-0.3019289970397949,0.055445585399866104
1733901980460936400,9.6609365234375,-0.20405448973178864,-0.3052334785461426,0.07081719487905502
1733901980470962400,9.67096240234375,-0.19944509863853455,-0.3028619587421417,0.07182387262582779
1733901980480989700,9.68098974609375,-0.1932791769504547,-0.2982815206050873,0.06346143782138824
1733901980491016700,9.6910166015625,-0.18162038922309875,-0.28398168087005615,0.04644276946783066
1733901980501043500,9.70104345703125,-0.16884762048721313,-0.2667809724807739,0.024282613769173622
1733901980511069400,9.7110693359375,-0.1526300460100174,-0.24619072675704956,0.011223005130887032
1733901980521096700,9.7210966796875,-0.1344834417104721,-0.21108795702457428,0.0028697457164525986
1733901980531123700,9.731123779296874,-0.11362262815237045,-0.18012605607509613,-0.0018688167911022902
1733901980541150500,9.741150390625,-0.09654361754655838,-0.15303471684455872,-0.001298174960538745
1733901980551176400,9.751176513671876,-0.08322568237781525,-0.13134673237800598,0.0020869688596576452
1733901980561203700,9.76120361328125,-0.07141263782978058,-0.11082006990909576,0.012262659147381783
1733901980571230700,9.771230712890626,-0.06293392926454544,-0.10020444542169571,0.025329992175102234
1733901980581257500,9.781257568359376,-0.06001885235309601,-0.0945073664188385,0.039388056844472885
1733901980591283500,9.791283447265625,-0.05936530977487564,-0.09221544861793518,0.04826730117201805
1733901980601310500,9.801310546875,-0.05698771774768829,-0.09351037442684174,0.0561741478741169
1733901980611337700,9.811337646484375,-0.05239855870604515,-0.10155152529478073,0.0623880997300148
1733901980621364500,9.821364501953125,-0.04825226217508316,-0.1111530065536499,0.06697439402341843
1733901980631391000,9.831390869140625,-0.04143217206001282,-0.10038238018751144,0.07508877664804459
1733901980641418000,9.84141796875,-0.0424981527030468,-0.07284697890281677,0.08106119185686111
1733901980651445000,9.851445068359375,-0.0661558136343956,-0.040301285684108734,0.0840897411108017
1733901980661471000,9.861470947265625,-0.08173210173845291,-0.019830754026770592,0.0856112390756607
1733901980671498000,9.871498046875,-0.08337261527776718,-0.008379161357879639,0.08533266931772232
1733901980681525000,9.88152490234375,-0.07188798487186432,0.0034368932247161865,0.08487064391374588
1733901980691552000,9.891552001953125,-0.05361736938357353,0.011282299645245075,0.08214942365884781
1733901980701578000,9.901577880859374,-0.03000676818192005,0.007861033082008362,0.0822906568646431
1733901980711605000,9.91160498046875,-0.007797070778906345,-0.010221831500530243,0.08145149797201157
1733901980721632000,9.921632080078124,0.006905210204422474,-0.03475090116262436,0.08671418577432632
1733901980731659000,9.931658935546874,0.019378390163183212,-0.05756726115942001,0.09841664880514145
1733901980741685000,9.94168505859375,0.021628109738230705,-0.07572118192911148,0.1129017099738121
1733901980751712000,9.9517119140625,0.01900329813361168,-0.09775751084089279,0.1211111769080162
1733901980761739000,9.961739013671876,0.015531687065958977,-0.11904072016477585,0.12313076108694077
1733901980771766000,9.97176611328125,0.011955861002206802,-0.14718686044216156,0.11944202333688736
1733901980781792000,9.9817919921875,0.008143236860632896,-0.15538713335990906,0.10743562877178192
1733901980791819000,9.991819091796875,0.006982364226132631,-0.1600564420223236,0.09368306398391724
1733901980801846000,10.001845947265625,0.0044618151150643826,-0.17146748304367065,0.08102922141551971
1733901980811873000,10.011873046875,0.004410682246088982,-0.187827005982399,0.07016885280609131
1733901980821899000,10.02189892578125,0.0032605535816401243,-0.212052121758461,0.06333842128515244
1733901980831925800,10.03192578125,-0.00022019795142114162,-0.2329331785440445,0.061528272926807404
1733901980841953000,10.041953125,-0.0003803044091910124,-0.24632753431797028,0.06543423980474472
1733901980851980000,10.05197998046875,0.0011760469060391188,-0.24646149575710297,0.07575718313455582
1733901980862006000,10.062006103515625,-0.0027787983417510986,-0.24122539162635803,0.08136101812124252
1733901980872032800,10.07203271484375,0.0030138432048261166,-0.24146027863025665,0.08374934643507004
1733901980882060000,10.08206005859375,0.014311505481600761,-0.2403031438589096,0.08150909096002579
1733901980892087000,10.092087158203125,0.026131944730877876,-0.23777686059474945,0.07481896877288818
1733901980902113000,10.102113037109374,0.03659626841545105,-0.2276805341243744,0.06659536808729172
1733901980912139800,10.112139892578124,0.04672001302242279,-0.22642672061920166,0.053762394934892654
1733901980922167000,10.1221669921875,0.05678596720099449,-0.23370957374572754,0.040107499808073044
1733901980932194000,10.132194091796874,0.06811452656984329,-0.24544958770275116,0.026690494269132614
1733901980942220000,10.142219970703126,0.07448256760835648,-0.24599707126617432,0.0188418198376894
1733901980952246800,10.152246826171876,0.08156071603298187,-0.2417764961719513,0.01673472672700882
1733901980962274000,10.162274169921876,0.08706581592559814,-0.23388278484344482,0.02085338532924652
1733901980972301000,10.172301025390626,0.0882895439863205,-0.23807139694690704,0.034904222935438156
1733901980982327000,10.1823271484375,0.08191899210214615,-0.2444922775030136,0.05215112119913101
1733901980992353800,10.192353759765625,0.0698801726102829,-0.25618383288383484,0.07072480767965317
1733901981002381000,10.202381103515625,0.05816420540213585,-0.2708532214164734,0.09108635038137436
1733901981012407000,10.212406982421875,0.04829932376742363,-0.2911941707134247,0.10233847051858902
1733901981022434000,10.22243408203125,0.04024379327893257,-0.3113550841808319,0.11099081486463547
1733901981032460800,10.232460693359375,0.03631749376654625,-0.3263726532459259,0.11199428886175156
1733901981042487800,10.24248779296875,0.029472695663571358,-0.3120148479938507,0.11469019949436188
1733901981052514000,10.25251416015625,0.02696399949491024,-0.29800182580947876,0.11769397556781769
1733901981062541000,10.262541015625,0.019459497183561325,-0.2720147967338562,0.11254271864891052
1733901981072568000,10.272568115234375,0.011966426856815815,-0.24533817172050476,0.10526323318481445
1733901981082594800,10.2825947265625,0.008230733685195446,-0.22205878794193268,0.09811682254076004
1733901981092621000,10.29262109375,0.00785815715789795,-0.20065443217754364,0.08938431739807129
1733901981102648000,10.30264794921875,0.010320215485990047,-0.1892520785331726,0.08193304389715195
1733901981112675000,10.312675048828124,0.01849798485636711,-0.17648275196552277,0.07344714552164078
1733901981122701800,10.322701904296874,0.025229699909687042,-0.16091139614582062,0.06106030195951462
1733901981132727800,10.332727783203126,0.03220505267381668,-0.14855273067951202,0.05249398201704025
1733901981142755000,10.342755126953126,0.03222294896841049,-0.13782712817192078,0.04252239316701889
1733901981152782000,10.352781982421876,0.030061796307563782,-0.13321664929389954,0.03378509730100632
1733901981162808800,10.362808837890626,0.02744220197200775,-0.1330384910106659,0.023360509425401688
1733901981172834800,10.372834716796875,0.026094110682606697,-0.14500300586223602,0.019424356520175934
1733901981182862000,10.382862060546875,0.02733442932367325,-0.17086924612522125,0.02629036456346512
1733901981192889000,10.39288916015625,0.031233295798301697,-0.19919010996818542,0.038125187158584595
1733901981202915800,10.402915771484375,0.04808162897825241,-0.23374348878860474,0.05845293402671814
1733901981212941800,10.41294189453125,0.05913907289505005,-0.2426629364490509,0.08503847569227219
1733901981222969000,10.422968994140625,0.07154297083616257,-0.2313680648803711,0.10786916315555573
1733901981232996000,10.43299609375,0.07707968354225159,-0.23680225014686584,0.12064941227436066
1733901981243022800,10.44302294921875,0.07750815153121948,-0.2598329484462738,0.12033246457576752
1733901981253048800,10.453048828125,0.06330045312643051,-0.29034292697906494,0.11055440455675125
1733901981263076000,10.463076171875,0.04498128220438957,-0.3112620413303375,0.0886993333697319
1733901981273103000,10.47310302734375,0.02931523695588112,-0.3087834417819977,0.06661613285541534
1733901981283129900,10.4831298828125,0.01843058504164219,-0.29278290271759033,0.05088288336992264
1733901981293155800,10.49315576171875,0.015240916982293129,-0.275027871131897,0.03932769596576691
1733901981303183000,10.50318310546875,0.022289106622338295,-0.25469970703125,0.03194135054945946
1733901981313210000,10.513210205078124,0.029285497963428497,-0.24891027808189392,0.02396385371685028
1733901981323236900,10.52323681640625,0.028958184644579887,-0.22680725157260895,0.015882458537817
1733901981333262800,10.533262939453126,0.022872861474752426,-0.20172853767871857,0.0031035467982292175
1733901981343290000,10.5432900390625,0.023903850466012955,-0.1877625435590744,-0.007519455626606941
1733901981353317000,10.553317138671876,0.02526365965604782,-0.19054102897644043,-0.019349483773112297
1733901981363344000,10.56334375,0.024902375414967537,-0.19025768339633942,-0.025476977229118347
1733901981373369900,10.573369873046875,0.024767352268099785,-0.1840921938419342,-0.028548134490847588
1733901981383396900,10.58339697265625,0.041428834199905396,-0.19660398364067078,-0.02558518759906292
1733901981393424100,10.593424072265625,0.04138915240764618,-0.17748381197452545,-0.017615679651498795
1733901981403450000,10.6034501953125,0.04077548161149025,-0.16587518155574799,-0.00815887376666069
1733901981413476900,10.613476806640625,0.04224661365151405,-0.17500875890254974,-0.00569065660238266
1733901981423504000,10.62350390625,0.0402476005256176,-0.19052286446094513,-0.005849703215062618
1733901981433531100,10.63353125,0.033968664705753326,-0.21082574129104614,-0.008198078721761703
1733901981443557000,10.64355712890625,0.033042583614587784,-0.2265540361404419,-0.013085319660604
1733901981453584000,10.653583984375,0.013016676530241966,-0.2533353269100189,-0.01798340491950512
1733901981463611000,10.66361083984375,-0.000286612194031477,-0.26674434542655945,-0.022949134930968285
1733901981473638100,10.67363818359375,-0.00695356959477067,-0.24767529964447021,-0.025537993758916855
1733901981483664100,10.6836640625,-0.010844439268112183,-0.24600008130073547,-0.03428042307496071
1733901981493691000,10.69369091796875,-0.011136054992675781,-0.24279896914958954,-0.04413864389061928
1733901981503718000,10.7037177734375,-0.013664236292243004,-0.2342502921819687,-0.055376339703798294
1733901981513745200,10.7137451171875,-0.014855202287435532,-0.22610048949718475,-0.06208084896206856
1733901981523771100,10.723771240234376,-0.009224928915500641,-0.2433093786239624,-0.07188659906387329
1733901981533798000,10.7337978515625,-0.008838503621518612,-0.2380690723657608,-0.07450155913829803
1733901981543825000,10.743824951171876,-0.009573476389050484,-0.22475899755954742,-0.0771574079990387
1733901981553852200,10.75385205078125,-0.0041387639939785,-0.20821170508861542,-0.06598784029483795
1733901981563878100,10.763878173828125,0.002596361329779029,-0.1966654509305954,-0.05433095246553421
1733901981573905000,10.77390478515625,0.00827075820416212,-0.19372159242630005,-0.04002285376191139
1733901981583932000,10.783931884765625,0.011256027035415173,-0.19317927956581116,-0.030120255425572395
1733901981593959200,10.793959228515625,0.0067116087302565575,-0.19601155817508698,-0.025899143889546394
1733901981603985200,10.803985107421875,0.0015083695761859417,-0.20108981430530548,-0.022806093096733093
1733901981614012000,10.814011962890625,0.00223514623939991,-0.21703869104385376,-0.023365890607237816
1733901981624039000,10.824038818359375,0.00684745330363512,-0.22610729932785034,-0.026570532470941544
1733901981634065700,10.834065673828125,0.012734104879200459,-0.22695152461528778,-0.02409539185464382
1733901981644092000,10.844091796875,0.023131482303142548,-0.22125333547592163,-0.022331148386001587
1733901981654118700,10.85411865234375,0.028911609202623367,-0.2177845686674118,-0.019678104668855667
1733901981664145700,10.864145751953124,0.031450510025024414,-0.24961645901203156,-0.017301661893725395
1733901981674172700,10.874172607421874,0.017333893105387688,-0.2450382262468338,-0.012249911203980446
1733901981684198700,10.88419873046875,0.009045304730534554,-0.22406712174415588,-0.007452251389622688
1733901981694225700,10.8942255859375,0.007920384407043457,-0.21044106781482697,-0.004399203695356846
1733901981704252700,10.904252685546876,0.011580904945731163,-0.198454350233078,-0.0004918819759041071
1733901981714279700,10.91427978515625,0.0180680975317955,-0.20461104810237885,-0.003017623908817768
1733901981724305700,10.9243056640625,0.01908785104751587,-0.18620100617408752,-0.003912086598575115
1733901981734332700,10.934332763671875,0.01607608236372471,-0.1573200821876526,-0.009511915035545826
1733901981744359700,10.944359619140625,0.01582128368318081,-0.14360962808132172,-0.019104838371276855
1733901981754386700,10.95438671875,0.01002012100070715,-0.14319337904453278,-0.027240794152021408
1733901981764412700,10.96441259765625,0.007816310971975327,-0.1442534476518631,-0.033492352813482285
1733901981774440000,10.97443994140625,-0.00012017483823001385,-0.1406635046005249,-0.03028031624853611
1733901981784466700,10.984466796875,-0.0014612216036766768,-0.13944782316684723,-0.016324417665600777
1733901981794493700,10.99449365234375,-0.0006867743795737624,-0.13550235331058502,0.0024194433353841305
1733901981804519700,11.004519775390625,-0.0019176625646650791,-0.13200286030769348,0.01583697460591793
1733901981814547000,11.014546875,0.006105110049247742,-0.1349610984325409,0.030178362503647804
1733901981824573700,11.02457373046875,0.006923387758433819,-0.12893417477607727,0.04001570865511894
1733901981834599700,11.034599609375,0.012598318047821522,-0.12148849666118622,0.0539669468998909
1733901981844626700,11.044626708984374,0.011227842420339584,-0.11125367134809494,0.06838826835155487
1733901981854654000,11.054654052734374,0.007839236408472061,-0.10005268454551697,0.08475818485021591
1733901981864680700,11.0646806640625,0.004975087940692902,-0.09115540981292725,0.09997203201055527
1733901981874706700,11.074706787109376,-0.00400136224925518,-0.08780914545059204,0.11263829469680786
1733901981884733700,11.084733642578126,-0.006288639269769192,-0.09500360488891602,0.1259254366159439
1733901981894761000,11.094760986328126,-0.0032305314671248198,-0.10149692744016647,0.14216698706150055
1733901981904787700,11.10478759765625,0.0045175859704613686,-0.12944458425045013,0.155805304646492
1733901981914813700,11.114813720703125,-0.00007237237878143787,-0.1432778388261795,0.16779565811157227
1733901981924840700,11.1248408203125,-0.010533323511481285,-0.1410093605518341,0.1684059500694275
1733901981934867700,11.13486767578125,-0.013545891270041466,-0.15354539453983307,0.16396167874336243
1733901981944894700,11.144894775390625,-0.010228914208710194,-0.1754169911146164,0.15612322092056274
1733901981954920700,11.154920654296875,-0.004775026347488165,-0.18626724183559418,0.15451973676681519
1733901981964947700,11.16494775390625,-0.007793941535055637,-0.1765228807926178,0.15594644844532013
1733901981974974700,11.174974609375,-0.012947157956659794,-0.14461848139762878,0.15847112238407135
1733901981985001700,11.185001708984375,-0.01833578385412693,-0.12247219681739807,0.15338605642318726
1733901981995027700,11.19502783203125,-0.017688635736703873,-0.125055730342865,0.14094136655330658
1733901982005054700,11.2050546875,-0.014974125660955906,-0.14237374067306519,0.13167107105255127
1733901982015081700,11.215081787109375,-0.004777148365974426,-0.16990789771080017,0.11528784781694412
1733901982025108700,11.225108642578125,-0.01277435477823019,-0.14759433269500732,0.10747892409563065
1733901982035134700,11.235134765625,-0.01960695907473564,-0.12460698932409286,0.10244528204202652
1733901982045161700,11.24516162109375,-0.01687716133892536,-0.13020934164524078,0.10107307136058807
1733901982055188700,11.255188720703124,-0.015082458034157753,-0.11250811070203781,0.10369575023651123
1733901982065215700,11.2652158203125,-0.019694296643137932,-0.08037691563367844,0.10570638626813889
1733901982075241700,11.27524169921875,-0.016602899879217148,-0.07974601536989212,0.10298196971416473
1733901982085268700,11.285268798828126,-0.02010832168161869,-0.09072797745466232,0.09758441895246506
1733901982095295700,11.295295654296876,-0.02432037703692913,-0.0945884957909584,0.08725588023662567
1733901982105322800,11.30532275390625,-0.023244556039571762,-0.11416337639093399,0.07391329854726791
1733901982115348700,11.3153486328125,-0.012000691145658493,-0.12415449321269989,0.06658481806516647
1733901982125375700,11.325375732421875,0.00990134384483099,-0.12706820666790009,0.063168466091156
1733901982135402800,11.33540283203125,0.009587623178958893,-0.11660998314619064,0.0673522874712944
1733901982145429500,11.345429443359375,0.0026784066576510668,-0.07762665301561356,0.06541255116462708
1733901982155455700,11.355455810546875,-0.009206215851008892,-0.05827240273356438,0.05708618089556694
1733901982165482800,11.365482666015625,-0.017236489802598953,-0.05327163636684418,0.04654586315155029
1733901982175509800,11.375509765625,-0.021277302876114845,-0.0633666142821312,0.042592134326696396
1733901982185536500,11.38553662109375,-0.022871283814311028,-0.06316244602203369,0.04015473276376724
1733901982195562800,11.395562744140625,-0.03377106785774231,-0.04584044963121414,0.03166297823190689
1733901982205589800,11.40558984375,-0.03919510543346405,-0.042714860290288925,0.02628924325108528
1733901982215616800,11.41561669921875,-0.03580596670508385,-0.046215321868658066,0.022641511633992195
1733901982225643500,11.4256435546875,-0.029895620420575142,-0.055820152163505554,0.024080388247966766
1733901982235669500,11.43566943359375,-0.012884413823485374,-0.08095639944076538,0.027427181601524353
1733901982245696800,11.44569677734375,-0.008753633126616478,-0.0855255201458931,0.03497832268476486
1733901982255723800,11.455723876953124,-0.008029254153370857,-0.07770274579524994,0.040113963186740875
1733901982265750500,11.46575048828125,-0.006394039373844862,-0.07374851405620575,0.040714796632528305
1733901982275776500,11.475776611328126,-0.0016514823073521256,-0.09079567342996597,0.03676426410675049
1733901982285803800,11.4858037109375,0.001102004200220108,-0.10115205496549606,0.027838466688990593
1733901982295830800,11.495830810546876,0.0014383613597601652,-0.12090418487787247,0.014586844481527805
1733901982305857500,11.505857421875,0.004003163892775774,-0.1327594816684723,0.00508404104039073
1733901982315883500,11.515883544921875,-0.007422596216201782,-0.13216640055179596,-0.0128366369754076
1733901982325910800,11.525910888671875,-0.012631705962121487,-0.15702223777770996,-0.03508119657635689
1733901982335937800,11.535937744140625,-0.017338842153549194,-0.16500452160835266,-0.056795813143253326
1733901982345963800,11.5459638671875,-0.020447608083486557,-0.16118216514587402,-0.07203097641468048
1733901982355990500,11.555990478515625,-0.008563516661524773,-0.1619614064693451,-0.08563946932554245
1733901982366017800,11.566017822265625,-0.013178165070712566,-0.15708427131175995,-0.08820773661136627
1733901982376044800,11.576044921875,-0.024026019498705864,-0.15740439295768738,-0.08180123567581177
1733901982386070800,11.58607080078125,-0.0316079705953598,-0.16391587257385254,-0.08736985921859741
1733901982396097500,11.59609765625,-0.035729214549064636,-0.17440339922904968,-0.08872301131486893
1733901982406124800,11.606124755859375,-0.032913688570261,-0.1897248476743698,-0.09033632278442383
1733901982416151800,11.61615185546875,-0.03115306980907917,-0.18507470190525055,-0.08669418841600418
1733901982426177800,11.626177734375,-0.030319035053253174,-0.149844229221344,-0.08806922286748886
1733901982436204500,11.63620458984375,-0.02825561724603176,-0.1340908259153366,-0.09194066375494003
1733901982446231800,11.646231689453124,-0.024330439046025276,-0.1302281767129898,-0.09409471601247787
1733901982456258800,11.6562587890625,-0.023346666246652603,-0.12872615456581116,-0.09383346140384674
1733901982466284800,11.666284912109376,-0.01966933161020279,-0.13766013085842133,-0.08935370296239853
1733901982476311800,11.676311767578126,-0.015981651842594147,-0.1363634467124939,-0.07980227470397949
1733901982486338600,11.686338623046876,-0.018106332048773766,-0.1254773885011673,-0.06581485271453857
1733901982496365800,11.69636572265625,-0.018464259803295135,-0.1055862307548523,-0.04491116479039192
1733901982506391800,11.706391845703125,-0.013621391728520393,-0.08464931696653366,-0.026034191250801086
1733901982516418800,11.716418701171875,-0.010784061625599861,-0.0668032094836235,-0.003842869307845831
1733901982526445600,11.726445556640625,-0.008615215308964252,-0.05660993605852127,0.012610115110874176
1733901982536472800,11.736472900390625,-0.0028958104085177183,-0.03777020052075386,0.031492460519075394
1733901982546498800,11.746498779296875,-0.0008104776497930288,-0.01612260192632675,0.04454362764954567
1733901982556525800,11.75652587890625,0.0022106121759861708,-0.013263433240354061,0.04718468338251114
1733901982566552600,11.766552490234375,0.002402249490842223,-0.014374044723808765,0.04832254722714424
1733901982576579800,11.776579833984375,0.005745581351220608,-0.006119843572378159,0.04983389005064964
1733901982586605800,11.786605712890625,0.008688874542713165,-0.003754134988412261,0.04897473007440567
1733901982596632800,11.7966328125,0.029575249180197716,-0.022762181237339973,0.05042002722620964
1733901982606659600,11.80665966796875,0.03237821161746979,-0.015354473143815994,0.055856041610240936
1733901982616686800,11.816686767578124,0.020077338442206383,0.005739892832934856,0.04829825833439827
1733901982626712800,11.826712890625,0.01350319106131792,-0.010178177617490292,0.02809295430779457
1733901982636740600,11.83674072265625,0.012245114892721176,-0.034827329218387604,0.01111396960914135
1733901982646767600,11.846767578125,0.0025262627750635147,-0.02248440682888031,-0.0024488652125000954
1733901982656794600,11.856794677734374,-0.008636909537017345,-0.01669895648956299,-0.015248550102114677
1733901982666820600,11.866820556640626,-0.01005680300295353,-0.03895408287644386,-0.022527627646923065
1733901982676847600,11.87684765625,-0.022731320932507515,-0.03802463784813881,-0.02592049352824688
1733901982686874600,11.88687451171875,-0.03195115923881531,-0.031995587050914764,-0.031668201088905334
1733901982696901600,11.896901611328126,-0.039515603333711624,-0.028074614703655243,-0.03820466250181198
1733901982706927600,11.906927734375,-0.047921374440193176,-0.02598835714161396,-0.04015698283910751
1733901982716954600,11.91695458984375,-0.055679429322481155,-0.028305307030677795,-0.03151582553982735
1733901982726981600,11.926981689453125,-0.061925917863845825,-0.03482910245656967,-0.01741604134440422
1733901982737008600,11.937008544921875,-0.06724265962839127,-0.0324956439435482,0.0010061089415103197
1733901982747034600,11.94703466796875,-0.06013510376214981,-0.004342190455645323,0.023778673261404037
1733901982757061600,11.9570615234375,-0.049156490713357925,0.040387462824583054,0.05244786664843559
1733901982767088600,11.967088623046875,-0.036014337092638016,0.0805472582578659,0.08559567481279373
1733901982777115600,11.97711572265625,-0.023312121629714966,0.11652576923370361,0.12971146404743195
1733901982787141600,11.9871416015625,-0.01607614941895008,0.14721804857254028,0.17683036625385284
1733901982797168400,11.99716845703125,-0.007701307535171509,0.15604563057422638,0.20629052817821503
1733901982807195600,12.007195556640625,0.013943799771368504,0.18028491735458374,0.21637564897537231
1733901982817222700,12.01722265625,0.03591940551996231,0.22749771177768707,0.22753535211086273
1733901982827248600,12.02724853515625,0.055053308606147766,0.24810251593589783,0.24658538401126862
1733901982837275400,12.037275390625,0.06494855135679245,0.23480162024497986,0.2572156488895416
1733901982847302700,12.047302734375,0.07044851034879684,0.198832169175148,0.25779327750205994
1733901982857329700,12.05732958984375,0.0727689191699028,0.15552756190299988,0.24516458809375763
1733901982867355600,12.067355712890626,0.0738443061709404,0.10043556243181229,0.22535651922225952
1733901982877382400,12.07738232421875,0.08067412674427032,0.06322592496871948,0.20887701213359833
1733901982887409700,12.08740966796875,0.07394611090421677,0.06320132315158844,0.2056795358657837
1733901982897436700,12.097436767578126,0.06109395623207092,0.07396955043077469,0.20669978857040405
1733901982907463400,12.10746337890625,0.06379077583551407,0.08734965324401855,0.20221462845802307
1733901982917489400,12.117489501953125,0.07946933805942535,0.06947451829910278,0.18605510890483856
1733901982927516700,12.1275166015625,0.06657280772924423,0.06316918134689331,0.1542578786611557
1733901982937543700,12.137543701171875,0.04581479728221893,0.05758959800004959,0.11718267947435379
1733901982947569700,12.147569580078125,0.024771369993686676,0.04702581837773323,0.08664902299642563
1733901982957596400,12.157596435546875,-0.00553140789270401,0.01814623549580574,0.06918960064649582
1733901982967623700,12.167623779296875,-0.023533079773187637,-0.017266860231757164,0.05872415751218796
1733901982977650700,12.177650634765625,-0.042591460049152374,-0.032381899654865265,0.052742164582014084
1733901982987676700,12.1876767578125,-0.05111692473292351,-0.028214510530233383,0.04528302326798439
1733901982997703700,12.19770361328125,-0.05105620622634888,-0.030196167528629303,0.039646707475185394
1733901983007730700,12.207730712890625,-0.05000140517950058,-0.03872929885983467,0.03008454665541649
1733901983017757700,12.2177578125,-0.04721120744943619,-0.04360475018620491,0.027040285989642143
1733901983027783700,12.22778369140625,-0.040685877203941345,-0.0453919991850853,0.030090225860476494
1733901983037810700,12.237810791015624,-0.04229549318552017,-0.042857468128204346,0.03879183903336525
