time,seconds_elapsed,z,y,x
1733751992330015700,0.017015625,-0.16865969961583613,0.11056567643508314,-0.6218626093044877
1733751992339991800,0.02699169921875,-0.13751169715821743,0.10956723998226224,-0.813893759092316
1733751992349967600,0.036967529296875,-0.050838206833601,0.06404810927957295,-1.0221535746254027
1733751992359942700,0.046942626953125,0.04187339461147785,0.037527620492130515,-1.1655002615474164
1733751992369918500,0.05691845703125,0.12196809106767177,-0.007751052518188953,-1.2096546067029237
1733751992379894800,0.066894775390625,0.2026759509861469,-0.06965791198536753,-0.9826107418533414
1733751992389869600,0.07686962890625,0.13704817129969596,-0.12946896821707488,-0.6628636780608445
1733751992399845600,0.086845703125,-0.015757541102170942,-0.17154226931482552,-0.5103698080871254
1733751992409821700,0.09682177734375,-0.22123218289613722,-0.17116189169511198,-0.42477381080091
1733751992419796700,0.106796630859375,-0.3470423363447189,-0.04154781591892242,-0.37565271008349954
1733751992429772500,0.1167724609375,-0.375737100431323,0.12726729345433413,-0.39471473609115926
1733751992439748900,0.126748779296875,-0.276826644346118,0.2401589286189526,-0.48280835887938733
1733751992449723600,0.1367236328125,-0.14782909303307532,0.32854367984086275,-0.5829623122196644
1733751992459699700,0.14669970703125,0.002508183428645134,0.31615890310741956,-0.5818862804859877
1733751992469675800,0.15667578125,0.14516133512854576,0.27060835435315966,-0.49507118973359465
1733751992479650800,0.16665087890625,0.26323767945468424,0.22961276548951862,-0.20175817855410277
1733751992489626600,0.176626708984375,0.2651566648185253,0.0021416151385754345,0.21719510939978062
1733751992499602700,0.186602783203125,0.17636077551245688,0.17796842990480363,0.3100097328279167
1733751992509577700,0.19657763671875,-0.07638415150046349,0.13782178602069617,0.431762427579239
1733751992519553500,0.206553466796875,-0.34571138000190255,0.09081438952162861,0.4352832951817661
1733751992529529900,0.21652978515625,-0.4652361695706844,0.05306355473287403,0.3052953445918858
1733751992539504600,0.226504638671875,-0.3452367482274771,-0.1168700372762978,0.34207784580513834
1733751992549480700,0.236480712890625,-0.04961012634336948,-0.07363784846700727,0.22931385560818016
1733751992559455700,0.246455810546875,0.28469840063452717,-0.039849049177020784,0.33239860170334573
1733751992569431800,0.256431884765625,0.5744166752576828,0.010632708901725709,0.4650613975256681
1733751992579407600,0.26640771484375,0.5841846205562353,0.08168086966909467,0.43283210263736543
1733751992589382700,0.276382568359375,0.26012276230454445,0.10273176793903112,0.31276692258156835
1733751992599358700,0.286358642578125,-0.164439451572299,0.09837050398960709,0.20826602607816458
1733751992609334800,0.296334716796875,-0.42737551773190496,0.1092834546048194,0.34122524756379424
1733751992619309600,0.3063095703125,-0.42265550347268577,0.09793112619165331,0.6143127784468233
1733751992629286000,0.316285888671875,-0.26504619018137454,0.09700641256216913,0.7430973445963114
1733751992639261700,0.32626171875,-0.19656652819514273,0.06544055001866073,0.836143292562291
1733751992649236700,0.33623681640625,-0.15941899306178092,0.037235761406086386,0.7868498309526593
1733751992659212500,0.346212646484375,-0.06483107635080813,0.05805372770298272,0.6709620827119797
1733751992669188900,0.35618896484375,0.021079028385877607,0.04728234098292887,0.6522377276934683
1733751992679163600,0.36616357421875,0.053689504611492155,0.11073292276076972,0.5089462050247937
1733751992689139700,0.3761396484375,-0.012479542344808577,0.23600743496268986,0.22988201088495552
1733751992699115800,0.38611572265625,-0.10974749191999435,0.4028054323598742,-0.08774345764368773
1733751992709090800,0.3960908203125,-0.16145722089111805,0.6075010160727427,-0.3429504639212042
1733751992719066600,0.406066650390625,-0.17196166377067565,0.7624734415218234,-0.4187949555870145
1733751992729042700,0.416042724609375,-0.20608196003735063,0.8601580821391195,-0.4646328699152916
1733751992739017700,0.426017822265625,-0.2612526431173086,0.9159938780643045,-0.4733971180640161
1733751992748993500,0.43599365234375,-0.26673545844256874,0.9786682147726417,-0.49031522737815975
1733751992758969900,0.445969970703125,-0.1961766520947218,0.9975598161168396,-0.42054779060371217
1733751992768944600,0.455944580078125,-0.03066226476728916,0.9490225066367536,-0.368871160184592
1733751992778920700,0.465920654296875,0.05437982496321201,0.9120623107690363,-0.4711828760806471
1733751992788896800,0.475896728515625,0.11401157910525798,0.9274282952703535,-0.7217549160338937
1733751992798871800,0.485871826171875,0.21207623201608655,0.8994000322684645,-1.0282480190429837
1733751992808847600,0.49584765625,0.10448971752226352,0.5984760711612179,-0.3061414400272071
1733751992818824000,0.505823974609375,-0.04929916069805622,0.4191154927782714,0.5950561431825161
1733751992828798700,0.515798828125,-0.07427052034735679,0.37737504036407915,0.8130776934690773
1733751992838774800,0.52577490234375,-0.0034480946272611615,0.3153141593789682,0.8031345377340913
1733751992848750600,0.53575048828125,0.11233224771618842,0.27929508028626443,0.5573493667311966
1733751992858726000,0.545725830078125,0.2364876196950674,0.24529618190955368,0.3577782498925924
1733751992868701700,0.55570166015625,0.2788864994853735,0.17189148461129516,0.3490332179009914
1733751992878677500,0.565677490234375,0.2879839981764555,0.10313824811438098,0.36196196531802416
1733751992888652800,0.57565283203125,0.2565507490366697,0.002578011246987444,0.4609211559157818
1733751992898628600,0.585628662109375,0.2350327447116375,-0.0909889880367089,0.5640185422968119
1733751992908603600,0.595603759765625,0.21378420497775077,-0.15984289929596707,0.5168168653346598
1733751992918579700,0.605579833984375,0.11184709454774856,-0.17638844897067174,0.393147450241819
1733751992928555800,0.6155556640625,-0.040999534386396405,-0.15080343266874552,0.28017032875083386
1733751992938530600,0.625530517578125,-0.23544132551252842,-0.1435513883144129,0.39382819904759525
1733751992948506600,0.635506591796875,-0.3501373797506094,-0.1265913669541478,0.6733211399935185
1733751992958482700,0.645482666015625,-0.2381950081348419,-0.1364520046379883,0.9049700874857604
1733751992968457700,0.655457763671875,0.022570143726468084,-0.19425633329031988,1.0338239925444126
1733751992978433500,0.66543359375,0.314225523892045,-0.2564865612266585,1.0618678915068507
1733751992988409900,0.675409912109375,0.4551496598422527,-0.342781281366758,1.0215661301262675
1733751992998384600,0.685384521484375,0.43419981079399583,-0.4032717712299898,0.889963072489947
1733751993008360700,0.695360595703125,0.2779308061957359,-0.45168012056816365,0.8495989133976399
1733751993018336800,0.705336669921875,0.03434533719420433,-0.44170821366272867,0.8932907556079328
1733751993028311800,0.715311767578125,-0.19179390696585177,-0.38422793846614656,0.8906026855677366
1733751993038287600,0.72528759765625,-0.3478659276872873,-0.3771452501961961,0.8150035469651222
1733751993048263700,0.735263671875,-0.3390443233281374,-0.35124205305688083,0.7558842723898589
1733751993058238700,0.74523876953125,-0.23884265838861465,-0.3156034611817449,0.7411218798048794
1733751993068214500,0.755214599609375,-0.10997136380374431,-0.2879587176047265,0.7637390775434673
1733751993078190800,0.76519091796875,0.06068856971859932,-0.2683349112621508,0.7290504798695444
1733751993088166000,0.775165771484375,0.23864158285856246,-0.2492514954065904,0.6407528954744338
1733751993098141700,0.7851416015625,0.3716518769443035,-0.2696799143966287,0.590557954980433
1733751993108117800,0.79511767578125,0.37446751888692376,-0.33275103187020866,0.639506987066567
1733751993118092800,0.8050927734375,0.30936347081363197,-0.31297895789705216,0.6606050124138594
1733751993128068600,0.815068603515625,0.2353589079260826,-0.27460348840393123,0.5498571112796664
1733751993138044700,0.825044677734375,0.0428472080796957,-0.22849073918964713,0.4596009401626885
1733751993148019700,0.835019775390625,-0.08378361410200595,-0.1751295532170683,0.46727468966096636
1733751993157995800,0.844995849609375,0.04566518810987472,-0.19383582458961754,0.5915275306649506
1733751993167971600,0.8549716796875,0.04859188921153545,-0.18141086197625844,0.7556276672802865
1733751993177947000,0.86494677734375,0.28825112468004227,-0.2186954857590608,0.7760347877539694
1733751993187922700,0.874922607421875,0.4792459902226925,-0.2925834182633087,0.7485320099309086
1733751993197897700,0.884897705078125,0.5361228926986455,-0.33236367652043697,0.7351723237507045
1733751993207873500,0.89487353515625,0.47519466900527474,-0.3749093078376725,0.7567560867883265
1733751993217849900,0.904849853515625,0.1682990496098995,-0.37459300843011584,0.8204197267949581
1733751993227824600,0.91482470703125,-0.21861995457112787,-0.25929182790573685,0.7656754524335264
1733751993237800700,0.92480078125,-0.513352257964015,-0.18710741138374432,0.5833974157012999
1733751993247776800,0.93477685546875,-0.571840687289834,-0.16988597174147144,0.28325813869833943
1733751993257751800,0.944751708984375,-0.3336509398519993,-0.23113471435979008,0.026226912668347358
1733751993267727600,0.9547275390625,-0.014568039056658743,-0.3088530005408451,-0.034076310994476076
1733751993277703700,0.96470361328125,0.2636661339998245,-0.35629155499879267,0.04064399894699454
1733751993287678700,0.9746787109375,0.4549450771808624,-0.3952256812879815,0.28526377943232656
1733751993297654500,0.984654541015625,0.4837485623389482,-0.4168035260414704,0.574372397724539
1733751993307630800,0.994630859375,0.35474048963189125,-0.4581171313457191,0.8814356287717818
1733751993317605600,1.004605712890625,0.14134791432023047,-0.4726183157112449,1.0909927175737917
1733751993327582200,1.014582275390625,-0.029245968228578566,-0.49689942807406184,1.2256164382055401
1733751993337558000,1.02455810546875,-0.19464812735319137,-0.47877055473066865,1.2034518065400421
1733751993347533300,1.034533203125,-0.25255554192066193,-0.4023968515589833,0.9016236996673047
1733751993357509000,1.044509033203125,-0.13379296889603137,-0.30001625341149046,0.5264291816800832
1733751993367485000,1.05448486328125,0.04576514135301113,-0.20146189902126788,0.27209946969375015
1733751993377460000,1.0644599609375,0.16379589297175406,-0.16273582599218933,0.2554024557843804
1733751993387436000,1.07443603515625,0.26230127538740633,-0.14573931767959147,0.37349794320240615
1733751993397412000,1.084412109375,0.3100859398692846,-0.1793872471941635,0.5154800637729465
1733751993407387100,1.09438720703125,0.30961832235753534,-0.19036336270608006,0.6111223118424415
1733751993417363200,1.10436328125,0.23350012831687925,-0.1645059226709418,0.6702312111541628
1733751993427339000,1.114339111328125,0.13862053518295286,-0.16186468744715674,0.669139908786118
1733751993437314000,1.12431396484375,0.09777239196598529,-0.13566269002435727,0.6786978645958006
1733751993447290000,1.1342900390625,0.1365969204008579,-0.09154933446636423,0.6408680462867021
1733751993457266200,1.14426611328125,0.2132721638023853,-0.12206113964598625,0.5939332766324281
1733751993467241000,1.154240966796875,0.21578268531858918,-0.07562540098845492,0.5006166950315237
1733751993477217300,1.16421728515625,0.15720423962175845,-0.045664073865022504,0.4148217411071062
1733751993487193000,1.174193115234375,-0.03339315103590488,-0.08142059303140267,0.3604312486194074
1733751993497168100,1.184168212890625,-0.11240882008373737,-0.11817067154608667,0.36404739328995345
1733751993507144200,1.194144287109375,0.03764613230526447,-0.16517905442584305,0.44309287295415994
1733751993517120000,1.2041201171875,0.22996377088427541,-0.23302785289632155,0.48963089837580914
1733751993527095000,1.214094970703125,0.43205052380561826,-0.30669717421382664,0.5666865193970501
1733751993537071000,1.224071044921875,0.46294309019744395,-0.3978501115074381,0.6951518635295331
1733751993547046100,1.234046142578125,0.3876496565431356,-0.4501687296245247,0.9525510460890829
1733751993557022200,1.244022216796875,0.27610125268101693,-0.4516710970114916,1.2362070980638264
1733751993566998000,1.253998046875,0.2262304295748472,-0.3800885736390948,1.537938904955238
1733751993576973300,1.263973388671875,0.3659878598332405,-0.22727621230073272,1.3405670517265795
1733751993586949000,1.27394921875,0.4378337833821773,-0.13968306811423972,1.0341212219253182
1733751993596925000,1.283925048828125,0.384774977889657,-0.10905023037083446,0.8758718571648001
1733751993606900200,1.293900146484375,0.2796042923659086,-0.09364004140160977,0.7721810349352657
1733751993616876000,1.3038759765625,0.19421324306726453,-0.047782618655264376,0.7573717344686388
1733751993626852000,1.31385205078125,0.10774258183836936,-0.17724088281523434,0.8179603509441018
1733751993636827100,1.3238271484375,-0.03210895644426345,-0.3286544832715764,0.8696541516937315
1733751993646803200,1.33380322265625,-0.16700900979936123,-0.3010524097925052,0.8559984051764011
1733751993656779000,1.343779052734375,-0.2923345946013927,-0.16678437073063104,0.7670730442717671
1733751993666754000,1.353754150390625,-0.3354840004980564,0.059484600756317375,0.6924244843922555
1733751993676730000,1.363730224609375,-0.4925801035702228,0.0668033993370831,0.7026522292222828
1733751993686706200,1.3737060546875,-0.5780073932260275,0.012491159717366099,0.6372125925190747
1733751993696681000,1.383680908203125,-0.5776368063479662,-0.06195924724154174,0.46912521289847786
1733751993706657300,1.3936572265625,-0.48771805049180983,-0.13948160899169743,0.39468320844173427
1733751993716633000,1.403633056640625,-0.3085170831173658,-0.11875190550014376,0.4463302474401891
1733751993726608100,1.413608154296875,-0.1449666893392801,0.035732626834139226,0.7360191498383879
1733751993736584200,1.423584228515625,-0.06745791772305965,0.038583851546794175,0.9613843408860265
1733751993746560000,1.43356005859375,-0.022651976791024205,0.0502117454983294,1.0351538529086857
1733751993756535000,1.44353515625,-0.08533610424101352,0.2784234850835055,1.0592997215192765
1733751993766511000,1.453510986328125,-0.24791326907277106,0.4133492574017495,0.8413284401152282
1733751993776487200,1.463487060546875,-0.4101239386796951,0.2851593692097813,0.5360051115378737
1733751993786462000,1.4734619140625,-0.42718905524909495,0.3009190292038023,0.38634478448964654
1733751993796438300,1.483438232421875,-0.28842648124694825,0.3070431381072849,0.36523631081357594
1733751993806414000,1.4934140625,-0.11615618991851806,0.1612475967284292,0.42062648186311125
1733751993816389000,1.50338916015625,0.015346622213721274,0.22722550502680242,0.555792711873725
1733751993826365200,1.513365234375,0.014437690675258635,0.2729797596596181,0.7145600360937416
1733751993836340200,1.52334033203125,0.006381809991598129,0.40876667885184287,0.8205104738183319
1733751993846316000,1.53331591796875,0.06022212125062942,0.6820022399034351,0.8495048053734005
1733751993856292000,1.5432919921875,0.13731412875950336,0.7104780274771153,0.736508906116709
1733751993866267100,1.55326708984375,0.2640156780898571,0.7745888997945934,0.6149502726327628
1733751993876243200,1.5632431640625,0.22959727565944194,0.6083158761195838,0.55882692847047
1733751993886219000,1.573218994140625,0.09274491919279097,0.5163349270366132,0.5187337683392689
1733751993896194300,1.5831943359375,-0.05091945537626743,0.4455356629963964,0.5436785322425887
1733751993906170000,1.593170166015625,-0.14146715678572655,0.5368544218435883,0.5061240237435326
1733751993916146000,1.60314599609375,-0.18319032927155493,0.4715354158453643,0.3964281889455393
1733751993926121200,1.613121337890625,-0.13040449550151825,0.5582162126936018,0.4030238608835265
1733751993936097000,1.623096923828125,0.06614157442748546,0.4543745838165283,0.5026299345500767
1733751993946073000,1.633072998046875,0.3985077351659536,0.6038019058264792,0.458207220781967
1733751993956048100,1.643048095703125,0.4733499179214239,0.6611385347686708,0.5226939406745136
1733751993966024200,1.653024169921875,0.3223614840745926,0.5993892039507627,0.4875126641128212
1733751993976000000,1.663,0.08458382456898689,0.7063517413273454,0.23327674962347372
1733751993985975000,1.67297509765625,-0.23384850336313245,0.7446851252444088,0.09738162994957529
1733751993995951000,1.682951171875,-0.4359609752476215,0.27916502416580913,0.4066601350266486
1733751994005927200,1.69292724609375,-0.32649346931278705,0.17009893863871692,0.4214749153859913
1733751994015902000,1.70290185546875,-0.04286591278016567,0.2699405380941927,0.533016049257107
1733751994025878300,1.712878173828125,0.12416530885100364,0.4412617120042443,0.499248877277039
1733751994035854000,1.72285400390625,0.1726648436039686,0.5131763168752194,0.27186197114344685
1733751994045829000,1.7328291015625,0.1202548574090004,0.4313493897989392,0.17505024090316146
1733751994055805200,1.74280517578125,-0.01220890870988369,0.23376710868999362,0.15923906991761178
1733751994065780200,1.7527802734375,-0.13681027089059353,0.32946371729522944,0.017705021908134222
1733751994075756000,1.762756103515625,-0.27117665576040745,0.2948400015510618,0.012589213264361023
1733751994085732000,1.772732177734375,-0.40103696138262745,0.8494557055346668,0.12611096302606165
1733751994095707100,1.78270703125,-0.2859527846097946,0.6720958359822631,0.08301087616384029
1733751994105683200,1.79268310546875,-0.10594693059325218,0.3102757633529603,0.08122742681317031
1733751994115659000,1.802658935546875,0.0230400993257761,0.27071546798944474,0.14630480607524513
1733751994125634300,1.81263427734375,-0.04028992481231689,0.15641586572304367,0.11086049466319381
1733751994135610000,1.822610107421875,-0.08748422218561172,0.6838081933468579,-0.026040377120301127
1733751994145586000,1.8325859375,-0.22917641989886758,0.6335686830587685,0.1661015395656228
1733751994155561200,1.842561279296875,-0.32000060016214843,0.3893259191922843,0.3348609732288867
1733751994165537000,1.852537109375,-0.29372926383018494,-0.11768106139823793,0.41385552642345425
1733751994175513000,1.86251318359375,-0.02495850016772747,0.06840425866246223,0.09267967193685471
1733751994185488100,1.872488037109375,0.09963467870652674,0.3197390266165137,0.10967311150953173
1733751994195464200,1.882464111328125,-0.0315361249923706,0.6056826050065457,0.17857333699539302
1733751994205440000,1.89243994140625,-0.0360720148563385,0.678763477177918,0.10760960310846567
1733751994215415000,1.9024150390625,0.05747428384721279,0.6728067607305943,0.17519757695198057
1733751994225391000,1.91239111328125,0.21474282087683677,0.9487820489443838,0.2641575707785785
1733751994235367200,1.9223671875,0.26234511452913284,0.8544958916589617,0.2849118972547352
1733751994245342000,1.932342041015625,0.1715752948015928,0.5282604887604713,0.12296046310588717
1733751994255318300,1.942318359375,0.01976736126542091,0.5809067679293454,0.02085354906693101
1733751994265294000,1.952294189453125,-0.18836919321417808,0.5586674635924399,0.009022533758729696
1733751994275269000,1.96226904296875,-0.26366730304360386,0.5147945657268166,0.03803630066663027
1733751994285245200,1.9722451171875,-0.12490414451956748,0.5340431638151407,0.0773841223232448
1733751994295220200,1.98222021484375,0.07092763966023921,0.5908271273106336,0.21306305109634993
1733751994305196000,1.992196044921875,0.13059855676889418,0.32908962328583,0.5743317734532057
1733751994315172000,2.002172119140625,0.14846096119582652,0.7715193561561405,0.6054165014162659
1733751994325147100,2.012147216796875,0.38540450796484943,1.2434706593260167,0.23661036929190157
1733751994335122400,2.022122314453125,0.5645680659383535,0.8436515493005514,0.19382175953164696
1733751994345098200,2.03209814453125,0.5241016155153513,0.618007102920115,0.16188889030665157
1733751994355073500,2.042073486328125,0.30801848594546316,0.40666313070133325,0.04846753217950463
1733751994365049300,2.05204931640625,0.051047465670108795,0.20669950741380452,-0.0624200696863234
1733751994375025200,2.062025146484375,-0.15436346323788167,0.15639862232729793,-0.13685367164090276
1733751994385000400,2.07200048828125,-0.10106909542381763,0.15157748578116298,-0.19906535927355287
1733751994394976300,2.081976318359375,0.08638999720811844,0.1988129919476807,-0.1339943366870284
1733751994404952300,2.091952392578125,0.111723175907135,0.22046762826442717,-0.14200140979290007
1733751994414927400,2.10192724609375,0.15806290227770806,0.24216201206967233,-0.11222586473226547
1733751994424903400,2.1119033203125,0.19431845700740813,0.2818378966368735,0.0883900849841535
1733751994434879200,2.121879150390625,0.29930443361401554,0.46918972950205207,0.131573393150419
1733751994444854300,2.131854248046875,0.3680050448745489,0.6097526309244334,-0.0495319465406239
1733751994454830300,2.141830322265625,0.15557400807142258,0.4495090236067772,0.15814327403753994
1733751994464806400,2.151806396484375,-0.07896013946831226,0.3010512772813439,0.09438041144013404
1733751994474781200,2.16178125,-0.20046938085258006,0.2025103851608932,-0.13205270109996198
1733751994484757500,2.171757568359375,-0.34338849001228805,0.00793985308855772,-0.03582140109613537
1733751994494732300,2.181732177734375,-0.3843558756947517,-0.15047566201910376,0.04005041696801782
1733751994504708400,2.191708251953125,-0.28030864124298094,0.07767623713761568,-0.4374845315530896
1733751994514684400,2.201684326171875,-0.17021452784240246,0.07360752639397979,-0.40379911957234144
1733751994524659500,2.211659423828125,0.02892740379869938,0.024739304459095,-0.25767420010864733
1733751994534635300,2.22163525390625,0.1793751548975706,0.026802812860161066,-0.06439560754299163
1733751994544611300,2.231611328125,0.12756196555197238,0.052622898293286556,0.24199264685213565
1733751994554586400,2.24158642578125,0.03468611345589161,-0.014907061752676963,0.3692113519243896
1733751994564562400,2.2515625,0.042698739519715305,-0.14366715104803443,0.5099452259995043
1733751994574538500,2.26153857421875,-0.014535890352725981,-0.10624737484455107,0.18097806004956363
1733751994584513500,2.271513427734375,-0.13164251286387443,0.004099398142844438,-0.2554001176968217
1733751994594489300,2.2814892578125,-0.008737433207035064,-0.10275719464123248,0.1849028322778642
1733751994604465400,2.29146533203125,0.21559037761688232,0.0972371160455048,0.24919088779315351
1733751994614440400,2.3014404296875,0.30213118147253987,0.3552681667678058,-0.10129150600284337
1733751994624416300,2.311416259765625,0.38120822531878945,0.17838833581730723,-0.013696224658191203
1733751994634392300,2.321392333984375,0.5904010108530521,-0.29318346651569005,0.37355420343428847
1733751994644367400,2.331367431640625,0.7856091101765632,-0.20620207928568124,0.2582669053047895
1733751994654343400,2.341343505859375,0.6879004310965537,-0.06539820871427655,-0.13199059564918278
1733751994664319200,2.3513193359375,0.4201356296062469,-0.33917467170953747,-0.17668781550973653
1733751994674294500,2.36129443359375,0.347405908960104,-0.8034747294738889,0.19525223072618245
1733751994684270300,2.371270263671875,0.2563648710757494,-0.7648442623063921,0.052988955126702784
1733751994694246400,2.381246337890625,0.07048866372108459,-0.6979727661691606,-0.22157529724538325
1733751994704221200,2.39122119140625,-0.14788871426582337,-0.662926587229222,-0.3914735987454653
1733751994714197500,2.401197509765625,-0.17639818491339682,-0.6233300515085458,-0.5071987037703395
1733751994724172300,2.41117236328125,-0.07856500267088412,-0.5931736904367804,-0.5424681700721383
1733751994734148400,2.4211484375,0.02406009002327919,-0.5973305178552866,-0.5045601719602942
1733751994744124400,2.43112451171875,0.20694939052164554,-0.5927342761062085,-0.27157237707972526
1733751994754099500,2.441099365234375,0.4894061497092247,-0.5012191909693181,-0.03723638246059417
1733751994764075300,2.4510751953125,0.7498807941913604,-0.18923662369847297,0.07865297321528196
1733751994774051300,2.46105126953125,0.7570873645693064,0.21075857354626057,0.17950053484290837
1733751994784026400,2.4710263671875,0.49976504663825033,0.611299568105489,0.13359656954109667
1733751994794002200,2.481002197265625,0.12014905894696712,0.8085320128634571,-0.08533610424101352
1733751994803978500,2.490978515625,-0.15607435880899428,0.703073742569983,-0.4028451798483729
1733751994813953300,2.500953369140625,-0.16294599814414978,0.45039778914004563,-0.5858493388980627
1733751994823929300,2.510929443359375,-0.057658992764353746,0.19792291124016045,-0.6952110463708638
1733751994833905400,2.520905517578125,-0.016274258452653883,0.06913622619882226,-0.7163008884117007
1733751994843880400,2.53088037109375,0.10175707768797874,0.0551844193443656,-0.6729749569043517
1733751994853856300,2.540856201171875,0.306547244349122,0.09083353261351584,-0.6766337716728449
1733751994863832600,2.55083251953125,0.4613415002197027,0.042481297376751895,-0.6196478558644652
1733751994873807400,2.560807373046875,0.5427607232779265,-0.07881283995211123,-0.5128036841705441
1733751994883783400,2.570783447265625,0.4901461544215679,-0.2170484674707055,-0.48440644172579045
1733751994893758200,2.58075830078125,0.34787177290618415,-0.20460048930794,-0.4615948904588818
1733751994903734500,2.590734619140625,0.13986322872042656,-0.07219459085613489,-0.526877217708528
1733751994913710300,2.60071044921875,0.003949029886722564,0.0930035701289773,-0.6706149497747421
1733751994923685400,2.610685302734375,-0.012628595426678657,0.22020839280635118,-0.8572031047910451
1733751994933661400,2.620661376953125,0.059580316215753555,0.2615720843300223,-1.1328832094505428
1733751994943637200,2.63063720703125,0.1927683049559593,0.3410264370560646,-1.3486302389338611
1733751994953612300,2.6406123046875,0.3762614165663719,0.42806203869134185,-1.4141285470217466
1733751994963588400,2.65058837890625,0.4761462706416845,0.5723427915930748,-1.3974474613338708
1733751994973564400,2.660564453125,0.3955237509191036,0.7132935232892632,-1.3350529644802211
1733751994983539500,2.67053955078125,0.30933950541615485,0.7220730420723557,-1.2918322469130157
1733751994993515300,2.680515380859375,0.4178448883205652,0.7242430795878172,-1.3101114154472946
1733751995003491300,2.6904912109375,0.5892196921139955,0.5939926056042313,-1.2038570263400674
1733751995013466400,2.70046630859375,0.6019593466997146,0.5167050755232572,-1.34024907181859
1733751995023442200,2.710442138671875,0.4404366593569517,0.6098734808251262,-1.5449047984451054
1733751995033418500,2.72041845703125,-0.05119301162064075,0.28708208090066906,-1.0476917743772267
1733751995043393300,2.730393310546875,-0.42833997884988784,0.36760932355523107,-0.7906172937273979
1733751995053369300,2.740369384765625,-0.47147769430875774,0.4901899935632944,-0.5446566200271249
1733751995063345400,2.750345458984375,-0.13443477393090725,0.4828080666184425,-0.16636515893787146
1733751995073320400,2.760320556640625,0.35650866834819317,0.46203503544181584,0.07064911497980356
1733751995083296300,2.770296142578125,0.6897726547092199,0.2864776852667332,0.12732874131798744
1733751995093271300,2.780271240234375,0.7671060697585343,0.2319011686876416,0.04064414507746696
1733751995103247400,2.790247314453125,0.6078320381253958,0.22094664395302532,-0.014967559768259524
1733751995113223400,2.800223388671875,0.25456688174307346,0.13042261568009852,-0.137538585165143
1733751995123198200,2.8101982421875,-0.027385435053706168,0.12868570888489483,-0.34531828903108835
1733751995133174500,2.820174560546875,-0.18932371746003626,0.24406682277768849,-0.4970218854099512
1733751995143150300,2.830150390625,-0.2707990546196699,0.3613333120256662,-0.541752423018217
1733751995153125400,2.84012548828125,-0.2300906121343374,0.44072044473439453,-0.649566608788073
1733751995163101400,2.850101318359375,-0.1553846229791641,0.5018795545741915,-0.6142182320311665
1733751995173077200,2.8600771484375,-0.05848141506314277,0.5048977333515883,-0.43661534750312564
1733751995183052300,2.87005224609375,0.07442775673568248,0.4609150915011763,-0.18923253204524515
1733751995193028400,2.8800283203125,0.20457272451817987,0.3573720071792602,-0.08061112154573202
1733751995203004400,2.89000439453125,0.23314766161739825,0.21425679092556238,-0.16740268529206515
1733751995212979200,2.899979248046875,0.1345885031878948,0.07194383096545934,-0.2176546166703105
1733751995222955500,2.90995556640625,0.09409984093308449,-0.1176902676180005,-0.298906374207139
1733751995232931300,2.919931396484375,0.06941548153162003,-0.27174568782001735,-0.438832146769762
1733751995242906400,2.92990625,-0.02819792048037052,-0.39208383959829807,-0.44053748938292264
1733751995252882400,2.93988232421875,-0.13330313955247403,-0.8571206872045993,-0.45149902838021516
1733751995262857500,2.949857421875,-0.2119920608639717,-0.4726850242719054,-0.6841235429063439
1733751995272833300,2.959833251953125,-0.247275555691123,-0.05421674335598945,-0.7397548292353748
1733751995282809300,2.969809326171875,-0.23292846590876579,0.20400047758817672,-0.7015817504465579
1733751995292784400,2.979784423828125,-0.04127835132777691,0.24254472777694464,-0.36376024691164494
1733751995302760400,2.989760498046875,0.22550153077840804,0.09418751921653747,-0.08700900588929653
1733751995312736300,2.999736328125,0.3425982164174318,0.08467588676661253,-0.20484248137027025
1733751995322711600,3.009711669921875,0.3160217596590519,0.07413929518312215,-0.3748889591693878
1733751995332687600,3.0196875,0.36037878777980803,0.21434563825279473,-0.2977767856553197
1733751995342663400,3.029663330078125,0.544801873716712,0.15514818387478588,-0.2526288994178176
1733751995352638700,3.039638671875,0.5651420664340258,0.10630436572879552,-0.10758856032043695
1733751995362614500,3.049614501953125,0.2803746922165155,0.018053543084859847,-0.11118687707334757
1733751995372590600,3.059590576171875,-0.0881996769785881,-0.034869945590198036,-0.09362170202732085
1733751995382565400,3.0695654296875,-0.26775135748684403,-0.011876023493707179,-0.019608663572371003
1733751995392541700,3.079541748046875,-0.3367863152682781,0.08977905512452125,0.07504501185119151
1733751995402517500,3.089517578125,-0.4314133949458599,0.20435235976576804,0.16562573874741793
1733751995412492500,3.099492431640625,-0.38313480946719647,0.2629531634248793,0.04384206433594227
1733751995422468600,3.109468505859375,-0.17126432915627957,0.20385843876898288,-0.36617987527400253
1733751995432444700,3.119444580078125,0.11182546723783016,0.13999006997048855,-0.7283943540483713
1733751995442419500,3.12941943359375,0.2912164042264223,0.15080051005929707,-0.6141068806111812
1733751995452395800,3.139395751953125,0.39772973653078075,0.1407525787755847,-0.33514673136770723
1733751995462370600,3.14937060546875,0.3653764499366283,-0.025577508848905563,-0.14069675693511963
1733751995472346600,3.1593466796875,0.09231763369143009,-0.12786986245736479,0.041945290803909296
1733751995482322700,3.16932275390625,-0.12902619288563727,0.025254414374381303,0.18460735646262763
1733751995492297700,3.179297607421875,-0.3386696447968483,0.18509470158815383,0.30632746411859985
1733751995502273500,3.1892734375,-0.47230070112943645,0.3338666284292936,0.485055407153815
1733751995512249600,3.19924951171875,-0.43753333913087844,0.38944370035305614,0.4705182016268372
1733751995522224600,3.209224609375,-0.30663083097934724,0.3364762264057994,0.45316929967999453
1733751995532200400,3.219200439453125,-0.04442833979129791,0.2756745517015457,0.5050495629124343
1733751995542176800,3.2291767578125,0.3377309026420116,0.17693769861757755,0.5076848798520863
1733751995552151600,3.239151611328125,0.7554121248334645,0.08076587371602655,0.4728558507941663
1733751995562127600,3.249127685546875,1.1639847424179315,0.031160131286829706,0.4338070120841264
1733751995572103400,3.259103515625,0.9381447734653949,-0.21787834242358803,0.47139469220042224
1733751995582078700,3.26907861328125,0.24619185210764408,-0.3119365361720323,0.22430194573029874
1733751995592054500,3.279054443359375,-0.4815618659496307,-0.300256619772315,0.013878157096356153
1733751995602030600,3.289030517578125,-0.8339011396586895,-0.15925766502022742,-0.06823445505350828
1733751995612005600,3.299005615234375,-0.8526514328360557,-0.022643793484568596,-0.24729411426112055
1733751995621981700,3.308981689453125,-0.7902285866707562,0.18971695456132293,-0.6226997907809912
1733751995631956500,3.31895654296875,-0.7421177589744329,0.3740956168346107,-0.8164711352996528
1733751995641932800,3.328932861328125,-0.43964112506508823,0.4153422578498721,-0.5859096907831728
1733751995651908600,3.33890869140625,0.12800386410057543,0.5465155457668006,-0.4487595204137265
1733751995661883600,3.348883544921875,0.7344342187345028,0.45421822421103714,-0.15931845529675484
1733751995671859500,3.358859375,1.1412778205692768,0.27747853238359094,0.07249898063018917
1733751995681835800,3.368835693359375,1.2255237914860249,0.27104499220475553,0.26937574381828305
1733751995691810600,3.378810546875,0.9256465264201164,0.19125760813206433,0.43296778478100895
1733751995701786600,3.38878662109375,0.40505905650556084,0.06816445855721831,0.2909181519322097
1733751995711762700,3.3987626953125,-0.221215816283226,-0.07516293914243578,-0.09831687410622834
1733751995721737700,3.40873779296875,-0.7046557510644197,-0.04123042053282261,-0.088436700604856
1733751995731713500,3.418713623046875,-0.8546919987529515,0.02698518368974328,-0.09162044520750641
1733751995741689600,3.428689697265625,-0.7939899850308895,0.06231324831098318,-0.1263752399854362
1733751995751664600,3.43866455078125,-0.6301461612641811,0.1790599514685571,-0.1592339918836951
1733751995761640400,3.448640380859375,-0.2270107662975788,0.2703729381620884,-0.13561550814807413
1733751995771616800,3.45861669921875,0.4437345318585634,0.27703736448734995,-0.05196472664549946
1733751995781591600,3.468591552734375,0.8849328232377767,0.16629823118150233,0.15515549039840698
1733751995791567600,3.478567626953125,0.7938245653361081,-0.04678980822563171,0.25917320649474856
1733751995801543700,3.488543701171875,0.3106014881759882,-0.13823869625851512,0.020117489877343176
1733751995811518700,3.498518798828125,-0.18954057508111,-0.17476327718794346,-0.19733663578480481
1733751995821494500,3.50849462890625,-0.4347855017274618,-0.13435440217107533,-0.3183465493448078
1733751995831469600,3.518469482421875,-0.5283791467040777,-0.08032236773222684,-0.37346564836800095
1733751995841445600,3.528445556640625,-0.6065747315406799,-0.046109132485091686,-0.5718949016951024
1733751995851421700,3.538421630859375,-0.6960878292053938,0.08357479365691542,-0.7847077774226665
1733751995861396500,3.548396484375,-0.5624363146066665,0.2734663741327822,-0.8285694232419133
1733751995871372800,3.558372802734375,-0.1834843437820673,0.4235917614094913,-0.6658341452389955
1733751995881348600,3.5683486328125,0.23814357020854948,0.5309982431612909,-0.5608941997312009
1733751995891323600,3.57832373046875,0.6723229227364063,0.624980156803131,-0.5285534803576767
1733751995901299700,3.5882998046875,0.772780023741722,0.6731877228721976,-0.28217253541871906
1733751995911275500,3.598275634765625,0.6187719498127698,0.49516047545224423,-0.000025426702201366424
1733751995921250600,3.60825048828125,0.36627369103729723,0.2526492115534842,0.16195391836687922
1733751995931226600,3.6182265625,0.06745499511361122,0.17663550080060958,0.15138883134126663
1733751995941202700,3.62820263671875,-0.2612643335551023,0.23020094064101576,0.09553966447785496
1733751995951177500,3.638177490234375,-0.5171212551087141,0.2742037484966218,0.0497661936879158
1733751995961153500,3.648153564453125,-0.5624421598255634,0.31258608612194655,-0.1099227023564279
1733751995971129600,3.658129638671875,-0.4848614920169115,0.3465701887883246,-0.1831481706302613
1733751995981104600,3.668104736328125,-0.38829263062179087,0.19910006526075302,-0.26568872586861253
1733751995991080400,3.67808056640625,-0.2777583722382784,0.19358057118691502,-0.3388406174495816
1733751996001055700,3.6880556640625,-0.1917056441605091,0.27632169049866495,-0.3140321932770312
1733751996011031600,3.698031494140625,-0.07964403007924556,0.3770849348437041,-0.14222002097964287
1733751996021007600,3.708007568359375,0.27655367262363434,0.4889459848515689,0.08094152254387736
1733751996030982700,3.717982666015625,0.5292857401549815,0.6595203589823097,0.14902823968976736
1733751996040958700,3.727958740234375,0.4530483036488294,0.823447330987826,-0.0861203864865005
1733751996050934500,3.7379345703125,0.2706342194467783,0.9331671311832964,-0.35924547290094194
1733751996060909600,3.74790966796875,0.19528817882239818,0.9091000999625771,-0.265022443979606
1733751996070885600,3.7578857421875,0.20108955857753752,0.8220829838320612,0.051577553958818315
1733751996080861700,3.76786181640625,0.26863573910593985,0.6163804515663533,0.2436909021373838
1733751996090836500,3.77783642578125,0.2722510069936514,0.482573965601623,0.30065365626588464
1733751996100812800,3.787812744140625,0.21197218711972235,0.3457606259711087,0.18476890369988977
1733751996110788600,3.79778857421875,0.07395429400503635,0.20570947346314786,0.09725110803823918
1733751996120763600,3.807763671875,-0.0336187764853239,0.20394487494342028,0.012522541236318647
1733751996130739700,3.81773974609375,-0.02396422843337059,0.3120935533646494,0.04078180911564268
1733751996140714800,3.82771484375,0.045430794832110405,0.3805602097388357,0.14632613199106417
1733751996150690600,3.837690673828125,0.0845616127371788,0.7424957985065876,0.170600111360196
1733751996160666600,3.84766650390625,0.15403613097965715,0.8445745093643665,-0.016874621798866427
1733751996170641700,3.8576416015625,0.29070845470428464,0.8374480184853077,0.08249290757118724
1733751996180617500,3.867617431640625,0.4361591281682253,0.5885947651486844,0.2236875949579291
1733751996190593800,3.87759375,0.536224599507451,0.5570353323459625,0.34908056417405603
1733751996200568600,3.887568603515625,0.5068360079377889,0.4255036594454199,0.5359095056762918
1733751996210544600,3.897544677734375,0.2677361599177122,0.24468721969835458,0.5389323971614242
1733751996220520700,3.907520751953125,-0.04976502464413642,0.10251870971024035,0.39270025446359064
1733751996230495700,3.917495849609375,-0.3397755602121353,-0.023969416065141556,0.19796992871966212
1733751996240471600,3.927471435546875,-0.4547837491393089,0.13082096734791993,0.08477003132347018
1733751996250447600,3.937447509765625,-0.4465361452758312,0.28960816531218586,0.36119507259875533
1733751996260422700,3.947422607421875,-0.3655494684159756,0.3466797866426408,0.43224465813823043
1733751996270398700,3.957398681640625,-0.18858371274769306,0.36944348017983136,0.43085495734550056
1733751996280374500,3.96737451171875,0.10780103402733802,0.5338134467124939,0.558283871102333
1733751996290349800,3.977349853515625,0.342251010414958,0.45079906341731546,0.7697123067341745
1733751996300325600,3.98732568359375,0.4108662814795971,0.2960372485116124,0.6830187234696
1733751996310301400,3.997301513671875,0.43330958395600316,0.5228401442121714,0.47620260393880304
1733751996320276500,4.0072763671875,0.5657265883237124,0.3897819558640942,0.0763802059777081
1733751996330252800,4.017252685546875,0.4688929385125637,0.2116869404375553,-0.01696545558720827
1733751996340227800,4.027227783203125,0.2500374216198921,0.4168943095974624,0.174174298318848
1733751996350204000,4.037203857421875,0.20631810688078403,0.48349743712209164,0.42178573490083215
1733751996360180000,4.047179931640625,0.25379940450191496,0.19708562016580253,0.611182444531843
1733751996370154800,4.05715478515625,0.2592085700690746,0.13487762232758105,0.7975832602825015
1733751996380131000,4.067131103515625,0.19671499675512313,0.3212765383820981,1.2671693686909973
1733751996390107000,4.07710693359375,0.22760873219072816,0.14827486403919757,1.2759648156955838
1733751996400082000,4.08708203125,0.32771219745278357,0.04586107600815594,1.0635114209301768
1733751996410058000,4.09705810546875,0.43253450793027876,0.09971150680240243,0.8573765616618096
1733751996420034000,4.107033935546875,0.2972802343100309,0.07377053493596614,0.5763355144910514
1733751996430008800,4.1170087890625,0.06801262899637221,0.13326419578157364,0.3055018269494176
1733751996439985200,4.126985107421875,-0.03715338035225868,0.15380721759460866,0.29348054976612326
1733751996449961000,4.1369609375,0.0007902735948562622,0.003967442326247692,0.44073476552069185
1733751996459936000,4.14693603515625,0.013796470162272452,0.022606457148864865,0.5794989469580352
1733751996469912000,4.156912109375,0.023337036445736883,0.24239830504357812,1.0356386407509446
1733751996479887000,4.16688720703125,0.020181202763319014,0.2374267271760851,1.0946543088212608
1733751996489863000,4.17686279296875,0.013438158243894577,0.2463946081381291,1.1329916382610796
1733751996499839000,4.1868388671875,-0.028694764086604117,0.1413143773768097,0.8841678302146494
1733751996509814000,4.19681396484375,-0.040402737537026404,0.007045242336392402,0.6219444423690438
1733751996519789800,4.206789794921875,0.050884384062886236,-0.0957775648869574,0.4385391551725566
1733751996529766000,4.216765869140625,0.1347322955727577,-0.16986059983819723,0.352819020050019
1733751996539741000,4.226740966796875,0.09534721064567565,-0.15102489339970052,0.4878475220903754
1733751996549717000,4.236717041015625,-0.14351415244340895,-0.20517010588943957,0.5464315207451582
1733751996559692800,4.24669287109375,-0.38631402402520176,-0.11187390948943793,0.45400838085263967
1733751996569668000,4.256668212890625,-0.3688274671733379,-0.09721307758279144,0.11133052332773805
1733751996579644000,4.266643798828125,-0.1661468400120735,-0.08610928057059646,-0.12867094970718027
1733751996589620000,4.276619873046875,0.053580783540010446,-0.15084551824480294,-0.018823796804994342
1733751996599594800,4.2865947265625,0.13043898229300974,-0.13660444612018763,0.142045395065099
1733751996609571000,4.296571044921875,-0.002799275329709053,-0.11607961755096911,0.3121253367424011
1733751996619547000,4.306546875,-0.12755085963606833,-0.052768005852401254,0.4819188626937568
1733751996629522000,4.31652197265625,-0.16820903323888778,0.03628704584650695,0.6282111015483737
1733751996639498000,4.326498046875,-0.27600889822244645,0.043082258944585915,0.7470870718196034
1733751996649473000,4.33647314453125,-0.4550198959827423,-0.03878638838157058,0.8044324685901403
1733751996659448800,4.34644873046875,-0.4892793084591627,-0.17589593447968363,0.7948517164267599
1733751996669425000,4.3564248046875,-0.31894670719504353,-0.22287753895036874,0.4528973508708179
1733751996679400000,4.36639990234375,-0.18878303471207616,-0.32621479850187896,0.07436565128490329
1733751996689376000,4.3763759765625,-0.11863573177456856,-0.2654267139315605,-0.21448680028915404
1733751996699352000,4.38635205078125,-0.03883329626321792,-0.2870171259056777,-0.34866599202379583
1733751996709327000,4.3963271484375,0.028063480445742604,-0.22117862607799468,-0.24454510781392455
1733751996719303000,4.406302978515625,0.10295827017128467,-0.2686970408391207,0.06900164003372192
1733751996729279000,4.416279052734375,0.29245091445744037,-0.2723592166084796,0.35381928313374517
1733751996739254000,4.42625390625,0.3485942419618368,-0.12593399902395902,0.4716325926095247
1733751996749229800,4.436229736328125,0.22123218289613722,-0.11195501190163194,0.32398820849359034
1733751996759206100,4.4462060546875,0.07547405091822147,0.13726700168214737,0.3078074735432863
1733751996769181000,4.456180908203125,-0.04662321948707104,0.09333397112712263,0.2608829330220818
1733751996779157000,4.466156982421875,-0.11740180606544016,0.07254676529467105,0.20116072411760685
1733751996789132800,4.4761328125,0.1019067152917385,0.21436814234554766,0.429059525296092
1733751996799108000,4.486108154296875,0.35009880130589005,0.05547244250550866,0.45476635961309075
1733751996809084000,4.496083984375,0.315516148224473,0.041947628891468046,0.3681833240509033
1733751996819059000,4.506058837890625,0.17965104922950267,0.07907638625912368,0.2953400600276887
1733751996829035000,4.516034912109375,0.03738952719569206,0.005744169675186276,0.11002747790515423
1733751996839011000,4.526010986328125,0.007530395504832268,-0.09891586291268467,-0.11781973921656608
1733751996848985900,4.53598583984375,0.21977964600026606,0.23357567777112126,0.10872326343879103
1733751996858962200,4.545962158203125,0.34039339984953404,0.19681012769266962,0.2691651698075235
1733751996868938000,4.55593798828125,0.11794599594473838,0.19655396097451447,0.21112419198825955
1733751996878913000,4.5659130859375,-0.016818448331952094,0.23079430342428384,0.09820552268624305
1733751996888888800,4.575888916015625,0.08675883052051067,0.21534568214081226,0.15967311395332218
1733751996898865000,4.585864990234375,0.1251777007639408,0.08245930669568478,0.2070835382953286
1733751996908840000,4.59583984375,0.15976619906425474,0.047642260336503386,0.23813699433729052
1733751996918815700,4.605815673828125,0.06832008751034736,-0.0015614771630614995,0.23528116651475428
1733751996928792000,4.6157919921875,-0.035925884383916855,0.005087167071178555,0.12952435166612267
1733751996938766800,4.625766845703125,-0.011226911935210228,0.25225334410369393,0.03275777574181556
1733751996948743000,4.635742919921875,-0.005917115089297294,0.16514876888543367,0.1609384577140212
1733751996958719000,4.645718994140625,-0.07654840215146541,0.05428352498188615,0.24179478619247674
1733751996968694000,4.655694091796875,-0.21347733098566532,-0.06965002093985677,0.37010961593836544
1733751996978669800,4.665669921875,-0.4045212963670492,-0.12614683805704116,0.42863472401276226
1733751996988644900,4.675644775390625,-0.45173196035325525,-0.10384528213888407,0.3083578009024262
1733751996998621000,4.685620849609375,-0.27614275373518465,0.01341002812795341,0.17794409918114543
1733751997008597000,4.695596923828125,-0.013562076884508133,0.12624503773450851,0.21143881089538336
1733751997018571800,4.70557177734375,0.17835750228762626,0.1494719648692757,0.26066476022675633
1733751997028548000,4.715548095703125,0.17218495113253593,0.07750701805055141,0.40827041976749895
1733751997038524000,4.72552392578125,0.04026303680539131,-0.10648498299270867,0.5005408533163368
1733751997048499000,4.7354990234375,-0.09257540784478187,-0.1860788172546774,0.5335290768131613
1733751997058475000,4.74547509765625,-0.2100181304425001,-0.21746106685958802,0.5060423733420669
1733751997068450800,4.755450927734375,-0.29341946722865103,-0.1798334931243211,0.42213484059944745
1733751997078425900,4.76542578125,-0.25322014330923553,-0.08747808470577001,0.3417880690783262
1733751997088402000,4.77540185546875,-0.15768354757130146,-0.10080058068074285,0.3243302999295294
1733751997098378000,4.7853779296875,-0.06199263805449009,-0.061222238203883166,0.4112643408864736
1733751997108353000,4.79535302734375,0.06879939545989036,-0.12555888210125266,0.3226373784065246
1733751997118329000,4.8053291015625,0.10477437968254089,-0.24410182102583347,0.3465473924346268
1733751997128305000,4.815304931640625,0.07574585359692573,-0.10999679050594567,0.23218553858697413
1733751997138280000,4.825280029296875,0.05264788660407066,-0.023119302041828632,0.16121011426225304
1733751997148256000,4.835256103515625,0.12691431529819966,0.023028993409872054,0.16563918275088071
1733751997158231000,4.84523095703125,0.21688334003686904,0.03425254434421658,0.1833252076976001
1733751997168206800,4.855206787109375,0.12368366281390189,0.024195626036450264,0.38069866836145516
1733751997178183000,4.865182861328125,-0.09688684130311012,0.03197495480105281,0.7118157058216631
1733751997188158000,4.875157958984375,-0.2676882291227579,0.0621020897783339,0.8939218931183218
1733751997198134000,4.885134033203125,-0.24088205526173112,0.03991320045441389,0.5918390808321535
1733751997208109800,4.89510986328125,-0.06946750397980213,-0.002932546320557594,0.18639613957554102
1733751997218085000,4.905085205078125,0.18729484198093413,-0.008637772224843502,0.07984685917496681
1733751997228061000,4.91506103515625,0.31956980752944947,0.031070114915817973,0.09902283041849731
1733751997238037000,4.925037109375,0.2572474991291761,-0.07469122997745871,0.2785989147156477
1733751997248012000,4.935011962890625,0.21318273195326326,-0.07226984804943204,0.31974341053068633
1733751997257988000,4.944988037109375,0.13870412181317807,-0.14829758732765913,0.6827075386285781
1733751997267963000,4.954962890625,0.019058920735120773,-0.25644772705361246,0.8867008558236062
1733751997277939000,4.96493896484375,-0.07236673255264758,-0.1450428233154118,1.1326166674688458
1733751997287915000,4.9749150390625,-0.10752513969540595,-0.0625105244487524,1.1559861448794602
1733751997297890000,4.98489013671875,-0.03483399749398231,-0.0077668346092104905,0.8618347101144492
1733751997307865900,4.994865966796875,0.07454992181062697,0.00181274851039052,0.41980508247762915
1733751997317842000,5.004842041015625,0.1603396150380373,-0.018537088818103075,0.2251576857767999
1733751997327817000,5.01481689453125,0.17407003422677517,-0.02465060326233506,-0.05267097521871328
1733751997337793000,5.02479296875,0.11932137595117091,-0.0623087182663381,0.007536386854201555
1733751997347769000,5.03476904296875,0.049013914015889164,-0.319597718449682,0.6801824040651321
1733751997357744000,5.044744140625,-0.05057809459269046,-0.35236572332456706,1.2051286537110806
1733751997367720200,5.05472021484375,-0.19727964490056038,-0.3312918095052242,1.2696990332990885
1733751997377696000,5.064696044921875,-0.3585451426118612,-0.3320445275686681,0.7522663741536438
1733751997387671300,5.07467138671875,-0.4530284299045801,-0.22741057927012442,0.4242264060512185
1733751997397647000,5.084647216796875,-0.33363808037042614,-0.1187083586193621,0.45071401548236606
1733751997407623200,5.094623046875,-0.04778407995998859,-0.0593855242960155,0.710370475449413
1733751997417598000,5.104597900390625,0.14004676859378815,-0.06117752227932215,0.9300744258649647
1733751997427574300,5.11457421875,0.08635024971961974,-0.11637553175762295,0.8941744065746664
1733751997437549000,5.124549072265625,-0.1939192285567522,-0.18767682703584432,0.6748010032877325
1733751997447525000,5.134525146484375,-0.35178047078251834,-0.1941981916286051,0.564375173714757
1733751997457501200,5.144501220703125,-0.26703122651875016,-0.11294672635272145,0.5591219293616712
1733751997467476200,5.154476318359375,-0.15248130275309085,-0.04103402117788792,0.7028166990689932
1733751997477452000,5.1644521484375,-0.006358429116010665,-0.06541720567569136,0.823769329483807
1733751997487428000,5.174427978515625,0.19856091688275337,-0.09209273889437317,0.8629002935193478
1733751997497403100,5.184403076171875,0.34668051729500293,-0.14766250429451463,0.8881760429427027
1733751997507379000,5.19437890625,0.3010369564950466,-0.27249372970834373,0.8367344633884728
1733751997517355300,5.204355224609375,0.027688801914453505,-0.38456206579133867,0.7638977752365171
1733751997527330000,5.214330078125,-0.2735194194942713,-0.36482977583929893,0.6757993666753173
1733751997537306000,5.22430615234375,-0.378778952345252,-0.20453341542109846,0.6235100842505693
1733751997547282200,5.2342822265625,-0.2689706701487303,-0.13041107137277722,0.45127705619260666
1733751997557257200,5.24425732421875,-0.062441550865769385,-0.07795067016482353,0.27262510100305076
1733751997567233000,5.25423291015625,-0.0033960721790790554,-0.0529850096039474,0.17934373684599994
1733751997577209300,5.264209228515625,-0.045432548397779465,0.07884805739596486,0.4531657925486564
1733751997587184000,5.27418408203125,0.05640402426719665,0.1213525895178318,0.7688789246499538
1733751997597160200,5.28416015625,0.15242168152034283,0.129270084644109,0.9144082163080572
1733751997607135000,5.294135009765625,0.09832885680496692,0.11461378278210758,1.0509897930093108
1733751997617111300,5.304111328125,0.053042438879609105,0.10438406519070267,1.0526116951227187
1733751997627087000,5.314087158203125,0.0174935711145401,-0.022964111480116844,0.9781583655543625
1733751997637062100,5.324062255859375,-0.03844692729413509,0.05068710792511701,0.949138753427565
1733751997647038200,5.3340380859375,0.05943126313388347,0.005115297187119722,0.825394738728553
1733751997657014000,5.344013916015625,0.19043080191910267,0.10964330089315771,0.7790371844403445
1733751997666989000,5.353989013671875,0.20531798992753028,0.03658464055359363,0.6913758521221578
1733751997676965000,5.363965087890625,0.14484335522055625,0.06989815048202871,0.7261189564622939
1733751997686941200,5.373941162109375,0.08662848213911056,0.17491759096682072,0.7582267438627779
1733751997696916200,5.383916259765625,-0.008701777371764183,0.169350019967556,0.9130228994295001
1733751997706892000,5.39389208984375,-0.03366203110516071,0.09875219678357243,0.9391662254676222
1733751997716868000,5.4038681640625,-0.06990238826572895,0.13103650979474185,0.948018955617398
1733751997726843100,5.413843017578125,-0.10481821882426738,0.0559236934043467,1.1194625868633388
1733751997736819000,5.42381884765625,-0.07327741765677928,0.11576909029707312,0.8653418414525688
1733751997746795300,5.433795166015625,0.007088496956229209,0.23313158726543187,0.44957712040692566
1733751997756770000,5.44377001953125,-0.006663549542427063,0.09064268621653318,0.5861253793604672
1733751997766746000,5.45374609375,0.0739087012976408,0.1271245970480144,0.7872900490008294
1733751997776721000,5.463720947265625,0.24738252319693563,0.13846359105557202,1.3492878260597585
1733751997786697200,5.473697265625,0.3188952692687511,0.17286211974173782,1.2719302994824946
1733751997796673000,5.483673095703125,0.16416180367469788,0.07716390370130538,0.9243540023915469
1733751997806648000,5.49364794921875,-0.026247955456376076,0.0003968903630971908,0.6467648492403328
1733751997816624000,5.5036240234375,-0.15809329741597175,-0.053238326777890324,0.5215332263320684
1733751997826600200,5.51360009765625,-0.07561492069363594,0.11803703522905706,0.5615209533274174
1733751997836575000,5.523574951171875,0.0710112262904644,0.18237988967150448,0.5425539486594498
1733751997846551300,5.53355126953125,0.16741642155647277,0.31220797352455554,0.5854562479272485
1733751997856527000,5.543527099609375,0.1345242057800293,0.4414606686424464,0.8504261580020189
1733751997866502100,5.553502197265625,0.06893032836318015,0.4094781881220638,1.2229483880400658
1733751997876478200,5.563478271484375,0.06300853709876537,0.36302338400445877,1.2423971848756075
1733751997886454000,5.5734541015625,0.20717501597106455,0.4258675243217498,1.0011277377314864
1733751997896429000,5.583428955078125,0.2757826882511377,0.17539280726313589,0.6286711933407932
1733751997906405000,5.593405029296875,0.15260229878425596,-0.01829714258238673,0.39701939630433913
1733751997916381200,5.603381103515625,0.1312251642346382,0.343569034210965,0.33702187758982177
1733751997926356000,5.61335595703125,0.0479144283413887,0.449694390111044,0.26610322495363653
1733751997936332300,5.623332275390625,-0.23798107312321662,0.33674605632312593,-0.060001318106800317
1733751997946307000,5.63330712890625,-0.3702309042304754,0.4346878135066479,-0.21654365975372492
1733751997956283100,5.643283203125,-0.15302724619805813,0.7018848981115967,-0.11070939575470984
1733751997966259000,5.653259033203125,0.1515203487664461,0.9015629824560135,0.12121113522052764
1733751997976234200,5.663234130859375,0.2460720251202583,0.7060040969334542,0.1825183848267421
1733751997986210000,5.6732099609375,0.09065817604660988,0.7313714701630175,0.13813980246130375
1733751997996186000,5.68318603515625,-0.04149053277373314,0.7455550399467349,0.2264768055513501
1733751998006161200,5.6931611328125,-0.03915302973687648,0.8070083834927528,0.38708204925563183
1733751998016137200,5.70313720703125,0.22527532080709933,1.046195325274393,0.5643306404532864
1733751998026113000,5.713113037109375,0.3667138360202312,0.7277854283697903,0.380355846273154
1733751998036088300,5.72308837890625,0.1876362027645111,0.4700598634000867,0.3472334019374102
1733751998046064000,5.733064208984375,-0.0019259996265172958,0.6708008277356624,0.32175997451748695
1733751998056040000,5.7430400390625,0.11609598416388034,0.6551829142998904,0.47458252845630045
1733751998066015000,5.753014892578125,0.08556991299688815,0.4764108398620039,0.5576429793829099
1733751998075991000,5.762990966796875,-0.13914602036178111,0.3238940274041146,0.6791673818036913
1733751998085966000,5.772966064453125,-0.2611310625642538,0.678447104705125,0.6061642510436475
1733751998095942100,5.782942138671875,-0.2707861951380968,0.6064192487180232,0.6792530873257666
1733751998105918200,5.792918212890625,-0.20903671818971634,0.5292430700570344,0.8568647396821528
1733751998115893200,5.802893310546875,-0.12787702285051344,0.7747747777555137,0.7499733678456395
1733751998125869000,5.812869140625,-0.05498889677226543,0.8431457917355001,0.4883271953660995
1733751998135845000,5.82284521484375,0.1763426553338766,0.7357914054971187,0.27458467410560694
1733751998145820200,5.832820068359375,0.2588444129317999,0.8529663440041243,0.23759771809512747
1733751998155796000,5.8427958984375,0.1825333266675472,0.852368378110975,0.46202904409244655
1733751998165772300,5.852772216796875,0.06796469820141791,0.6954855524633079,0.37583307161908597
1733751998175747000,5.8627470703125,-0.07415946118831634,0.5927799418788403,0.19131101881973445
1733751998185723100,5.87272314453125,-0.1108516537696123,0.5103665201514959,-0.3260612519079819
1733751998195699200,5.88269921875,-0.005399228695034981,0.4114120787940919,-0.18900887935720384
1733751998205674200,5.89267431640625,0.2783943320542574,0.40883280289061363,-0.2515144353698939
1733751998215650000,5.902650146484375,0.475984942600131,0.32668395038358866,-0.23243122044373302
1733751998225626000,5.912626220703125,0.4877981299906969,0.3023798224713653,-0.026419695294089614
1733751998235601200,5.92260107421875,0.27806758431792256,0.3506628649294376,0.41924869070388376
1733751998245577200,5.9325771484375,-0.027454993158578873,0.48138300225138664,0.7217069852389395
1733751998255552000,5.942552001953125,-0.032739071041345595,0.5091474266853183,0.4548432242415845
1733751998265528300,5.9525283203125,0.0665717825382948,0.5690661080099642,0.2217274190671742
1733751998275504000,5.962504150390625,0.10707213523089885,0.5354958468414843,0.1667556195601821
1733751998285479200,5.972479248046875,0.040645314121246334,0.5000100343752653,0.012118965404108166
1733751998295455200,5.982455322265625,-0.12483341737091541,0.5188401878558099,-0.17317366990894079
1733751998305431000,5.99243115234375,0.002305938854813576,0.2586225138094276,-0.23222221733555196
1733751998315406000,6.002406005859375,0.28478315630853174,0.31766959993131455,-0.22916801739670334
1733751998325382100,6.012382080078125,0.2642202607512474,0.3444496164377779,-0.2661434108335525
1733751998335358000,6.02235791015625,0.014924012887477875,0.28857779935114086,-0.2921041468463838
1733751998345332700,6.032332763671875,-0.17990823886096477,0.2310186867646873,-0.23046295257806776
1733751998355308800,6.042308837890625,-0.05718903716504573,0.203666131067276,-0.35966231007352467
1733751998365283800,6.052283935546875,0.1425491068035364,0.1953680391255766,-0.37017508239001035
1733751998375260000,6.062260009765625,0.29601591346263884,0.2381448853828013,-0.2344099366381764
1733751998385235700,6.072235595703125,0.25868776106536384,0.2309365614391863,0.028920754862204193
1733751998395210800,6.082210693359375,0.19443653042912482,0.2148612596247345,0.5505276309523731
1733751998405186800,6.092186767578125,0.396375399312377,0.32508520995005963,0.6128133336693048
1733751998415163000,6.102162841796875,0.7078267823159694,0.4401775700293481,0.6358882120475172
1733751998425137700,6.1121376953125,0.7884715138703584,0.4635479242227971,0.2878792956929654
1733751998435114000,6.122114013671875,0.5588152015000581,0.3798558608617633,-0.010025646386668086
1733751998445089800,6.13208984375,0.44118601641952987,0.2707449863448739,-0.09200549900233745
1733751998455064800,6.14206494140625,0.5052414322227239,0.2632457896959036,-0.12361629666611551
1733751998465041000,6.152041015625,0.5013742354005575,0.27440884261466564,-0.05736453986242413
1733751998475017000,6.162016845703125,0.48025136787295336,0.3611300445385277,-0.037734687371551986
1733751998484991700,6.17199169921875,0.26098493209183216,0.3187530843190849,0.2116774419568479
1733751998494968000,6.181968017578125,0.1757540417909622,0.38521307704597707,0.17402663347646594
1733751998504943900,6.19194384765625,0.3376315339207649,0.5323330719616264,-0.13334873225986957
1733751998514919000,6.2019189453125,0.34582068559527396,0.35606392025537786,-0.33061770963594317
1733751998524894700,6.211894775390625,0.346674672076106,0.21498758941814303,-0.45336774486154313
1733751998534870800,6.221870849609375,0.43463586412370203,0.10181669892072677,-0.45910511946976185
1733751998544845800,6.231845703125,0.4856377370864153,0.07003624377846718,-0.5536927439197897
1733751998554821600,6.241821533203125,0.2973410245865583,-0.1180791208051145,-0.4304812286622822
1733751998564797000,6.251796875,0.0980856956988573,-0.18316972487494348,-0.3484337907031178
1733751998574772700,6.261772705078125,-0.04327624714672565,-0.17567922298908234,-0.4214240619815886
1733751998584748800,6.271748779296875,-0.16033669242858886,-0.10283172118216752,-0.5096780994959176
1733751998594723800,6.281723876953125,-0.3563052547305822,-0.041541093917191026,-0.5535752550199627
1733751998604700000,6.291699951171875,-0.4273427845060825,0.08553761816248297,-0.6049535600796342
1733751998614675700,6.30167578125,-0.36642858933806416,0.20708368442580102,-0.6424694901339709
1733751998624650800,6.311650634765625,-0.2926864767789841,0.31088571194484826,-0.48645577547103164
1733751998634626800,6.321626708984375,-0.14270458962619303,0.501634347641468,-0.2497526133291423
1733751998644603000,6.331602783203125,-0.04344458945095539,0.6019052784249186,-0.24122853061184285
1733751998654577700,6.34157763671875,0.08626841665506363,0.5540487177506089,-0.4140881661355495
1733751998664554000,6.351553955078125,0.1451765326976776,0.439104533970356,-0.5166577292501926
1733751998674529800,6.36152978515625,-0.044613633230328555,0.26273089897632596,-0.5242877857372165
1733751998684504800,6.3715048828125,-0.2979173631697893,0.11577727360352873,-0.5666520326055586
1733751998694481000,6.38148095703125,-0.38712826301753517,0.046746553605794904,-0.3092925975345075
1733751998704456000,6.3914560546875,-0.4538222106307745,0.013647855471819638,-0.030924568965286014
1733751998714431700,6.401431640625,-0.49247722771763797,0.05546718180850148,-0.05920534542351961
1733751998724407800,6.41140771484375,-0.30988895599246025,0.13749839928522706,-0.5868500403732061
1733751998734382800,6.4213828125,0.052260348591208455,0.26609482245147226,-0.9105842741057276
1733751998744358700,6.431358642578125,0.24169512521028516,0.23066154389008878,-0.4206850801825523
1733751998754335000,6.4413349609375,0.2711749021947384,0.3838965876199305,0.12917729179412127
1733751998764309800,6.451309814453125,0.22174831572473047,0.504311604026705,0.25254502052664757
1733751998774285800,6.461285888671875,0.015577508360147475,0.466423041267693,0.2878754232354462
1733751998784262000,6.471261962890625,-0.29691432360708714,0.3373031787492335,-0.07821706601604819
1733751998794237000,6.48123681640625,-0.4621949021786451,0.3194859286382794,-0.4125305614300072
1733751998804212700,6.491212646484375,-0.3965174381315708,0.32500366914644835,-0.5339227523058653
1733751998814188800,6.501188720703125,-0.009372223979234694,0.3037418315395713,-0.6409361430868507
1733751998824163800,6.511163818359375,0.29364743076562877,0.29876974221542474,-0.7476344765692949
1733751998834140000,6.521139892578125,0.216432089138031,0.183216340495646,-0.8435198857448994
1733751998844115700,6.53111572265625,0.02366495322585106,0.08584639185070991,-0.8787935898303985
1733751998854091000,6.541091064453125,0.12955986137092113,0.10071370611488818,-0.8213260279849172
1733751998864066800,6.55106689453125,0.3260767052054405,0.09265168795138597,-0.6952319430284202
1733751998874041900,6.561041748046875,0.4105640836626291,0.09277122267782688,-0.577785421038419
1733751998884018000,6.571017822265625,0.29551439368128773,0.15078136696740985,-0.3627718203961849
1733751998893993700,6.58099365234375,-0.024909400328993796,0.06843772254064678,-0.4073302163079381
1733751998903968800,6.59096875,-0.11416881549358367,0.08620762637853623,-0.511336972618848
1733751998913944800,6.60094482421875,-0.07473696881532668,0.23425138507559895,-0.5014787186883389
1733751998923921000,6.6109208984375,0.01462006150484085,0.2611320854775607,-0.41846506604552264
1733751998933896000,6.62089599609375,0.25986089649796484,0.24717121853381394,-0.41180721559152006
1733751998943871700,6.630871826171875,0.5020464355736971,0.272487592228502,-0.6268874517291784
1733751998953847800,6.640847900390625,0.5656435862153768,0.2570353176832199,-0.8690272519670427
1733751998963822800,6.65082275390625,0.5271861375272273,0.007222206338495016,-1.1366126052372156
1733751998973798700,6.660798583984375,0.47928690675497054,-0.1261842474579811,-1.3959222975932062
1733751998983775000,6.67077490234375,0.3346954804688692,-0.09267916048020124,-1.4372805822893977
1733751998993749800,6.680749755859375,0.16852935123443602,-0.09700725281238555,-1.355157156484574
1733751999003725800,6.690725830078125,0.0669715955108404,-0.0855330881178379,-1.196128770175576
1733751999013700600,6.70070068359375,0.09409633380174637,0.060848436455428596,-0.8606818868175149
1733751999023677000,6.710677001953125,0.18842647635936735,0.20501973763331768,-0.4807726152680814
1733751999033652700,6.72065283203125,0.28803602062463757,0.22865984867885708,-0.2106466376043856
1733751999043627800,6.730627685546875,0.32329028935730453,0.18669190765172242,-0.130554133105278
1733751999053603800,6.740603759765625,0.27362697152197357,0.13555837113335728,-0.20850684909671544
1733751999063580000,6.750579833984375,0.2255553067922592,0.06626315498054026,-0.3670579732827842
1733751999073554700,6.7605546875,0.2101829656153917,0.004236906917393207,-0.4969562728278339
1733751999083531000,6.770531005859375,0.2912549826711416,-0.04993029820844531,-0.6762687377527355
1733751999093506800,6.7805068359375,0.3934539589077234,-0.13285086574032903,-0.8810214950129389
1733751999103481900,6.79048193359375,0.3704863402962684,-0.11009878957569598,-1.011423506296426
1733751999113458000,6.8004580078125,0.2620493464529514,-0.07072320312932133,-1.0407504308067261
1733751999123433700,6.810433837890625,0.2114993089109659,-0.023456132780760527,-1.0242238050282
1733751999133408800,6.82040869140625,0.2581558461457491,0.04864610361680388,-0.9443395364522933
1733751999143384800,6.830384765625,0.25325229201316835,0.14718889543339608,-0.8386896891094744
1733751999153361000,6.84036083984375,-0.06349602835476398,0.17718012907132505,-0.7334398008696734
1733751999163335700,6.850335693359375,-0.43575113188922404,0.08814122478961944,-0.65977835233137
1733751999173311700,6.860311767578125,-0.6289718567878008,0.009588789339363574,-0.6245270062081515
1733751999183286800,6.870286865234375,-0.3599041560053825,0.03486570780649781,-0.44321021572351454
1733751999193262800,6.880262939453125,-0.04802841010987759,0.08053089591637254,-0.14151932536438105
1733751999203238700,6.89023876953125,-0.05682780263721943,-0.024030279406905174,0.19008929500505328
1733751999213214000,6.9002138671875,-0.20976269437670705,-0.13182824469432233,0.395159301520884
1733751999223189800,6.910189697265625,-0.2241314114689827,-0.07448825475126504,0.40536534597575663
1733751999233165800,6.920165771484375,-0.1365326229929924,0.06552461157292128,0.3105859983459115
1733751999243140900,6.930140869140625,0.26215631395876404,0.13328297354727983,0.20297391101941464
1733751999253117000,6.940116943359375,0.5279360791116953,0.11762670086249709,0.17540785870179532
1733751999263092700,6.9500927734375,0.39584757604598997,-0.0006423895567655563,0.008184037107974291
1733751999273067800,6.96006787109375,0.1470768133610487,-0.061579673339426516,-0.25662995175272224
1733751999283043800,6.9700439453125,-0.11891104158461094,-0.14352233574986456,-0.3898043503589928
1733751999293019600,6.98001953125,-0.341771702465415,-0.1377276779964566,-0.37845600400120016
1733751999302994700,6.98999462890625,-0.40822131992876526,-0.04579524423032999,-0.4104566777653992
1733751999312970800,6.999970703125,-0.48893268697857856,0.10984876033738254,-0.3929151758559048
1733751999322945800,7.00994580078125,-0.4055319347143173,0.27440233980864287,-0.2145736017897725
1733751999332922000,7.019922119140625,-0.2504424952894449,0.41770621050223705,0.09261997763887048
1733751999342898400,7.0298984375,-0.12378010892570018,0.4646265132397413,0.31843904993385075
1733751999352873200,7.039873291015625,-0.12397767732441424,0.3917674671255052,0.30684637342616916
1733751999362849300,7.049849365234375,-0.2655354350030422,0.16890987498462198,0.2630037245683372
1733751999372825300,7.059825439453125,-0.5074976867169142,-0.08144231167286634,0.10998495393767953
1733751999382800400,7.06980029296875,-0.6893506299048662,-0.27713863290473817,-0.10804214930683374
1733751999392776200,7.079776123046875,-0.09156243140995501,-0.33279695337116716,-0.23703984675034878
1733751999402752500,7.08975244140625,0.783138336148858,-0.315516148224473,-0.1800814034707844
1733751999412727300,7.099727294921875,0.8811486285239457,-0.3384728070504963,-0.19735168722346424
1733751999422703400,7.109703369140625,0.23058920930624008,-0.301285232167691,-0.49898310248032207
1733751999432679400,7.119679443359375,-0.4983750535845756,-0.21672741882279514,-0.7369397718146443
1733751999442654500,7.129654541015625,-0.909641732558608,-0.07699585365802049,-0.7590477048568427
1733751999452630300,7.13963037109375,-0.6675736823827028,0.20000760855972766,-0.527301434469968
1733751999462606300,7.1496064453125,0.03601706979870796,0.46737727325260636,-0.26632877733781934
1733751999472581400,7.159581298828125,0.6323001244276761,0.5705556159153581,-0.09622823126390576
1733751999482557200,7.16955712890625,0.8202583987534046,0.5485325846776365,0.026680647785216567
1733751999492532200,7.1795322265625,0.7421154208868741,0.408082934371382,-0.014901947186142205
1733751999502508300,7.18950830078125,0.6081202074170112,0.2233100120835006,-0.12426891535595058
1733751999512484400,7.199484375,0.35229543456733226,0.04691270395293832,-0.33508111878558994
1733751999522459400,7.20945947265625,0.025388708278536794,-0.033766076001524925,-0.5938578733086586
1733751999532435500,7.219435546875,-0.1844727702975273,-0.0029608956322073935,-0.8584626033328473
1733751999542411300,7.229411376953125,-0.27895313498079777,0.10859393797069787,-0.8287779514260589
1733751999552386300,7.23938623046875,-0.26674481079280377,0.28962898890450595,-0.5201926253780722
1733751999562362400,7.2493623046875,-0.03687923958599567,0.5793189142160118,-0.25128727555051444
1733751999572338400,7.25933837890625,0.27916531642675396,0.7713092205367982,-0.08005524122864008
1733751999582313200,7.269313232421875,0.5443032765448093,0.6851059780724347,0.057661915373802185
1733751999592289300,7.279289306640625,0.6245920342683792,0.5540263597883284,0.22273849580585955
1733751999602265300,7.289265380859375,0.4812941549241542,0.37952027223184703,0.27890169705450535
1733751999612240400,7.299240478515625,0.2610661806344986,0.2076816503189504,0.14014467601031064
1733751999622216200,7.30921630859375,0.12684534171521664,0.11380655805245041,-0.05507599053382873
1733751999632191500,7.31919140625,0.06359247446656227,0.1528301161907613,-0.18304580623432992
1733751999642167300,7.329167236328125,0.13458207344710826,0.1463835703998804,-0.17303908374384044
1733751999652143400,7.339143310546875,0.13108020280599594,0.22614508937895297,-0.13412746154740451
1733751999662118400,7.349118408203125,-0.052231707018613814,0.29910175064876676,-0.12789236655011774
1733751999672094500,7.359094482421875,-0.2138654535204172,0.46784255267679686,-0.043799248107522726
1733751999682070300,7.3690703125,-0.24514789601266382,0.5510380646925419,0.011631254952400923
1733751999692045300,7.37904541015625,-0.20224398930966853,0.5858816337324678,0.1587114293143153
1733751999702021400,7.389021484375,-0.16400047563314438,0.5398685089677572,0.3381552655339241
1733751999711997200,7.3989970703125,-0.1557768371671438,0.4293212449721992,0.36559922584183513
1733751999721972200,7.40897216796875,-0.025844050830602646,0.4009500868167728,0.3781830322787165
1733751999731948300,7.4189482421875,0.2004015763133764,0.3317076968297362,0.4324568395841866
1733751999741924400,7.42892431640625,0.3306067498505115,0.1892185765851289,0.5557669198453427
1733751999751899100,7.438899169921875,0.2786994524806738,0.08118862917274236,0.5254103600263595
1733751999761875500,7.44887548828125,0.08340659748315811,0.008154299556836485,0.35459355544187127
1733751999771850200,7.458850341796875,-0.18007541212141512,0.030424802749603984,0.23934826982319354
1733751999781826300,7.468826416015625,-0.2960965774834156,0.066118193551898,0.12482844893485306
1733751999791802400,7.47880224609375,-0.3062105597406626,0.11374591390639543,0.061898237769305704
1733751999801777400,7.48877734375,-0.22557401149272918,0.1342838211528957,-0.024932488943636415
1733751999811753200,7.498753173828125,-0.14550854113101958,0.0913374635476619,-0.08889861902818083
1733751999821729500,7.5087294921875,-0.021911387556791305,0.09614004152379929,-0.13336086108908057
1733751999831704300,7.518704345703125,0.045859249377250666,0.05321012359671294,-0.23198512064404783
1733751999841680400,7.528680419921875,0.13064707208573817,-0.019769480157271025,-0.20576259188987314
1733751999851656400,7.538656494140625,0.4203671002745628,0.0012498539306223392,-0.14154595764297992
1733751999861631500,7.548631591796875,0.5350771830379962,-0.026804566425830123,0.07700582706276327
1733751999871607300,7.558607177734375,0.3039782706439495,-0.047812794597819445,0.2001577210875228
1733751999881583000,7.5685830078125,-0.07219312955141068,-0.05563493959084153,0.24712284934744239
1733751999891558400,7.578558349609375,-0.4441881208449602,-0.025332740307599303,0.3812859301974997
1733751999901534200,7.5885341796875,-0.7166776127696037,0.1192463379535824,0.4620500503478572
1733751999911510300,7.59851025390625,-0.7737140897214412,0.325924729514122,0.38459443369098006
1733751999921485300,7.6084853515625,-0.5468903704285621,0.4260614394586533,0.27617351419962943
1733751999931461400,7.61846142578125,-0.1781628564983606,0.4585854795098305,0.2380378448117524
1733751999941436400,7.6284365234375,0.1815320406705141,0.5115003464870155,0.18727748898733407
1733751999951412500,7.63841259765625,0.3234329126983881,0.3348537397705018,0.1169246535403654
1733751999961388300,7.64838818359375,0.38008360520303247,0.27269378232508895,0.09754108569445089
1733751999971363300,7.65836328125,0.40069033990204334,0.07174947743713855,0.14211580255334264
1733751999981339100,7.668339111328125,0.39868893695175645,0.032422406307607884,0.0012064349140040575
1733751999991315500,7.6783154296875,0.19934943691194057,0.17812661614120007,-0.06279460665371735
1733752000001290200,7.688290283203125,0.06943301718831062,0.1822490298334509,-0.19926957660876213
1733752000011266300,7.698266357421875,-0.026515081959962845,0.2765865519799292,-0.14353201689366252
1733752000021242400,7.708242431640625,-0.049517771884799,0.29235118041001257,-0.13138461084635927
1733752000031217400,7.718217529296875,-0.028575521621108053,0.41864546411372716,0.07011227728989906
1733752000041193200,7.728193115234375,0.046422728478908534,0.6242992618668824,0.015449495783017481
1733752000051169300,7.738169189453125,0.09825754513442515,0.5854658925384283,-0.08031909806290641
1733752000061144300,7.748144287109375,0.10506839419305324,0.5324285682253539,-0.01589500649423571
1733752000071120400,7.758120361328125,0.1484095232695341,0.4431452607285231,0.2839541398721747
1733752000081095200,7.76809521484375,0.24030630120038984,0.4528597222741693,0.3383991207597777
1733752000091071500,7.778071533203125,0.09202128109335898,0.4514367037337273,-0.03618169034246821
1733752000101047300,7.78804736328125,-0.14545476511716843,0.33115561590492726,-0.07637056136652827
1733752000111022300,7.798022216796875,-0.26374913610816,0.2918786675274372,0.017586555760772896
1733752000120998400,7.807998291015625,-0.329720030143857,0.3454340974304825,0.05656902383686974
1733752000130974200,7.81797412109375,-0.3534773378282785,0.35501419200673695,0.12411823657257481
1733752000140949200,7.82794921875,-0.24593466247618198,0.34075331920310853,0.1983376660535112
1733752000150925300,7.83792529296875,-0.15966624582111835,0.25716749269552525,0.21394527729097754
1733752000160901400,7.8479013671875,-0.050990767046809195,0.2171065543334931,0.1910899964801967
1733752000170876200,7.857876220703125,0.19265023153424263,0.24157076817825435,0.2725536066694185
1733752000180852500,7.8678525390625,0.21267010625600813,0.17936251461170613,0.398459694773145
1733752000190828300,7.877828369140625,0.014285714983940124,0.08623290695026517,0.4057707484388724
1733752000200803300,7.88780322265625,-0.17386837417483328,0.09809672854952514,0.396488394700177
1733752000210779400,7.897779296875,-0.18293138607442377,0.2126617768190801,0.47585872240457683
1733752000220754400,7.90775439453125,-0.08908522764146327,0.3474055436339229,0.6388384401552378
1733752000230730200,7.917730224609375,-0.13514087637364863,0.401271427725628,0.6434981025293469
1733752000240706600,7.92770654296875,-0.2593471017569303,0.4634627301573753,0.7596557537525892
1733752000250681300,7.937681396484375,-0.24640695616304872,0.47491592512913045,0.8793201709877699
1733752000260657400,7.947657470703125,-0.11417524523437023,0.31943003373257817,0.8751893547933548
1733752000270633200,7.95763330078125,0.28914018247425555,0.27296295465528964,0.7758850770849735
1733752000280608500,7.9676083984375,0.5724345615297556,0.2413029840875417,0.6607862872648984
1733752000290584300,7.977584228515625,0.4515431597828865,0.16346439599506557,0.5834272263176739
1733752000300560100,7.98756005859375,0.08085282134711742,0.032182460071891544,0.44844351326711474
1733752000310535400,7.997535400390625,-0.17620470816791056,-0.06416099506951868,0.16353073922954497
1733752000320511200,8.00751123046875,-0.2441547933220863,-0.05399893588684499,0.16118205721154807
1733752000330487300,8.0174873046875,-0.042236967226862904,0.13576309992522,0.035863778933137656
1733752000340462000,8.027462158203125,0.18262626564800738,0.24727387519069013,0.14677129107583314
1733752000350438400,8.0374384765625,0.3574287058025598,0.2622679576396942,0.3528095215693116
1733752000360414200,8.047414306640626,0.3169879743427038,0.3395825218580663,0.3294152750436216
1733752000370389200,8.05738916015625,0.024983634608983993,0.458988726548478,0.1706753868198022
1733752000380365300,8.067365234375,-0.22042671173214912,0.6181023799881339,0.009773534789122641
1733752000390340400,8.07734033203125,-0.17533903124928474,0.6661099665056913,0.009708981652930378
1733752000400316200,8.087316162109374,0.049474517264962194,0.6053158175207675,0.14720270476303993
1733752000410292500,8.09729248046875,0.20730127269923684,0.4619857164073735,0.2831899323003366
1733752000420267300,8.107267333984375,0.3020020021349191,0.2884890981543809,0.3532815595278516
1733752000430243300,8.117243408203125,0.1606575949460268,0.2059540228087455,0.4178518295180052
1733752000440219400,8.127219482421875,0.016688099950551986,0.22300430713519453,0.46985188320521265
1733752000450194400,8.1371943359375,0.13248247081935405,0.35623803471326826,0.444807019928284
1733752000460170200,8.147170166015625,0.09266074804067612,0.37056612753421064,0.3418077236268669
1733752000470146300,8.157146240234376,-0.16038754583299158,0.2807815925169736,0.2089799465011805
1733752000480121300,8.167121337890626,-0.33497254384458064,0.19318053901866078,0.15863726809956133
1733752000490097400,8.177097412109376,-0.353021410754323,0.1378700090765953,0.06995280327871442
1733752000500073500,8.187073486328124,-0.3504752334028482,0.18333156437315046,-0.03614931787624955
1733752000510048500,8.197048583984374,-0.3352998761028051,0.080955258808285,-0.05822495608404278
1733752000520024300,8.2070244140625,-0.2278039625018835,-0.07267221830524503,0.007157105213031172
1733752000529999400,8.216999267578124,-0.1473603064775467,0.071366323338449,-0.014900193620473146
1733752000539975400,8.226975341796875,-0.17034487622380257,0.3512202065512538,-0.08565751821510494
1733752000549951200,8.236951171875,-0.010515548795461654,-0.03277728415988385,0.4021249027498066
1733752000559926300,8.24692626953125,0.21595570379793644,-0.558866127969697,0.8420029783759265
1733752000569902300,8.25690234375,0.30115210730731484,-0.42284240434691306,1.0216319619040937
1733752000579878400,8.26687841796875,0.2060784529060125,-0.07069448849149047,1.042973952075094
1733752000589853200,8.276853271484375,-0.036870471757650375,0.1497259396303445,0.6707027741886675
1733752000599829500,8.28682958984375,-0.2010731919646263,0.15030140143074094,0.3351135597504675
1733752000609805300,8.296805419921874,-0.12917992214262486,0.05274272528067231,0.188252727227658
1733752000619780400,8.3067802734375,0.1219493863672018,-0.06712620155066251,0.16966288530901075
1733752000629756200,8.316756103515624,0.27094226248264314,-0.13554843426123261,0.17196312507539988
1733752000639732500,8.326732421875,0.3929910175710916,-0.14334171848595142,0.18907792600542306
1733752000649707300,8.336707275390625,0.32753976349532604,-0.17387341567613182,0.07101919040121138
1733752000659683300,8.346683349609375,0.13850363080501554,-0.16256576665490866,0.038312268063798546
1733752000669658400,8.356658447265625,0.040672202128171915,-0.1593743502024561,0.03688157767355442
1733752000679634400,8.366634521484375,0.12400456533133983,-0.12067527477815747,0.10354498401805758
1733752000689610200,8.3766103515625,0.2823006918430328,-0.08298442654833198,0.20425050682649015
1733752000699585500,8.38658544921875,0.2692325359553098,-0.03896159881800413,0.2978609568074345
1733752000709561300,8.396561279296876,0.016390578308701515,0.09456446277014911,0.2882346850018948
1733752000719537200,8.406537109375,-0.24462533344328402,0.24779161545448003,0.2252860613968223
1733752000729512200,8.41651220703125,-0.3242044815927744,0.26059016062058504,0.22143486586138605
1733752000739488300,8.42648828125,-0.1470376503944397,0.17657449132837355,0.24457901008352637
1733752000749464300,8.43646435546875,0.04533960941731929,-0.003541691194847226,0.17567513133585452
1733752000759439000,8.446439208984375,0.15621230597496033,-0.07791033815443515,0.16555048155412078
1733752000769415400,8.45641552734375,0.27014614366889,-0.10070596119984984,0.19574286378733813
1733752000779391200,8.46639111328125,0.3081599402427673,-0.1339747552037239,0.23037286314181982
1733752000789366300,8.4763662109375,0.23675065454542635,0.044024142904579636,0.34409313115030526
1733752000799342300,8.48634228515625,0.12335399246811866,0.15091843735054133,0.3264451001264155
1733752000809318400,8.496318359375,-0.03659223933815956,0.19808146280273795,0.2710623086657375
1733752000819293200,8.506293212890625,-0.12518413050472735,0.25045637768432494,0.2411430442854762
1733752000829269500,8.51626953125,-0.07548632587790488,0.2345858777269721,0.2277108043257147
1733752000839244300,8.526244384765626,0.06817980225682259,0.1986461840134114,0.1978976306684315
1733752000849220400,8.536220458984374,0.11619944453835487,0.14858195722699163,0.1877787530403584
1733752000859196400,8.546196533203124,-0.0018570260435342787,0.09380633787922561,0.24120171567015347
1733752000869171500,8.55617138671875,-0.15153613085746764,0.035466450178623196,0.3398752942595631
1733752000879147300,8.566147216796875,-0.292498260730505,0.0316495222389698,0.4821056174375117
1733752000889123300,8.576123291015625,-0.32861119211912154,0.05782258582822978,0.6835765765480697
1733752000899098400,8.586098388671875,-0.2768003408610821,0.09607201778888702,0.7555953724458814
1733752000909074400,8.596074462890625,-0.29649989758729933,0.23135244876369832,0.7672119412858038
1733752000919050200,8.60605029296875,-0.32505554546415805,0.34500922308191656,0.7059995668888092
1733752000929025500,8.616025634765625,-0.30920389633774753,0.3178040399659425,0.5125185105536133
1733752000939001300,8.62600146484375,-0.16265139911174772,0.19503559230081735,0.2393007043544203
1733752000948977200,8.63597705078125,0.08408055122196674,0.04303337830156088,0.11637743145376443
1733752000958952400,8.645952392578126,0.2567787125736475,-0.05173040643297135,0.03653115680068731
1733752000968928300,8.65592822265625,0.1831780543118715,-0.07219444472566247,-0.041722222637757655
1733752000978903300,8.6659033203125,-0.05248597404062748,-0.010342603381350636,-0.11052709799036382
1733752000988879400,8.67587939453125,-0.2645499310970306,0.08023797738440334,-0.18921097780056298
1733752000998855400,8.68585546875,-0.2976683568447828,0.2054950269948691,-0.14027904297970234
1733752001008830200,8.695830322265625,-0.15183599058687686,0.30612609632760285,-0.022114728109166024
1733752001018806300,8.70580615234375,0.03271861277520657,0.32648594359345734,0.15630919047817587
1733752001028782300,8.7157822265625,0.06229483587145805,0.25485914268791676,0.27449958963803944
1733752001038757400,8.72575732421875,-0.0507943676918745,0.13052468781508506,0.29413178021647035
1733752001048733200,8.735733154296875,-0.19807693275809288,-0.0060200640071183436,0.2510210988949984
1733752001058709500,8.74570947265625,-0.23660803120434282,-0.08568352943919598,0.2192951504189521
1733752001068684300,8.755684326171876,-0.08641863878071307,-0.12587445085644722,0.19739647621326148
1733752001078660400,8.765660400390624,0.1186339782088995,-0.10246003832556307,0.31788799192234873
1733752001088636400,8.775636474609374,0.15450374849140644,-0.09268580941669642,0.4183713964127004
1733752001098611500,8.785611572265625,0.0004249474138021469,-0.09409282667040825,0.4751187542248517
1733752001108587300,8.795587158203125,-0.1256353814035654,-0.011839052484184502,0.5269806050177663
1733752001118562300,8.805562255859375,-0.0815899034500122,0.003347922188416123,0.5299036528576165
1733752001128538400,8.815538330078125,0.12294015097022055,-0.03528122980482876,0.4528130335882306
1733752001138514200,8.82551416015625,0.26251754848659037,-0.1126399254258722,0.3550982170283794
1733752001148489200,8.8354892578125,0.2332499529480934,-0.1719093490615487,0.27951434906013306
1733752001158465300,8.84546533203125,0.1128998184710741,-0.17617957372665405,0.24735439308099447
1733752001168441300,8.85544140625,0.0711374830186367,-0.11094320451058447,0.24180450386889277
1733752001178416000,8.865416015625,0.034493221232295035,-0.0389337609630078,0.2896615029346198
1733752001188392400,8.875392333984376,-0.02849427307844162,-0.018944719770923255,0.24473778084181247
1733752001198368300,8.8853681640625,-0.03616086218357086,-0.04359649207703769,0.12577552052661775
1733752001208343300,8.89534326171875,-0.043078678748011585,-0.07567359207831323,0.16008498268984256
1733752001218319400,8.9053193359375,-0.00827273830473423,-0.13780702684298157,0.2801758086435497
1733752001228295400,8.91529541015625,0.04206044161617756,-0.23275873536504804,0.39320254142992195
1733752001238270200,8.925270263671875,0.15623685589432715,-0.30452004937045274,0.4595210067942738
1733752001248246500,8.93524658203125,0.2558013919740915,-0.35911008301824326,0.5926574114777148
1733752001258221300,8.94522119140625,0.20974691228568554,-0.31180173081122337,0.7378330673925578
1733752001268197400,8.955197265625,0.04803659341633319,-0.19766433336921035,0.8046081174179911
1733752001278173200,8.965173095703125,-0.17432897742390632,-0.10119221034683286,0.8385415128104389
1733752001288148500,8.9751484375,-0.39247605378627776,-0.07819996875077485,0.7211575346626341
1733752001298124300,8.985124267578126,-0.367187883272767,-0.05338832970783114,0.6030658466368913
1733752001308100000,8.99510009765625,-0.10699264025390147,-0.05811207029409706,0.5762899217836559
1733752001318075400,9.005075439453124,0.10687047517895698,-0.09622706222012639,0.5655481630168855
1733752001328051500,9.015051513671875,0.12238777778446673,-0.14990575317665933,0.49996714508160944
1733752001338027000,9.025027099609375,0.028342297387123107,-0.16770261808671055,0.4790286942102015
1733752001348002300,9.035002197265625,0.039383915883302686,-0.18374577119722962,0.5701243848912417
1733752001357978000,9.04497802734375,0.05545768332779407,-0.1997027073290199,0.693549981290847
1733752001367954000,9.054953857421875,0.09340016823112963,-0.18895291138626635,0.7938419548623263
1733752001377929200,9.06492919921875,0.10451485196352005,-0.2072672242991626,0.8790715299889444
1733752001387905000,9.074905029296875,0.010088263294100761,-0.22980697288736698,0.8919947244480252
1733752001397880000,9.084880126953125,-0.2167763725310564,-0.199726307400316,0.8253655126340687
1733752001407856000,9.094856201171876,-0.35447336312830446,-0.10766973579786718,0.6967718659467995
1733752001417832200,9.104832275390624,-0.28398586845099927,-0.07789009908400475,0.6837042945809662
1733752001427807000,9.114806884765626,-0.1380441965997219,-0.12861607771478592,0.6344932505577803
1733752001437783000,9.124782958984374,0.01421966401040554,-0.1294422263406217,0.7469700213111936
1733752001447759000,9.134759033203125,0.09628010758161544,-0.12030059624686837,0.9404228013999759
1733752001457734100,9.144734130859375,0.13399930512309075,-0.12136106508523226,1.0806801440045237
1733752001467710000,9.1547099609375,0.11257131716907023,-0.14398323125988244,1.1214718808591364
1733752001477686300,9.164686279296875,0.0008095628172159195,-0.15046579821221528,1.0458312412023543
1733752001487661000,9.1746611328125,-0.13507482540011406,-0.15150325150117278,0.9111221803747117
1733752001497637000,9.18463720703125,-0.2593044316589832,-0.1568993383910507,0.8314619298130274
1733752001507613200,9.19461328125,-0.20460604226589202,-0.17214622655734418,0.8098863500818609
1733752001517588200,9.204588134765626,-0.047615153133869166,-0.15079941408075392,0.8044009044080972
1733752001527564000,9.21456396484375,0.10017185432314872,-0.202259406074509,0.8319538049831986
1733752001537539000,9.2245390625,0.24235505042374134,-0.29435192577317354,0.8216783485539257
1733752001547515100,9.23451513671875,0.32043723801374435,-0.3232431622799486,0.7926448540322482
1733752001557491000,9.244490966796874,0.25949557031691073,-0.31104141396321355,0.984390976333618
1733752001567466000,9.254466064453124,0.1894400373160839,-0.2551153824713081,1.1069121712394059
1733752001577442000,9.264442138671875,0.13531974007189274,-0.15553141103871165,1.1240396855205297
1733752001587418000,9.274418212890625,0.11790098775923251,-0.041857539455220104,1.0045544973097742
1733752001597393200,9.28439306640625,0.10178688830435276,0.028161314797028898,0.8421113341212272
1733752001607369200,9.294369140625,0.06335866571068763,0.04391498344168067,0.7773787497088313
1733752001617345000,9.304344970703125,-0.0004851531684398651,-0.06550817189477384,0.8001984842821955
1733752001627320000,9.314320068359375,-0.08258826683759689,-0.11179463370814918,0.8651419349662959
1733752001637296000,9.324296142578126,-0.13237199618220327,-0.20502477913461625,0.9275263488173484
1733752001647272200,9.334272216796874,-0.1022597665131092,-0.20123093980960546,0.9399678972393274
1733752001657247000,9.3442470703125,0.05242693732976913,-0.21817411049976942,0.9532777529284358
1733752001667223300,9.354223388671874,0.09986147319972515,-0.1452097043149173,0.8986435148127376
1733752001677198000,9.364197998046874,0.00816986245214939,-0.06125847856104374,0.8517335873387754
1733752001687174100,9.374174072265625,-0.0076899699807167045,0.07519640302062035,0.7760232434466481
1733752001697150200,9.384150146484375,0.003016132950782776,0.18617708999738097,0.7650786555841564
1733752001707125200,9.394125244140625,-0.03582417757511139,0.16433073050081728,0.7001995023079216
1733752001717101000,9.40410107421875,-0.07584639136195183,0.30932401558607814,0.679074735084176
1733752001727077000,9.4140771484375,-0.051986207824945445,0.3648391281895339,0.7558154449373483
1733752001737052200,9.42405224609375,-0.022099603605270385,0.3682857615120709,0.7786126754179596
1733752001747028200,9.4340283203125,0.050285249125957485,0.37009836389198897,0.7498624548170715
1733752001757004000,9.444004150390626,-0.07893792763650417,0.483517676192522,0.6615784605558961
1733752001766979300,9.453979248046876,-0.16565759519040585,0.45961642999276514,0.5470273677464574
1733752001776955100,9.463955078125,-0.20216274076700208,0.3898188172757625,0.40755810677967963
1733752001786931000,9.473930908203124,-0.11155483360290527,0.3942473012425005,0.3493172955393791
1733752001796906200,9.48390625,0.04244330345392227,0.4073892530187964,0.3417605965495109
1733752001806882000,9.493882080078125,0.0874158331245184,0.4227143940530717,0.403623251548782
1733752001816858000,9.503858154296875,-0.008845569756627081,0.5037660989731549,0.4541388753645122
1733752001826833000,9.5138330078125,-0.13759060761332512,0.4187978051312268,0.4967714177802205
1733752001836809200,9.523809326171875,-0.19030220710337162,0.26982377984672784,0.5774786931768059
1733752001846784000,9.533783935546875,-0.13411620950102807,0.45732291222810745,0.6335149070449173
1733752001856760000,9.543760009765625,-0.0241729027479887,0.3420201242685318,0.6785180510494858
1733752001866736000,9.553736083984376,0.008027239111065863,0.5333962442137301,0.6898622326888144
1733752001876711200,9.563711181640626,-0.019150690671801567,0.5074000715613365,0.6855624896682798
1733752001886687000,9.57368701171875,-0.06422551167309284,0.3730373399533331,0.6019867826959118
1733752001896663300,9.583663330078124,-0.06150573132038116,0.6050011986136437,0.4182666573965922
1733752001906638000,9.59363818359375,0.045156654065847394,0.6670652944691479,0.41115156469438224
1733752001916614100,9.6036142578125,0.11799860291481018,0.5737487128682435,0.4706460657902062
1733752001926590200,9.613590087890625,0.09619593642950057,0.592753857589513,0.41136312508583067
1733752001936565200,9.623565185546875,0.021660627666115758,0.5667812119431793,0.2969963393347338
1733752001946541000,9.633541015625,-0.1297492464631796,0.5661680484808981,0.18922783760381862
1733752001956517000,9.64351708984375,-0.15652560970783233,0.6775907801367342,0.1235842666931916
1733752001966492200,9.6534921875,-0.0563584315598011,0.6945707026407122,0.13086859674877485
1733752001976468000,9.663468017578126,0.11967267360687255,0.7795819588415325,0.21882775210291147
1733752001986443000,9.673443115234376,0.26092472633719443,0.7846640844114124,0.18179839998912065
1733752001996419000,9.683419189453126,0.23818273317515848,0.6965528163686394,0.14415630453815684
1733752002006395100,9.69339501953125,0.09542553657889366,0.6666700115412473,0.13751863835565745
1733752002016370200,9.7033701171875,0.0024468086302280425,0.7256732585214078,-0.0002517462713643908
1733752002026346200,9.71334619140625,-0.031328619721531864,0.6995125429570674,-0.022525811394397167
1733752002036322000,9.723322021484375,-0.027195465439558027,0.7414401519738137,-0.030466979657206683
1733752002046297000,9.733297119140625,0.035253099688887596,0.7516828751772642,-0.02164477250985801
1733752002056273200,9.743273193359375,0.07425999895334243,0.8694532222941518,-0.08297010576203465
1733752002066249200,9.753249267578125,0.10598843164741992,0.8958645516186952,-0.19875340724755078
1733752002076224000,9.76322412109375,0.11323591855764388,0.8275828964225947,-0.16384451788645238
1733752002086200000,9.773199951171875,0.03595920213162899,0.8194346612803638,-0.07539682096354663
1733752002096175000,9.783175048828125,-0.15475626194775102,0.7675969220153986,0.0696576927896589
1733752002106151200,9.793151123046876,-0.266693957388401,0.6357556717090308,0.14794406118225306
1733752002116127000,9.803126953125,-0.21529110240936278,0.627504560714215,0.18834522781670093
1733752002126102300,9.813102294921874,0.0238940858066082,0.4920518419124186,0.28752259120978413
1733752002136078000,9.823078125,0.34896190623044965,0.6123536072030663,0.3390470267418772
1733752002146054100,9.83305419921875,0.48004210903644556,0.6405304848954081,0.20573416951298712
1733752002156029200,9.843029296875,0.3439157287567854,0.6009080840811133,0.1374351978559047
1733752002166005200,9.853005126953125,0.040808395728468894,0.6269343596108258,0.0007006956152617931
1733752002175981000,9.86298095703125,-0.0792155755341053,0.5921048921614885,-0.1643679207060486
1733752002185956000,9.8729560546875,0.027151041775941846,0.5563679544784128,-0.2694084039788693
1733752002195932200,9.88293212890625,0.19873451988399027,0.48367958875596523,-0.3359047831933945
1733752002205908000,9.892907958984376,0.3171978177011013,0.426028048645705,-0.2963214722804725
1733752002215883000,9.902883056640626,0.1981441527754068,0.3529236494682729,-0.3062208619389683
1733752002225859000,9.912859130859376,0.016841829207539558,0.27603688220791517,-0.2281779834460467
1733752002235835100,9.922835205078124,-0.08487900812327862,0.289056815039739,-0.08061652837321162
1733752002245810000,9.932809814453124,-0.21486966212689876,0.3084679832786321,0.12227598797306417
1733752002255786200,9.9427861328125,-0.28474282429814335,0.40219022307097907,0.39000272247530515
1733752002265761000,9.952760986328125,-0.22157588176727294,0.5433187224868685,0.4573546225406229
1733752002275737000,9.962737060546875,-0.013248188629746437,0.677578943568468,0.5167163275696337
1733752002285713200,9.972713134765625,0.33688977564275263,0.8596122848246246,0.49542577532492577
1733752002295688200,9.982688232421875,0.6597106939226388,0.9041015610229224,0.156356025294587
1733752002305664000,9.9926640625,0.7008470064312219,0.812713317136094,-0.032747035152092575
1733752002315640300,10.002640380859376,0.5302326656162738,0.6882792743463069,-0.14253164421208203
1733752002325615000,10.012614990234376,0.25785189476311204,0.5416838878266513,-0.18219824949428437
1733752002335590700,10.022590576171876,0.1467225930958986,0.4429285492379218,-0.26152013494707643
1733752002345566500,10.03256640625,0.19259704004228115,0.28385975785329937,-0.2338520835597068
1733752002355541500,10.04254150390625,0.2816588868081569,0.05025463479198515,-0.21439882974475621
1733752002365517300,10.052517333984374,0.302809811386466,-0.051532326577603815,-0.307066738178581
1733752002375493600,10.06249365234375,0.14078794234991074,-0.2191994349595159,-0.40618718375265594
1733752002385468400,10.072468505859375,0.09372399335801601,-0.13451295373365282,-0.37888781954720613
1733752002395444500,10.082444580078125,0.2388970189243555,0.06446034334227442,-0.3771814540207386
1733752002405419500,10.09241943359375,0.2872387327671051,0.27569274494536217,-0.18434607517793775
1733752002415395600,10.1023955078125,0.1618734004765749,0.39509924189671874,0.11142419296056032
1733752002425371400,10.112371337890625,0.03912146555483341,0.43093715573623775,0.30528745354637504
1733752002435346700,10.1223466796875,0.013611761245131491,0.3922622649051249,0.09373115375116467
1733752002445322500,10.132322509765626,-0.23379823448061943,0.464600063624233,0.04139920122846961
1733752002455298300,10.14229833984375,-0.5304810874193906,0.5071574949771166,0.21643515787795184
1733752002465273300,10.1522734375,-0.5633341402292251,0.4737264961488545,0.14656754866465926
1733752002475249400,10.16224951171875,-0.20978373716473578,0.3548584169231355,-0.2586054896093905
1733752002485225500,10.1722255859375,0.22827099549174307,0.28797084643393756,-0.2775992361538112
1733752002495200500,10.182200439453124,0.4501566738605499,0.17224208814725278,-0.014440613284707068
1733752002505176600,10.192176513671875,0.38307869536578654,0.031220921563357113,0.28148952159062024
1733752002515151600,10.202151611328125,0.0750678082048893,-0.0668600979603827,-0.03303966142311692
1733752002525127400,10.21212744140625,-0.23177345065474508,-0.017514467772096396,-0.28817206809446216
1733752002535103500,10.222103515625,-0.041811435291171074,0.17182532403990625,-0.2809941392891109
1733752002545078500,10.23207861328125,0.15313947440087794,0.21496698502153158,-0.16513181775063276
1733752002555054300,10.242054443359375,0.13347674255371092,0.21589155252054332,-0.11990005262196063
1733752002565030700,10.25203076171875,-0.09110065911710262,0.12147694654986262,-0.1394903037548065
1733752002575005400,10.26200537109375,-0.3842512462764978,0.015604104106128214,-0.42845659096688027
1733752002584981500,10.2719814453125,-0.551560700327158,-0.07504983415678143,-0.6505898143559694
1733752002594957600,10.28195751953125,-0.3899865750581026,-0.14737272756770253,-0.9398349185094237
1733752002604932600,10.2919326171875,0.009895371070504188,-0.10110285156294703,-0.8479802261546253
1733752002614908400,10.301908447265625,0.5589408737063407,-0.002694207520037889,-0.3863650235600769
1733752002624884500,10.311884521484375,0.9493886365354061,0.014630729029327631,0.2692895268395543
1733752002634859500,10.321859619140625,0.8866010487109423,-0.053355888742953536,0.619925357631594
1733752002644835600,10.331835693359375,0.5856874263346195,-0.046482641972601414,0.15912147141993044
1733752002654810400,10.341810302734375,0.4713397471427917,-0.01844093496724963,0.08083601634278893
1733752002664786700,10.35178662109375,0.4583791432827711,-0.005387830518186092,0.1231605157226324
1733752002674762500,10.361762451171876,0.2088502557069063,-0.07239771221280097,0.06650543930381536
1733752002684737500,10.371737548828126,-0.1835749446749687,-0.05360489506796002,-0.040419542541354894
1733752002694713600,10.381713623046876,-0.6543225711435079,-0.0021073475427925586,-0.20711904800012707
1733752002704689400,10.391689453125,-0.8637035727262496,0.07565612948685883,-0.3991002942316234
1733752002714664400,10.40166455078125,-0.5321206713199615,0.19862287620306013,-0.49520913689956064
1733752002724640500,10.411640625,0.19902444274127482,0.3570888063237071,-0.31825068775489923
1733752002734616600,10.421616455078125,0.6809358527809382,0.49784343092590566,-0.37849312114119527
1733752002744591400,10.43159130859375,0.5027747498482465,0.32885084609389303,-0.649523646429181
1733752002754567400,10.4415673828125,0.23647592925727365,0.26540610953494903,-0.928362507380545
1733752002764543500,10.45154345703125,0.20637831263542175,0.28787030866891145,-1.0615738769963383
1733752002774518500,10.4615185546875,0.2712000366359949,0.2908081156864762,-1.0004885630451141
1733752002784494300,10.471494384765625,0.3477496078312397,0.22406083045080302,-0.899511091427505
1733752002794470700,10.481470703125,0.4594172541588545,0.1947569945551455,-0.742783237145841
1733752002804445400,10.491445556640626,0.45338557277917857,0.15491554416269063,-0.4619226611085236
1733752002814421500,10.50142138671875,0.3163619513988495,0.10093611669391393,-0.18465324143096803
1733752002824396500,10.511396484375,0.1726227580279112,0.08750804145261645,-0.09923442734256387
1733752002834372600,10.52137255859375,-0.059818216624855994,0.1635821040906012,0.024011720836907623
1733752002844348400,10.531348388671875,-0.1271475395321846,0.2557248196065426,0.23065496801882981
1733752002854323500,10.541323486328125,0.029049568873643874,0.32679055256322026,0.1374197810910642
1733752002864299500,10.551299560546875,0.13613281002044678,0.31724633301794525,-0.3288102218225598
1733752002874275300,10.561275390625,-0.06417991896569729,0.17717954454943538,-0.7560797949619591
1733752002884250400,10.57125048828125,-0.27511574877500533,0.05867255372107029,-1.052715740019083
1733752002894226400,10.581226318359375,-0.3084960403293371,-0.02976721562370658,-1.068879523834586
1733752002904202500,10.591202392578126,-0.2526911509990692,-0.11321399898678064,-0.8577342890582978
1733752002914177500,10.601177490234376,-0.10857611005306243,-0.1675929471671581,-0.7062984037049115
1733752002924153600,10.611153564453126,0.17589198895692823,-0.11554989458844064,-0.5460981971375644
1733752002934128600,10.621128662109374,0.5411094489395618,-0.058403527521342036,-0.39128845143690705
1733752002944104400,10.6311044921875,0.7245470309704541,0.004553863912075758,-0.31715558599457144
1733752002954080500,10.64108056640625,0.529609565281868,-0.06772913587987422,-0.3940757440678775
1733752002964055600,10.6510556640625,0.12231588159203528,-0.10430705443173646,-0.7510342020101844
1733752002974031400,10.66103125,-0.17322656913995743,-0.031605098575353624,-1.0271385234311223
1733752002984007700,10.671007568359375,-0.18552140256762503,0.06467924678996205,-1.0813711950086056
1733752002993982500,10.680982421875,-0.09548106615841388,0.1965413937538862,-0.9550504616893828
1733752003003958500,10.69095849609375,-0.07118366024792194,0.23909239536598323,-0.7747182983279228
1733752003013934300,10.700934326171875,0.022452070304751395,0.153777187782526,-0.6206323368571698
1733752003023909600,10.71090966796875,0.11838263379633426,0.05104176658168435,-0.5100953019946813
1733752003033885400,10.720885498046876,0.19315058227181434,-0.04201557956114411,-0.48139425429776306
1733752003043861500,10.730861572265624,0.34103520488440986,-0.11742942472472787,-0.4675786410436034
1733752003053836500,10.74083642578125,0.4095616286218166,-0.17115823843330144,-0.5495294867604971
1733752003063812600,10.7508125,0.37174247783720493,-0.20160832175463436,-0.6474176140606402
1733752003073787400,10.760787353515624,0.22379706494808196,-0.1835762598492205,-0.7109731175176799
1733752003083763700,10.770763671875,0.13526070336103438,-0.12909808907806872,-0.7427958043664693
1733752003093739500,10.780739501953125,0.10570903018414973,0.09093436263948679,-0.6234916718110441
1733752003103714600,10.790714599609375,0.21221534822583196,0.18918372446745632,-0.4532232218243181
1733752003113690400,10.8006904296875,0.339845118317008,0.1636556077182293,-0.4517768224082887
1733752003123666400,10.81066650390625,0.31688977466523643,0.1493681391686201,-0.4756751459985971
1733752003133641500,10.820641357421875,0.18192074772715566,0.14721622183173894,-0.5022378664925694
1733752003143617300,10.8306171875,-0.07182020458579064,0.02394654664620757,-0.5920911558970808
1733752003153593600,10.840593505859376,-0.24038988783061502,-0.08555310799255966,-0.6951879577562212
1733752003163568400,10.850568359375,-0.3032552170664072,-0.08733458458185195,-0.6530072507612407
1733752003173544400,10.86054443359375,-0.2618400876164436,0.012594985418021678,-0.5620047913216054
1733752003183520500,10.8705205078125,-0.1010182420194149,0.12641089582070708,-0.45228068027719853
1733752003193495600,10.88049560546875,0.05571078130602836,0.16855360889285803,-0.27517595452964305
1733752003203471400,10.890471435546875,0.11609306155443191,0.15369930024072526,-0.1939110452502966
1733752003213446400,10.9004462890625,0.12207155144214629,0.19186463411450386,-0.049213528241217136
1733752003223422500,10.91042236328125,0.23249416614472865,0.20901523701027033,0.057861967990547415
1733752003233398500,10.9203984375,0.1930862848639488,0.11657076206877827,0.0811173175022006
1733752003243373300,10.930373291015625,0.06614157442748546,0.02281272031068802,0.06256254689693451
1733752003253349600,10.940349609375,0.1254752224057913,0.024507103138417002,0.12657602325454353
1733752003263325400,10.950325439453126,0.2666273218929767,0.06821312000453472,0.1446025322020054
1733752003273300500,10.960300537109376,0.32453356741666795,0.01716170881167054,0.02286722697690129
1733752003283276500,10.970276611328124,0.19590309585034846,-0.12146072606742381,-0.2140592225268483
1733752003293252400,10.98025244140625,-0.028310148683190345,-0.16056085657328367,-0.4954205876931548
1733752003303227400,10.990227294921874,-0.17245090859234333,-0.16250862964019178,-0.6748699768707156
1733752003313203500,11.000203369140625,-0.14032383196949957,-0.11235036789476871,-0.6217255389213562
1733752003323179500,11.010179443359375,-0.007471943315863609,-0.1011836617141962,-0.39091274999231096
1733752003333154600,11.020154541015625,0.015377017351984977,-0.0656591977380216,-0.1513582900725305
1733752003343130600,11.030130615234375,-0.027386604097485542,-0.039048400318622584,-0.05677139627486467
1733752003353105700,11.040105712890625,-0.13837854312062262,0.18399857691451907,-0.0335121012404561
1733752003363081700,11.050081787109375,-0.16930501178205012,0.4339264006800949,0.12411591675132512
1733752003373057500,11.0600576171875,-0.21122633718848227,0.48037718620970843,0.267848388120532
1733752003383032600,11.070032470703126,-0.30384441513121124,0.4016083315297961,0.05163973247483372
1733752003393008400,11.08000830078125,-0.2878010428249836,0.3991315661527216,-0.12193681914657353
1733752003402984700,11.089984619140624,-0.20174363857209682,0.3407290615446865,-0.17651187442094088
1733752003412959500,11.09995947265625,-0.26504151400625703,0.25610519722625613,-0.21381664594262836
1733752003422935600,11.109935546875,-0.2932861962378025,0.2888089046932757,-0.22363500625416635
1733752003432911600,11.11991162109375,-0.11814765599668026,0.35351869275197384,-0.11394172873944043
1733752003442886700,11.12988671875,0.09805003986358642,0.22567659508436916,-0.04942819390520453
1733752003452862500,11.139862548828125,0.38542555075287815,0.1350960143186152,0.023954145430773496
1733752003462837500,11.14983740234375,0.7063152087092399,0.07173603343367577,0.13093582589924335
1733752003472813600,11.1598134765625,0.8443301792144775,-0.022834932142496107,0.17498334967941045
1733752003482789600,11.16978955078125,0.5595078599393367,-0.03747106799930334,0.13201587622091174
1733752003492764400,11.179764404296876,-0.03339899625480175,0.05037935715019703,-0.01832286154553294
1733752003502740700,11.18974072265625,-0.4634469480663538,0.19912337307110428,-0.1289433369077742
1733752003512716500,11.199716552734374,-0.28843408003151416,0.4021921227671206,-0.04188201630935073
1733752003522691600,11.209691650390624,0.022508768928050992,0.5941562717333436,0.2688952668249607
1733752003532667600,11.219667724609375,0.06652560530900954,0.6838783359736204,0.4622799501135945
1733752003542643500,11.2296435546875,-0.038949031597375866,0.6482055495679379,0.4013270303703844
1733752003552618500,11.239618408203125,-0.18341537019908427,0.48033758485168215,0.32011312062591313
1733752003562594600,11.249594482421875,-0.27118542358875275,0.442277757178992,0.30020006727948784
1733752003572570600,11.259570556640625,-0.06430792925953864,0.4053019253507256,0.30591610683873294
1733752003582545400,11.26954541015625,0.16164076076447964,0.35543387872353194,0.20115195628926158
1733752003592521700,11.279521728515626,0.016814941200613973,0.2578704533331096,0.04754004207104444
1733752003602496500,11.28949658203125,-0.1916226420521736,0.06540317715033889,-0.2078099528737366
1733752003612472600,11.29947265625,-0.18722469935417174,-0.07118190668225288,-0.43042248421236873
1733752003622448600,11.30944873046875,0.016371873608231544,0.11611512725576757,-0.33600086397901174
1733752003632423700,11.319423583984374,0.010674538749456406,0.405401878593862,-0.11609525351151824
1733752003642399500,11.3293994140625,-0.21336627182662485,0.41903687458410854,-0.0729521312251687
1733752003652375600,11.33937548828125,-0.48568975953459737,0.2855896503858268,-0.08705854411944747
1733752003662350600,11.3493505859375,-0.5788514428347349,0.21412834224030375,0.10815043198689818
1733752003672326700,11.35932666015625,-0.42000820383429527,0.19255787707567215,0.22522505192458628
1733752003682302500,11.369302490234375,0.09093465490043162,0.22962328688353298,0.19710224250704048
1733752003692277800,11.37927783203125,0.5775912136405706,0.3422282140612602,0.2923066836811602
1733752003702253600,11.389253662109375,0.7254565470308065,0.2755833662867546,0.17432941581532357
1733752003712229400,11.3992294921875,0.4949421565264463,0.16887991823777557,-0.03034983781725168
1733752003722204700,11.40920458984375,0.07002104620933532,0.10475129106789827,-0.2449121875606477
1733752003732180500,11.419180419921876,-0.09689093295633792,0.11199088693261146,-0.35253348110690713
1733752003742155500,11.429155517578126,0.0543453381717205,0.25479236106202,-0.26222908693403
1733752003752131600,11.439131591796874,0.08259118944704533,0.28478593278750775,-0.17222703670859335
1733752003762107600,11.449107666015625,-0.1402718095213175,0.264403800624609,-0.15939342022910713
1733752003772082700,11.459082763671875,-0.47319560414254663,0.24793942642733452,-0.17890169216692448
1733752003782058500,11.46905859375,-0.6448655914902687,0.19617723661661146,-0.2141011619724333
1733752003792034600,11.47903466796875,-0.43167876788377757,0.15514496900439262,-0.137541361644119
1733752003802009600,11.489009521484375,0.15548340717852116,0.14343933364152908,0.05209039885178208
1733752003811985400,11.4989853515625,0.617884061062336,0.20287147355824708,0.206652891793102
1733752003821961700,11.508961669921876,0.6148351948857307,0.1508344123288989,0.22733049977123737
1733752003831936500,11.5189365234375,0.3119470575660467,0.11855375257954001,0.12371171986460686
1733752003841912600,11.52891259765625,-0.07178630231618881,0.12847761909216643,0.006604220570623875
1733752003851887400,11.538887451171876,-0.39608313836753367,0.13006152728274464,-0.08730097457319498
1733752003861863700,11.54886376953125,-0.41458500974178314,0.1941622435323894,-0.13021269925646484
1733752003871839500,11.558839599609374,-0.3464858715057373,0.3077129271276295,-0.10510039676651357
1733752003881814500,11.568814453125,-0.26281448560655113,0.4485318491376936,-0.06754157741852104
1733752003891790600,11.57879052734375,-0.1114449434876442,0.4998801974505186,-0.06280125102363526
1733752003901766700,11.5887666015625,0.11886544887721538,0.4759200606703758,-0.046015316721796984
1733752003911741400,11.598741455078125,0.3950432739257812,0.5464857351504266,-0.03659874214418232
1733752003921717800,11.6087177734375,0.5278296961277723,0.5088934519242495,-0.03263319951407611
1733752003931693600,11.618693603515625,0.5677005187451839,0.42765638049989935,-0.023844182250276208
1733752003941668600,11.628668701171875,0.5402274054080247,0.40981216931678355,-0.10992920516245067
1733752003951644700,11.638644775390626,0.2996586538791656,0.30582090283595026,-0.11279197418242692
1733752003961620500,11.648620361328126,0.05708323870301246,0.30420002363584936,-0.16209953738264737
1733752003971595500,11.658595458984376,-0.1617424675732851,0.40604887126050887,-0.18485329404771328
1733752003981571600,11.668571533203124,-0.29346330637037754,0.4366521723821759,-0.13448518894389272
1733752003991546600,11.678546630859374,-0.14363339490890503,0.5528309394586831,0.08336085864529014
1733752004001522400,11.6885224609375,0.16846563834846018,0.6139579005945474,0.2998311609018594
1733752004011498800,11.698498779296875,0.2617559164643288,0.6259582811202854,0.44317792088910934
1733752004021473500,11.7084736328125,0.06045359191894531,0.46196430829316376,0.3295685659091919
1733752004031449600,11.71844970703125,-0.1481353825032711,0.4105195138685405,0.2556018142813817
1733752004041425400,11.72842529296875,-0.19207272390723226,0.40141142071820796,0.30520938334148373
1733752004051400700,11.738400634765625,-0.15569325053691863,0.40559235966466367,0.3497847303880378
1733752004061376500,11.74837646484375,-0.16283084733188152,0.36253026672527194,0.30802842281758785
1733752004071352600,11.7583525390625,-0.09361468776464461,0.44453401167318224,0.2567003866404295
1733752004081327600,11.76832763671875,-0.000012859481573104858,0.528975359031558,0.3565393557474017
1733752004091303700,11.7783037109375,-0.0951882206916809,0.6686789402108639,0.37518443498462434
1733752004101278500,11.788278564453124,-0.15086568424999713,0.6014367110650987,0.22608806196209041
1733752004111254800,11.7982548828125,-0.134065940618515,0.5475052874565124,0.17256636993186547
1733752004121230600,11.808230712890625,-0.049480947005748746,0.4995907860498875,0.07268002715236507
1733752004131205600,11.81820556640625,0.14163959074318408,0.47876785131692884,0.06753310185112059
1733752004141181400,11.828181396484375,0.5664601632952689,0.5021648012563585,0.34092217296399174
1733752004151157500,11.838157470703125,0.8046440655142069,0.5255889314636588,0.5889238509725779
1733752004161132500,11.848132568359375,0.593282703769207,0.37389351839125157,0.6980640977144241
1733752004171108600,11.858108642578125,0.09139292006194591,0.34339228940457106,0.6178364955935627
1733752004181084700,11.868084716796876,-0.36179508431851864,0.35290728285536166,0.5817823086548596
1733752004191059700,11.878059814453126,-0.48875382328033445,0.32254173601232466,0.5011181417476386
1733752004201035500,11.888035400390624,-0.531920180311799,0.3789174840331077,0.3378867507908493
1733752004211011600,11.898011474609374,-0.39756080970466134,0.3401651440516114,0.22664843579120933
1733752004220986600,11.907986572265624,-0.15062076957821846,0.3601226210616529,0.17909787232615051
1733752004230962400,11.91796240234375,0.14481296008229255,0.61142816292122,0.47219519492834805
1733752004240937500,11.9279375,0.28157646922171115,0.5386438625436276,0.6507021886892617
1733752004250913500,11.93791357421875,0.25835341454446314,0.5204902931503951,0.8610014741607009
1733752004260889600,11.9478896484375,0.14496610481739045,0.5221996543515474,0.9830367852456867
1733752004270864400,11.957864501953125,-0.02834171286523342,0.42360425556488335,1.0269986035037786
1733752004280840700,11.9678408203125,-0.15197978297173975,0.2568376762192696,0.9967488650601357
1733752004290816500,11.97781640625,-0.19899813925623894,0.11269589339680969,0.7631644925259053
1733752004300791600,11.98779150390625,-0.31108897943198677,0.05386076952517032,0.4871305329274386
1733752004310767600,11.997767578125,-0.4257482087910175,0.04592354678511619,0.2838348243414424
1733752004320743700,12.00774365234375,-0.3074287033587694,0.1559057242438197,0.11247209457829593
1733752004330718500,12.017718505859374,-0.07095628123283386,0.2625210556179285,-0.006731390614248812
1733752004340694500,12.027694580078125,0.11267068589031695,0.2517566466279328,0.02752924570487812
1733752004350669300,12.03766943359375,0.22581074285805225,0.20999876815490423,0.2008049146835692
1733752004360645400,12.047645263671875,0.2931500026375055,0.12297178821749985,0.38746695691999045
1733752004370621400,12.057621337890625,0.3213713039934635,-0.03546506193913519,0.5524766095956787
1733752004380596500,12.067596435546875,0.3402501919865608,-0.10507716202139854,0.6485416496545076
1733752004390572300,12.077572265625,0.2345914306849241,-0.22440913243182004,0.7634585070364177
1733752004400548000,12.087548095703125,0.0685755235761404,-0.289113659793511,0.9350690923471003
1733752004410523400,12.0975234375,0.016681085687875748,-0.37378662395067513,1.1596819306574762
1733752004420499200,12.107499267578126,0.015042086309194564,-0.3465601057857275,1.1189438236862421
1733752004430475300,12.117475341796874,-0.19079437453448772,-0.3047195905305445,0.6845929870489984
1733752004440450300,12.1274501953125,-0.48631402891278264,-0.23524470696188507,0.22927739605531094
1733752004450426400,12.13742626953125,-0.5554886874258518,-0.1270565733131021,-0.05443944619596004
1733752004460402200,12.147402099609375,-0.31806933983862395,-0.020450009767338632,-0.17813929295968264
1733752004470377200,12.157377197265625,0.010323241093754768,0.015036533351242541,-0.2111880144720897
1733752004480353300,12.167353271484375,0.26095453695356846,0.06811674695797264,-0.24939382648672906
1733752004490328300,12.177328369140625,0.3699117552787065,0.12014664779417215,-0.33434396361745894
1733752004500304100,12.18730419921875,0.4087877216398716,-0.08410605098940431,-0.2172988255025819
1733752004510280400,12.197280517578125,0.4618044415563345,-0.030517960925772785,-0.018798625831119714
1733752004520255200,12.207255126953125,0.4451771318823099,-0.07506817353107034,0.24399770306423305
1733752004530231300,12.217231201171876,0.21881401583850382,0.0021326281145215035,0.2957827622938901
1733752004540207400,12.227207275390626,-0.11339490851163864,0.01570310750119388,0.0755478102741763
1733752004550182400,12.237182373046876,-0.29981822835505006,0.017245733833312987,-0.17702661901004613
1733752004560158200,12.247158203125,-0.20977204672694205,0.2053377175413072,-0.21957071595732122
1733752004570134500,12.257134521484375,0.02686345700621605,0.2553705262761563,-0.16641802163626998
1733752004580109300,12.267109375,0.21035598409473893,0.4650409392595291,0.17462014239020646
1733752004590085400,12.27708544921875,0.2671832022100687,0.23199586123377083,0.3943214259246364
1733752004600060200,12.28706005859375,0.16942951494455336,0.335798911666125,0.6754419315397739
1733752004610036500,12.297036376953125,-0.09668868838250637,0.21969584017433225,0.7031272263228893
1733752004620012300,12.30701220703125,-0.38819793807566166,0.026378449968248605,0.48251153135728087
1733752004629987300,12.3169873046875,-0.3513105151832103,0.022027122890949248,0.1703499907903373
1733752004639963400,12.32696337890625,-0.1718167023420334,0.08869052923545241,-0.1290937782291323
