time,seconds_elapsed,z,y,x
1733751992330015700,0.017015625,-0.3298056125640869,0.10710202157497406,0.168291836977005
1733751992339991800,0.02699169921875,-0.3655504882335663,0.15107937157154083,0.19779424369335175
1733751992349967600,0.036967529296875,-0.40021711587905884,0.23784862458705902,0.2058849185705185
1733751992359942700,0.046942626953125,-0.4432888925075531,0.3635936379432678,0.18727874755859375
1733751992369918500,0.05691845703125,-0.4780260920524597,0.5008540749549866,0.15808305144309998
1733751992379894800,0.066894775390625,-0.49814701080322266,0.6238253116607666,0.11929386854171753
1733751992389869600,0.07686962890625,-0.5162051320075989,0.7235990762710571,0.0952625572681427
1733751992399845600,0.086845703125,-0.5333350896835327,0.7633922696113586,0.09195998311042786
1733751992409821700,0.09682177734375,-0.5545693039894104,0.737876296043396,0.11571484804153442
1733751992419796700,0.106796630859375,-0.5737282037734985,0.6706787347793579,0.15236268937587738
1733751992429772500,0.1167724609375,-0.5836042761802673,0.6102119088172913,0.20015230774879456
1733751992439748900,0.126748779296875,-0.6056100726127625,0.5872793793678284,0.23281487822532654
1733751992449723600,0.1367236328125,-0.6320515275001526,0.5818870067596436,0.2389947474002838
1733751992459699700,0.14669970703125,-0.652425229549408,0.5701528191566467,0.22033946216106415
1733751992469675800,0.15667578125,-0.6631016135215759,0.5730010271072388,0.18692292273044586
1733751992479650800,0.16665087890625,-0.6629074215888977,0.5870553851127625,0.1522655189037323
1733751992489626600,0.176626708984375,-0.6657817959785461,0.58246910572052,0.10683678090572357
1733751992499602700,0.186602783203125,-0.6628775596618652,0.5654903650283813,0.08604889363050461
1733751992509577700,0.19657763671875,-0.6478440165519714,0.5301499366760254,0.11059418320655823
1733751992519553500,0.206553466796875,-0.6539542078971863,0.4650452136993408,0.17233744263648987
1733751992529529900,0.21652978515625,-0.6342454552650452,0.41410425305366516,0.24286673963069916
1733751992539504600,0.226504638671875,-0.6199858784675598,0.36009228229522705,0.2884853482246399
1733751992549480700,0.236480712890625,-0.5948491096496582,0.3193179666996002,0.29138633608818054
1733751992559455700,0.246455810546875,-0.5560910701751709,0.2539287507534027,0.250561386346817
1733751992569431800,0.256431884765625,-0.519178032875061,0.1291111707687378,0.1830824613571167
1733751992579407600,0.26640771484375,-0.5029757618904114,-0.04846200719475746,0.1227794736623764
1733751992589382700,0.276382568359375,-0.5138033628463745,-0.22049102187156677,0.09946084022521973
1733751992599358700,0.286358642578125,-0.5313376784324646,-0.3235046863555908,0.1091412678360939
1733751992609334800,0.296334716796875,-0.5357284545898438,-0.35720059275627136,0.12941963970661163
1733751992619309600,0.3063095703125,-0.506486713886261,-0.3476775288581848,0.1534252166748047
1733751992629286000,0.316285888671875,-0.45180848240852356,-0.28565412759780884,0.17672361433506012
1733751992639261700,0.32626171875,-0.3913380801677704,-0.22137457132339478,0.19907379150390625
1733751992649236700,0.33623681640625,-0.33258795738220215,-0.18835963308811188,0.21724799275398254
1733751992659212500,0.346212646484375,-0.2679527699947357,-0.170146644115448,0.23422634601593018
1733751992669188900,0.35618896484375,-0.20904149115085602,-0.15214447677135468,0.23451688885688782
1733751992679163600,0.36616357421875,-0.16004160046577454,-0.11610549688339233,0.21968862414360046
1733751992689139700,0.3761396484375,-0.13712270557880402,-0.060397762805223465,0.20803995430469513
1733751992699115800,0.38611572265625,-0.14677973091602325,-0.028780894353985786,0.2002871185541153
1733751992709090800,0.3960908203125,-0.18211854994297028,-0.0484296977519989,0.20522674918174744
1733751992719066600,0.406066650390625,-0.23931576311588287,-0.0830475240945816,0.2150895595550537
1733751992729042700,0.416042724609375,-0.2931520938873291,-0.09692525863647461,0.23457218706607819
1733751992739017700,0.426017822265625,-0.3463778495788574,-0.10016430914402008,0.2458515167236328
1733751992748993500,0.43599365234375,-0.38435664772987366,-0.10395984351634979,0.2520505487918854
1733751992758969900,0.445969970703125,-0.4114035665988922,-0.0780869871377945,0.2526395320892334
1733751992768944600,0.455944580078125,-0.4438009262084961,-0.016656644642353058,0.24790894985198975
1733751992778920700,0.465920654296875,-0.5045860409736633,0.0787113755941391,0.2591599225997925
1733751992788896800,0.475896728515625,-0.6240777969360352,0.1864708662033081,0.26977530121803284
1733751992798871800,0.485871826171875,-0.7753360867500305,0.33953800797462463,0.2860662043094635
1733751992808847600,0.49584765625,-0.8140230178833008,0.49774762988090515,0.32197120785713196
1733751992818824000,0.505823974609375,-0.7668867707252502,0.5887302160263062,0.3571259081363678
1733751992828798700,0.515798828125,-0.7181807160377502,0.6308321356773376,0.37677523493766785
1733751992838774800,0.52577490234375,-0.6920250058174133,0.6145700812339783,0.3698541522026062
1733751992848750600,0.53575048828125,-0.7008541822433472,0.5479282140731812,0.3452441394329071
1733751992858726000,0.545725830078125,-0.7266431450843811,0.4417276382446289,0.3154475688934326
1733751992868701700,0.55570166015625,-0.7484827041625977,0.32763436436653137,0.2858430743217468
1733751992878677500,0.565677490234375,-0.7539803385734558,0.2320701628923416,0.260201096534729
1733751992888652800,0.57565283203125,-0.7400738596916199,0.15921884775161743,0.22781811654567719
1733751992898628600,0.585628662109375,-0.7291386723518372,0.11229497194290161,0.20065689086914062
1733751992908603600,0.595603759765625,-0.7291994094848633,0.12999887764453888,0.18263527750968933
1733751992918579700,0.605579833984375,-0.7430127263069153,0.21462897956371307,0.17754125595092773
1733751992928555800,0.6155556640625,-0.7558576464653015,0.30302727222442627,0.1845075488090515
1733751992938530600,0.625530517578125,-0.7628362774848938,0.37509316205978394,0.20185396075248718
1733751992948506600,0.635506591796875,-0.7437427639961243,0.4000224769115448,0.22516541182994843
1733751992958482700,0.645482666015625,-0.7155986428260803,0.3752526342868805,0.233433797955513
1733751992968457700,0.655457763671875,-0.6881741881370544,0.2871944010257721,0.22358649969100952
1733751992978433500,0.66543359375,-0.6637474298477173,0.1288926601409912,0.18568509817123413
1733751992988409900,0.675409912109375,-0.6502220034599304,-0.05409712716937065,0.13192066550254822
1733751992998384600,0.685384521484375,-0.6401655673980713,-0.15317761898040771,0.07108087092638016
1733751993008360700,0.695360595703125,-0.6270420551300049,-0.13064967095851898,0.013296404853463173
1733751993018336800,0.705336669921875,-0.5935535430908203,-0.05382726714015007,0.00426984578371048
1733751993028311800,0.715311767578125,-0.5508529543876648,0.030581887811422348,0.04496188089251518
1733751993038287600,0.72528759765625,-0.512273371219635,0.09450977295637131,0.11806154251098633
1733751993048263700,0.735263671875,-0.47855961322784424,0.15899741649627686,0.18054649233818054
1733751993058238700,0.74523876953125,-0.4477846622467041,0.22110117971897125,0.1940683126449585
1733751993068214500,0.755214599609375,-0.41584908962249756,0.24765795469284058,0.1673070192337036
1733751993078190800,0.76519091796875,-0.3814883828163147,0.23235563933849335,0.11975526809692383
1733751993088166000,0.775165771484375,-0.3543688654899597,0.19087477028369904,0.08855047821998596
1733751993098141700,0.7851416015625,-0.3387819528579712,0.13346706330776215,0.07844026386737823
1733751993108117800,0.79511767578125,-0.32808324694633484,0.07100288569927216,0.05927696079015732
1733751993118092800,0.8050927734375,-0.30527013540267944,0.054339177906513214,0.03424413874745369
1733751993128068600,0.815068603515625,-0.2716980576515198,0.08129729330539703,0.021940600126981735
1733751993138044700,0.825044677734375,-0.23786450922489166,0.10931627452373505,0.03913608565926552
1733751993148019700,0.835019775390625,-0.20609460771083832,0.1424209624528885,0.09341823309659958
1733751993157995800,0.844995849609375,-0.1736629754304886,0.11155977100133896,0.10584820806980133
1733751993167971600,0.8549716796875,-0.14939332008361816,0.0392533540725708,0.07612466812133789
1733751993177947000,0.86494677734375,-0.12998948991298676,-0.03972281143069267,0.02745070494711399
1733751993187922700,0.874922607421875,-0.10737684369087219,-0.10788562148809433,-0.01214464008808136
1733751993197897700,0.884897705078125,-0.08294336497783661,-0.1272186040878296,-0.030520863831043243
1733751993207873500,0.89487353515625,-0.059622328728437424,-0.08519206196069717,-0.046287309378385544
1733751993217849900,0.904849853515625,-0.029133927077054977,-0.02641982026398182,-0.06191926822066307
1733751993227824600,0.91482470703125,0.011487003415822983,0.027683096006512642,-0.07068825513124466
1733751993237800700,0.92480078125,0.035734910517930984,0.05681739002466202,-0.04951084405183792
1733751993247776800,0.93477685546875,0.03518310561776161,0.07014012336730957,-0.011820454150438309
1733751993257751800,0.944751708984375,0.016834421083331108,0.07691948860883713,0.008545058779418468
1733751993267727600,0.9547275390625,0.008443599566817284,0.05236407741904259,0.008248116821050644
1733751993277703700,0.96470361328125,0.0094019565731287,-0.002786536468192935,-0.021477848291397095
1733751993287678700,0.9746787109375,0.024403542280197144,-0.051902685314416885,-0.07035937160253525
1733751993297654500,0.984654541015625,0.053346455097198486,-0.07713627815246582,-0.10555492341518402
1733751993307630800,0.994630859375,0.09383741766214371,-0.098577119410038,-0.12221219390630722
1733751993317605600,1.004605712890625,0.14177849888801575,-0.11196557432413101,-0.1199890598654747
1733751993327582200,1.014582275390625,0.18932044506072998,-0.11976943165063858,-0.11102458834648132
1733751993337558000,1.02455810546875,0.2298407107591629,-0.1250258833169937,-0.10616741329431534
1733751993347533300,1.034533203125,0.24690811336040497,-0.11074575036764145,-0.10272527486085892
1733751993357509000,1.044509033203125,0.2518256604671478,-0.0839916542172432,-0.10914470255374908
1733751993367485000,1.05448486328125,0.26174700260162354,-0.062040820717811584,-0.12081947177648544
1733751993377460000,1.0644599609375,0.27979013323783875,-0.06517426669597626,-0.13149993121623993
1733751993387436000,1.07443603515625,0.30922606587409973,-0.07302793115377426,-0.14985443651676178
1733751993397412000,1.084412109375,0.35184136033058167,-0.07020874321460724,-0.17141743004322052
1733751993407387100,1.09438720703125,0.39961740374565125,-0.06862469762563705,-0.1948540359735489
1733751993417363200,1.10436328125,0.4458744525909424,-0.08699966967105865,-0.21275776624679565
1733751993427339000,1.114339111328125,0.4832756221294403,-0.10864664614200592,-0.21751070022583008
1733751993437314000,1.12431396484375,0.5048381090164185,-0.11118927597999573,-0.21340744197368622
1733751993447290000,1.1342900390625,0.5284097194671631,-0.07903799414634705,-0.2231130748987198
1733751993457266200,1.14426611328125,0.5372498631477356,-0.002625639084726572,-0.2368541657924652
1733751993467241000,1.154240966796875,0.5471796989440918,0.15239056944847107,-0.24846208095550537
1733751993477217300,1.16421728515625,0.5789353251457214,0.3066670298576355,-0.23267091810703278
1733751993487193000,1.174193115234375,0.6071270108222961,0.38517647981643677,-0.20729924738407135
1733751993497168100,1.184168212890625,0.6277367472648621,0.4275023937225342,-0.18925844132900238
1733751993507144200,1.194144287109375,0.6281625628471375,0.4635096788406372,-0.20786061882972717
1733751993517120000,1.2041201171875,0.6304052472114563,0.4855467975139618,-0.2554347813129425
1733751993527095000,1.214094970703125,0.6439926624298096,0.4840271770954132,-0.3027607500553131
1733751993537071000,1.224071044921875,0.6691706776618958,0.4264392852783203,-0.33699673414230347
1733751993547046100,1.234046142578125,0.7103697657585144,0.2950724959373474,-0.35863786935806274
1733751993557022200,1.244022216796875,0.7664228081703186,0.09831993281841278,-0.3903016746044159
1733751993566998000,1.253998046875,0.8115708231925964,-0.1517447531223297,-0.44342800974845886
1733751993576973300,1.263973388671875,0.8346996903419495,-0.4177708923816681,-0.5134512186050415
1733751993586949000,1.27394921875,0.8422688841819763,-0.6410388946533203,-0.5683451294898987
1733751993596925000,1.283925048828125,0.8443729877471924,-0.7722340822219849,-0.5965576767921448
1733751993606900200,1.293900146484375,0.8223726153373718,-0.8660410046577454,-0.5981590151786804
1733751993616876000,1.3038759765625,0.8202891945838928,-0.8957161903381348,-0.5863534212112427
1733751993626852000,1.31385205078125,0.8508231043815613,-0.8445339202880859,-0.5728967189788818
1733751993636827100,1.3238271484375,0.8900216221809387,-0.7389712333679199,-0.5616822838783264
1733751993646803200,1.33380322265625,0.922138512134552,-0.6260910630226135,-0.5489246845245361
1733751993656779000,1.343779052734375,0.9542920589447021,-0.7007433176040649,-0.4908875524997711
1733751993666754000,1.353754150390625,0.9748514294624329,-0.7052118182182312,-0.4426955282688141
1733751993676730000,1.363730224609375,0.970974862575531,-0.5190877318382263,-0.4428216218948364
1733751993686706200,1.3737060546875,0.9594513773918152,-0.2957291901111603,-0.44190335273742676
1733751993696681000,1.383680908203125,0.9596531391143799,-0.19920124113559723,-0.4112151265144348
1733751993706657300,1.3936572265625,0.9639165997505188,-0.23976251482963562,-0.35830453038215637
1733751993716633000,1.403633056640625,0.9793696403503418,-0.31405290961265564,-0.332733690738678
1733751993726608100,1.413608154296875,0.9844788908958435,-0.28130748867988586,-0.35975414514541626
1733751993736584200,1.423584228515625,0.969999372959137,-0.23136378824710846,-0.3985695540904999
1733751993746560000,1.43356005859375,0.9815186262130737,-0.20391511917114258,-0.4085595905780792
1733751993756535000,1.44353515625,1.0255870819091797,-0.14361518621444702,-0.39200785756111145
1733751993766511000,1.453510986328125,1.0365999937057495,-0.07935523241758347,-0.3458656668663025
1733751993776487200,1.463487060546875,1.0363280773162842,-0.07758594304323196,-0.2941216230392456
1733751993786462000,1.4734619140625,1.0357767343521118,-0.13484416902065277,-0.27056995034217834
1733751993796438300,1.483438232421875,1.036121129989624,-0.1827363520860672,-0.2722955644130707
1733751993806414000,1.4934140625,1.0514979362487793,-0.21007929742336273,-0.2988627254962921
1733751993816389000,1.50338916015625,1.073077917098999,-0.19916385412216187,-0.30752381682395935
1733751993826365200,1.513365234375,1.0962224006652832,-0.24718837440013885,-0.30144861340522766
1733751993836340200,1.52334033203125,1.1169973611831665,-0.38981202244758606,-0.29030558466911316
1733751993846316000,1.53331591796875,1.131022572517395,-0.5664283633232117,-0.2783506512641907
1733751993856292000,1.5432919921875,1.13792884349823,-0.7106202244758606,-0.2968594431877136
1733751993866267100,1.55326708984375,1.1400407552719116,-0.7805933952331543,-0.32024598121643066
1733751993876243200,1.5632431640625,1.1393883228302002,-0.78843754529953,-0.3195180296897888
1733751993886219000,1.573218994140625,1.1303154230117798,-0.702375054359436,-0.29941993951797485
1733751993896194300,1.5831943359375,1.132314682006836,-0.6014878749847412,-0.26659125089645386
1733751993906170000,1.593170166015625,1.1142598390579224,-0.5829035639762878,-0.22253724932670593
1733751993916146000,1.60314599609375,1.11298406124115,-0.6178270578384399,-0.19674204289913177
1733751993926121200,1.613121337890625,1.1181349754333496,-0.6937212944030762,-0.19265195727348328
1733751993936097000,1.623096923828125,1.1354185342788696,-0.7925833463668823,-0.21361567080020905
1733751993946073000,1.633072998046875,1.1646872758865356,-0.8806873559951782,-0.2523129880428314
1733751993956048100,1.643048095703125,1.1839245557785034,-0.97308349609375,-0.30274662375450134
1733751993966024200,1.653024169921875,1.1574755907058716,-1.079389214515686,-0.3296187222003937
1733751993976000000,1.663,1.0513064861297607,-1.0260785818099976,-0.28668317198753357
1733751993985975000,1.67297509765625,1.0234376192092896,-0.8509281873703003,-0.18016180396080017
1733751993995951000,1.682951171875,1.0561566352844238,-0.810865044593811,-0.05698064714670181
1733751994005927200,1.69292724609375,1.0939053297042847,-0.8860530257225037,0.01452362909913063
1733751994015902000,1.70290185546875,1.1231154203414917,-0.8806711435317993,0.010423999279737473
1733751994025878300,1.712878173828125,1.1328647136688232,-0.8737543821334839,-0.03549662232398987
1733751994035854000,1.72285400390625,1.1318576335906982,-0.9264373183250427,-0.09670504927635193
1733751994045829000,1.7328291015625,1.1349308490753174,-0.9743289351463318,-0.13715633749961853
1733751994055805200,1.74280517578125,1.1435117721557617,-0.9456120729446411,-0.15060275793075562
1733751994065780200,1.7527802734375,1.1132395267486572,-0.8629662394523621,-0.11366897076368332
1733751994075756000,1.762756103515625,1.1104284524917603,-0.791448175907135,-0.04925822466611862
1733751994085732000,1.772732177734375,1.0980920791625977,-0.8330430388450623,0.0305417962372303
1733751994095707100,1.78270703125,1.0648075342178345,-0.9106366634368896,0.06567534804344177
1733751994105683200,1.79268310546875,1.069775938987732,-0.8792576789855957,0.04699620604515076
1733751994115659000,1.802658935546875,1.0577046871185303,-0.7815027236938477,0.029156552627682686
1733751994125634300,1.81263427734375,1.0598293542861938,-0.7131276726722717,0.029922744259238243
1733751994135610000,1.822610107421875,1.0556471347808838,-0.6332302093505859,0.06199851259589195
1733751994145586000,1.8325859375,1.0431114435195923,-0.5382799506187439,0.09976506233215332
1733751994155561200,1.842561279296875,1.0132930278778076,-0.43907061219215393,0.12663550674915314
1733751994165537000,1.852537109375,0.9592097997665405,-0.3974667191505432,0.12085086107254028
1733751994175513000,1.86251318359375,0.9146673083305359,-0.35759446024894714,0.10002763569355011
1733751994185488100,1.872488037109375,0.9008995890617371,-0.28766411542892456,0.08896060287952423
1733751994195464200,1.882464111328125,0.9036360383033752,-0.2703389525413513,0.10311275720596313
1733751994205440000,1.89243994140625,0.9247043132781982,-0.2960056960582733,0.12656135857105255
1733751994215415000,1.9024150390625,0.9762357473373413,-0.33802536129951477,0.13258768618106842
1733751994225391000,1.91239111328125,1.0361472368240356,-0.37664785981178284,0.13184545934200287
1733751994235367200,1.9223671875,1.0213208198547363,-0.3394858241081238,0.12042902410030365
1733751994245342000,1.932342041015625,1.0107723474502563,-0.2949458062648773,0.1075020357966423
1733751994255318300,1.942318359375,0.9955740571022034,-0.2863710820674896,0.10241865366697311
1733751994265294000,1.952294189453125,0.9911239147186279,-0.30510029196739197,0.11574564129114151
1733751994275269000,1.96226904296875,0.9945163726806641,-0.344684898853302,0.1335875242948532
1733751994285245200,1.9722451171875,1.0079480409622192,-0.36198878288269043,0.14232854545116425
1733751994295220200,1.98222021484375,1.0226716995239258,-0.31367266178131104,0.15274281799793243
1733751994305196000,1.992196044921875,1.0759247541427612,-0.2509253919124603,0.15060298144817352
1733751994315172000,2.002172119140625,1.1231597661972046,-0.21329174935817719,0.13708436489105225
1733751994325147100,2.012147216796875,1.1175920963287354,-0.1645769476890564,0.11674951761960983
1733751994335122400,2.022122314453125,1.1194275617599487,-0.13332518935203552,0.0919191986322403
1733751994345098200,2.03209814453125,1.1194936037063599,-0.16775240004062653,0.07098568975925446
1733751994355073500,2.042073486328125,1.107527256011963,-0.2360704392194748,0.06165112927556038
1733751994365049300,2.05204931640625,1.0954229831695557,-0.2908218204975128,0.0819510743021965
1733751994375025200,2.062025146484375,1.075748324394226,-0.3283909857273102,0.11657512187957764
1733751994385000400,2.07200048828125,1.052743911743164,-0.3393386900424957,0.13940560817718506
1733751994394976300,2.081976318359375,1.0233885049819946,-0.36492249369621277,0.15009766817092896
1733751994404952300,2.091952392578125,0.9973355531692505,-0.41383543610572815,0.14851868152618408
1733751994414927400,2.10192724609375,0.9907829165458679,-0.4795328378677368,0.13088537752628326
1733751994424903400,2.1119033203125,1.013124942779541,-0.5424209237098694,0.11434129625558853
1733751994434879200,2.121879150390625,1.019864559173584,-0.6002419590950012,0.08750204741954803
1733751994444854300,2.131854248046875,1.0250567197799683,-0.6159104108810425,0.07838951051235199
1733751994454830300,2.141830322265625,1.032116174697876,-0.6144945025444031,0.07384711503982544
1733751994464806400,2.151806396484375,1.029111623764038,-0.6131325364112854,0.07385031133890152
1733751994474781200,2.16178125,1.0207165479660034,-0.6023122668266296,0.08183684945106506
1733751994484757500,2.171757568359375,1.0310455560684204,-0.56634920835495,0.09823579341173172
1733751994494732300,2.181732177734375,1.0192071199417114,-0.5607599020004272,0.11051683127880096
1733751994504708400,2.191708251953125,0.9833806157112122,-0.5230532884597778,0.11841017752885818
1733751994514684400,2.201684326171875,0.9427412748336792,-0.4713839292526245,0.11525607109069824
1733751994524659500,2.211659423828125,0.924960196018219,-0.4228408932685852,0.09330789744853973
1733751994534635300,2.22163525390625,0.9510087966918945,-0.43894118070602417,0.08475842326879501
1733751994544611300,2.231611328125,0.9984855055809021,-0.5105562210083008,0.11183557659387589
1733751994554586400,2.24158642578125,1.045451283454895,-0.5728402733802795,0.14526525139808655
1733751994564562400,2.2515625,1.078643798828125,-0.6468042135238647,0.1581307202577591
1733751994574538500,2.26153857421875,1.0766352415084839,-0.7417566776275635,0.14837542176246643
1733751994584513500,2.271513427734375,1.059157371520996,-0.8416257500648499,0.13646149635314941
1733751994594489300,2.2814892578125,1.0666992664337158,-0.9188384413719177,0.11871004849672318
1733751994604465400,2.29146533203125,1.0722911357879639,-1.0010590553283691,0.07372206449508667
1733751994614440400,2.3014404296875,1.0358850955963135,-1.047252893447876,0.02720067650079727
1733751994624416300,2.311416259765625,0.9891631007194519,-1.0162547826766968,-0.01222795620560646
1733751994634392300,2.321392333984375,0.9544434547424316,-0.9480969309806824,-0.06682783365249634
1733751994644367400,2.331367431640625,0.9121990203857422,-0.8698530197143555,-0.12397581338882446
1733751994654343400,2.341343505859375,0.8279631733894348,-0.8953632712364197,-0.15795083343982697
1733751994664319200,2.3513193359375,0.7874575853347778,-0.8431695699691772,-0.15651538968086243
1733751994674294500,2.36129443359375,0.7810880541801453,-0.7599708437919617,-0.11249793320894241
1733751994684270300,2.371270263671875,0.7527554631233215,-0.7075917720794678,-0.0468110591173172
1733751994694246400,2.381246337890625,0.7041074633598328,-0.664059042930603,0.02975204959511757
1733751994704221200,2.39122119140625,0.6558040976524353,-0.632523238658905,0.0702826976776123
1733751994714197500,2.401197509765625,0.6156676411628723,-0.6600125432014465,0.052439212799072266
1733751994724172300,2.41117236328125,0.5724882483482361,-0.7303996682167053,0.004551848396658897
1733751994734148400,2.4211484375,0.5554693341255188,-0.7877247929573059,-0.06049703061580658
1733751994744124400,2.43112451171875,0.5652409791946411,-0.799673855304718,-0.11609131842851639
1733751994754099500,2.441099365234375,0.5811359286308289,-0.7770607471466064,-0.15592563152313232
1733751994764075300,2.4510751953125,0.604358434677124,-0.7491843700408936,-0.18305926024913788
1733751994774051300,2.46105126953125,0.6353074312210083,-0.6944920420646667,-0.18155048787593842
1733751994784026400,2.4710263671875,0.6727408170700073,-0.6004198789596558,-0.15448158979415894
1733751994794002200,2.481002197265625,0.6971557140350342,-0.5002017021179199,-0.10450872778892517
1733751994803978500,2.490978515625,0.7276936769485474,-0.4012298583984375,-0.04077475517988205
1733751994813953300,2.500953369140625,0.7560132741928101,-0.33067017793655396,0.00809841975569725
1733751994823929300,2.510929443359375,0.7961582541465759,-0.34642037749290466,0.03720277547836304
1733751994833905400,2.520905517578125,0.8335498571395874,-0.4695107042789459,0.031443849205970764
1733751994843880400,2.53088037109375,0.8664070963859558,-0.634524941444397,-0.019261406734585762
1733751994853856300,2.540856201171875,0.8916462659835815,-0.7291672229766846,-0.09890040010213852
1733751994863832600,2.55083251953125,0.9070159196853638,-0.6933062076568604,-0.1575876772403717
1733751994873807400,2.560807373046875,0.910331666469574,-0.5718591213226318,-0.15952090919017792
1733751994883783400,2.570783447265625,0.9214229583740234,-0.4084151089191437,-0.12057243287563324
1733751994893758200,2.58075830078125,0.943316638469696,-0.24015136063098907,-0.059719014912843704
1733751994903734500,2.590734619140625,0.945487916469574,-0.12966719269752502,0.005151858553290367
1733751994913710300,2.60071044921875,0.9449437260627747,-0.05624854564666748,0.04459948092699051
1733751994923685400,2.610685302734375,0.9284451603889465,-0.0369960218667984,0.06311564147472382
1733751994933661400,2.620661376953125,0.8892149329185486,-0.06358557939529419,0.05874577909708023
1733751994943637200,2.63063720703125,0.8118978142738342,-0.13126049935817719,0.01775546744465828
1733751994953612300,2.6406123046875,0.7065861225128174,-0.2171105444431305,-0.047777723520994186
1733751994963588400,2.65058837890625,0.5767905712127686,-0.2798610329627991,-0.11327870190143585
1733751994973564400,2.660564453125,0.4327850639820099,-0.30621495842933655,-0.1283467411994934
1733751994983539500,2.67053955078125,0.2780064046382904,-0.2970750033855438,-0.111697718501091
1733751994993515300,2.680515380859375,0.14370068907737732,-0.1865271031856537,-0.0917004942893982
1733751995003491300,2.6904912109375,0.037339095026254654,0.014000402763485909,-0.0785527303814888
1733751995013466400,2.70046630859375,-0.05940863862633705,0.16695721447467804,-0.09118008613586426
1733751995023442200,2.710442138671875,-0.13783153891563416,0.3167102336883545,-0.06822070479393005
1733751995033418500,2.72041845703125,-0.17386697232723236,0.4047420918941498,-0.013298161327838898
1733751995043393300,2.730393310546875,-0.20857621729373932,0.4113776385784149,0.056459613144397736
1733751995053369300,2.740369384765625,-0.2252020537853241,0.38357076048851013,0.09738095104694366
1733751995063345400,2.750345458984375,-0.21599604189395905,0.32519933581352234,0.06828991323709488
1733751995073320400,2.760320556640625,-0.2069489061832428,0.2215234786272049,-0.016011735424399376
1733751995083296300,2.770296142578125,-0.22231507301330566,0.12637005746364594,-0.10320761799812317
1733751995093271300,2.780271240234375,-0.2460920214653015,0.08544597029685974,-0.17000193893909454
1733751995103247400,2.790247314453125,-0.2657168507575989,0.07978648692369461,-0.18383146822452545
1733751995113223400,2.800223388671875,-0.29078754782676697,0.08186325430870056,-0.15426702797412872
1733751995123198200,2.8101982421875,-0.31621086597442627,0.1098480150103569,-0.10847369581460953
1733751995133174500,2.820174560546875,-0.3314746916294098,0.163858562707901,-0.06970241665840149
1733751995143150300,2.830150390625,-0.3610442876815796,0.20152418315410614,-0.03656444326043129
1733751995153125400,2.84012548828125,-0.41021502017974854,0.20630446076393127,0.0015302785905078053
1733751995163101400,2.850101318359375,-0.44834429025650024,0.22496603429317474,0.022677375003695488
1733751995173077200,2.8600771484375,-0.4638501703739166,0.2756653428077698,0.027329932898283005
1733751995183052300,2.87005224609375,-0.4671756625175476,0.3489251732826233,0.020090395584702492
1733751995193028400,2.8800283203125,-0.47974932193756104,0.39811795949935913,0.02000286988914013
1733751995203004400,2.89000439453125,-0.485846608877182,0.4498133957386017,0.022018350660800934
1733751995212979200,2.899979248046875,-0.4937896132469177,0.5067307949066162,0.021308336406946182
1733751995222955500,2.90995556640625,-0.5079973340034485,0.534835696220398,0.02537977695465088
1733751995232931300,2.919931396484375,-0.5125351548194885,0.5607357621192932,0.029529809951782227
1733751995242906400,2.92990625,-0.4493820369243622,0.8252151012420654,0.07047431170940399
1733751995252882400,2.93988232421875,-0.4321606457233429,0.9028752446174622,0.0817265510559082
1733751995262857500,2.949857421875,-0.4582878649234772,0.7925056219100952,0.07144595682621002
1733751995272833300,2.959833251953125,-0.5222592949867249,0.6215669512748718,0.0927293598651886
1733751995282809300,2.969809326171875,-0.5890036821365356,0.5393362641334534,0.11824564635753632
1733751995292784400,2.979784423828125,-0.5815659165382385,0.6444134712219238,0.12702211737632751
1733751995302760400,2.989760498046875,-0.586249053478241,0.7033438682556152,0.11004073917865753
1733751995312736300,2.999736328125,-0.6053183674812317,0.6524606347084045,0.09209317713975906
1733751995332687600,3.0196875,-0.6630728244781494,0.4135022759437561,0.05765123292803764
1733751995342663400,3.029663330078125,-0.6737952828407288,0.25906315445899963,-0.02704794332385063
1733751995352638700,3.039638671875,-0.6735342144966125,0.2442527860403061,-0.09613678604364395
1733751995362614500,3.049614501953125,-0.6860364675521851,0.2658318281173706,-0.11469422280788422
1733751995372590600,3.059590576171875,-0.6935415863990784,0.287749320268631,-0.08799265325069427
1733751995382565400,3.0695654296875,-0.6851217746734619,0.3173852562904358,-0.04214846342802048
1733751995392541700,3.079541748046875,-0.6611307263374329,0.3983495235443115,0.012051869183778763
1733751995402517500,3.089517578125,-0.648793637752533,0.4907979667186737,0.0653798058629036
1733751995412492500,3.099492431640625,-0.6751290559768677,0.5632044076919556,0.0995379388332367
1733751995422468600,3.109468505859375,-0.7322978377342224,0.5672785043716431,0.08859100937843323
1733751995432444700,3.119444580078125,-0.7708253860473633,0.5518493056297302,0.05974879115819931
1733751995442419500,3.12941943359375,-0.7827435731887817,0.4814571738243103,0.023727141320705414
1733751995452395800,3.139395751953125,-0.7661922574043274,0.427340030670166,-0.012571318075060844
1733751995462370600,3.14937060546875,-0.7491083741188049,0.3920843005180359,-0.03222304955124855
1733751995472346600,3.1593466796875,-0.7219213843345642,0.39367327094078064,-0.03358618915081024
1733751995482322700,3.16932275390625,-0.7073941230773926,0.39523839950561523,-0.021316740661859512
1733751995492297700,3.179297607421875,-0.6765028834342957,0.421318918466568,0.015101108700037003
1733751995502273500,3.1892734375,-0.6592541337013245,0.4275384545326233,0.05821662023663521
1733751995512249600,3.19924951171875,-0.6484148502349854,0.4376828372478485,0.08492370694875717
1733751995522224600,3.209224609375,-0.6321617960929871,0.43159642815589905,0.10487531125545502
1733751995532200400,3.219200439453125,-0.620120108127594,0.3980080485343933,0.09600462764501572
1733751995542176800,3.2291767578125,-0.6162265539169312,0.32912883162498474,0.07141273468732834
1733751995552151600,3.239151611328125,-0.6153402924537659,0.25313565135002136,0.01607208326458931
1733751995562127600,3.249127685546875,-0.6080541610717773,0.228305384516716,-0.05600903555750847
1733751995572103400,3.259103515625,-0.6043598055839539,0.24374373257160187,-0.10982805490493774
1733751995582078700,3.26907861328125,-0.6133021712303162,0.25711628794670105,-0.10012056678533554
1733751995592054500,3.279054443359375,-0.6070003509521484,0.24691469967365265,-0.058642953634262085
1733751995602030600,3.289030517578125,-0.6030612587928772,0.2877334952354431,-0.009632534347474575
1733751995612005600,3.299005615234375,-0.6335816383361816,0.3389354944229126,0.0266107190400362
1733751995621981700,3.308981689453125,-0.7265145182609558,0.3795710504055023,0.058636296540498734
1733751995631956500,3.31895654296875,-0.7384343147277832,0.3276522755622864,0.07421424239873886
1733751995641932800,3.328932861328125,-0.7417328953742981,0.24029606580734253,0.07692320644855499
1733751995651908600,3.33890869140625,-0.7160930037498474,0.14439690113067627,0.0415169894695282
1733751995661883600,3.348883544921875,-0.6853539943695068,0.09867390245199203,-0.006575704552233219
1733751995671859500,3.358859375,-0.6604499816894531,0.13791799545288086,-0.05203118920326233
1733751995681835800,3.368835693359375,-0.6538658142089844,0.1944848746061325,-0.08080212026834488
1733751995691810600,3.378810546875,-0.6609610319137573,0.26414358615875244,-0.08059652149677277
1733751995701786600,3.38878662109375,-0.7154985666275024,0.3512401580810547,-0.06552116572856903
1733751995711762700,3.3987626953125,-0.7444053292274475,0.46554556488990784,-0.026046033948659897
1733751995721737700,3.40873779296875,-0.7658730745315552,0.5594446659088135,0.02031613700091839
1733751995731713500,3.418713623046875,-0.7864958643913269,0.5993172526359558,0.0754164606332779
1733751995741689600,3.428689697265625,-0.8188692331314087,0.6042784452438354,0.12632066011428833
1733751995751664600,3.43866455078125,-0.8535491824150085,0.5952276587486267,0.16051192581653595
1733751995761640400,3.448640380859375,-0.8852200508117676,0.5788239240646362,0.15197116136550903
1733751995771616800,3.45861669921875,-0.8977121710777283,0.5291035771369934,0.0792732760310173
1733751995781591600,3.468591552734375,-0.8851228952407837,0.46198874711990356,0.0067250411957502365
1733751995791567600,3.478567626953125,-0.8970018625259399,0.430292010307312,-0.03057681769132614
1733751995801543700,3.488543701171875,-0.9409242868423462,0.4506728947162628,-0.011243334040045738
1733751995811518700,3.498518798828125,-0.983052134513855,0.4898588955402374,0.03595356643199921
1733751995821494500,3.50849462890625,-1.0033423900604248,0.5034833550453186,0.06215827539563179
1733751995831469600,3.518469482421875,-1.0131464004516602,0.45399045944213867,0.06629329919815063
1733751995841445600,3.528445556640625,-1.0438110828399658,0.3890777826309204,0.08422782272100449
1733751995851421700,3.538421630859375,-1.0697015523910522,0.33241939544677734,0.10838785767555237
1733751995861396500,3.548396484375,-1.0767676830291748,0.250148743391037,0.11390246450901031
1733751995871372800,3.558372802734375,-1.0776622295379639,0.211748406291008,0.11033178120851517
1733751995881348600,3.5683486328125,-1.0991350412368774,0.21553382277488708,0.09816725552082062
1733751995891323600,3.57832373046875,-1.1177009344100952,0.30463936924934387,0.08271943777799606
1733751995901299700,3.5882998046875,-1.1483885049819946,0.4443330764770508,0.06498757749795914
1733751995911275500,3.598275634765625,-1.145493984222412,0.6100420355796814,0.044855061918497086
1733751995921250600,3.60825048828125,-1.1497598886489868,0.7451218366622925,0.02845798060297966
1733751995931226600,3.6182265625,-1.1429966688156128,0.8484073281288147,0.036282867193222046
1733751995941202700,3.62820263671875,-1.1290308237075806,0.9306601285934448,0.07413597404956818
1733751995951177500,3.638177490234375,-1.1256732940673828,0.9739171266555786,0.13917924463748932
1733751995961153500,3.648153564453125,-1.111154556274414,0.9752492904663086,0.19343528151512146
1733751995971129600,3.658129638671875,-1.1126346588134766,0.9442166090011597,0.21398301422595978
1733751995981104600,3.668104736328125,-1.1299209594726562,0.9214604496955872,0.2028166502714157
1733751995991080400,3.67808056640625,-1.160927176475525,0.9010838866233826,0.1909169703722
1733751996001055700,3.6880556640625,-1.1850991249084473,0.8960145711898804,0.1788746863603592
1733751996011031600,3.698031494140625,-1.18772554397583,0.8872917890548706,0.15384629368782043
1733751996021007600,3.708007568359375,-1.174515724182129,0.8491755127906799,0.11310285329818726
1733751996030982700,3.717982666015625,-1.175335168838501,0.7940405011177063,0.08262985944747925
1733751996040958700,3.727958740234375,-1.1966348886489868,0.7367441654205322,0.10237453877925873
1733751996050934500,3.7379345703125,-1.212712049484253,0.6777470111846924,0.14067380130290985
1733751996060909600,3.74790966796875,-1.180925965309143,0.6377868056297302,0.18685701489448547
1733751996070885600,3.7578857421875,-1.1355522871017456,0.6119622588157654,0.22579096257686615
1733751996080861700,3.76786181640625,-1.0955870151519775,0.6069954633712769,0.23098652064800262
1733751996090836500,3.77783642578125,-1.0803345441818237,0.6484662294387817,0.21432805061340332
1733751996100812800,3.787812744140625,-1.0890111923217773,0.7097274661064148,0.1809876710176468
1733751996110788600,3.79778857421875,-1.113660454750061,0.7511060833930969,0.1603659689426422
1733751996120763600,3.807763671875,-1.1401572227478027,0.7754524350166321,0.15658320486545563
1733751996130739700,3.81773974609375,-1.156422734260559,0.8173913359642029,0.1751784235239029
1733751996140714800,3.82771484375,-1.1556885242462158,0.835014820098877,0.18668514490127563
1733751996150690600,3.837690673828125,-1.1672595739364624,0.7989175915718079,0.2055869847536087
1733751996160666600,3.84766650390625,-1.150989055633545,0.7279320955276489,0.20924749970436096
1733751996170641700,3.8576416015625,-1.1281081438064575,0.6338400840759277,0.20758624374866486
1733751996180617500,3.867617431640625,-1.0920158624649048,0.5669957995414734,0.19446617364883423
1733751996190593800,3.87759375,-1.0631139278411865,0.5178310871124268,0.17327609658241272
1733751996200568600,3.887568603515625,-1.0536938905715942,0.5207211971282959,0.16370336711406708
1733751996210544600,3.897544677734375,-1.0624984502792358,0.5587538480758667,0.15634527802467346
1733751996220520700,3.907520751953125,-1.0812039375305176,0.6765435934066772,0.14918670058250427
1733751996230495700,3.917495849609375,-1.1308128833770752,0.7798684239387512,0.15861643850803375
1733751996240471600,3.927471435546875,-1.1438405513763428,0.8005947470664978,0.18640120327472687
1733751996250447600,3.937447509765625,-1.1299307346343994,0.7934632897377014,0.21942996978759766
1733751996260422700,3.947422607421875,-1.1148428916931152,0.7699894309043884,0.24528101086616516
1733751996270398700,3.957398681640625,-1.0897520780563354,0.7603427767753601,0.24427755177021027
1733751996280374500,3.96737451171875,-1.0413198471069336,0.7693506479263306,0.22931458055973053
1733751996290349800,3.977349853515625,-0.985683262348175,0.7642019987106323,0.20388473570346832
1733751996300325600,3.98732568359375,-0.9856313467025757,0.6973721385002136,0.17372949421405792
1733751996310301400,3.997301513671875,-1.0082844495773315,0.6788247227668762,0.1523197591304779
1733751996320276500,4.0072763671875,-1.0493112802505493,0.6720173954963684,0.13163018226623535
1733751996330252800,4.017252685546875,-1.08221435546875,0.6585178375244141,0.11893530935049057
1733751996340227800,4.027227783203125,-1.0813637971878052,0.575812578201294,0.134189635515213
1733751996350204000,4.037203857421875,-1.0455946922302246,0.4753682613372803,0.1585666984319687
1733751996360180000,4.047179931640625,-1.0113416910171509,0.37535083293914795,0.17422422766685486
1733751996370154800,4.05715478515625,-0.9804048538208008,0.30550798773765564,0.1603848934173584
1733751996380131000,4.067131103515625,-0.9401474595069885,0.24627424776554108,0.1380729228258133
1733751996390107000,4.07710693359375,-0.9274934530258179,0.21309684216976166,0.09861551970243454
1733751996400082000,4.08708203125,-0.9419128894805908,0.18606895208358765,0.055687498301267624
1733751996410058000,4.09705810546875,-0.9527835249900818,0.1416497677564621,0.030225347727537155
1733751996420034000,4.107033935546875,-0.9645251631736755,0.09832333028316498,0.03833387419581413
1733751996430008800,4.1170087890625,-0.9537092447280884,0.06419431418180466,0.04353044554591179
1733751996439985200,4.126985107421875,-0.9208365082740784,0.06262917816638947,0.025999655947089195
1733751996449961000,4.1369609375,-0.9006937146186829,0.09619493037462234,-0.00008648581570014358
1733751996459936000,4.14693603515625,-0.859745979309082,0.06952257454395294,-0.020122511312365532
1733751996469912000,4.156912109375,-0.8153325915336609,0.02399095892906189,-0.028813818469643593
1733751996479887000,4.16688720703125,-0.767431914806366,0.01772720366716385,-0.030514512211084366
1733751996489863000,4.17686279296875,-0.7365893125534058,0.03255099058151245,-0.014803620986640453
1733751996499839000,4.1868388671875,-0.734096109867096,0.06758593767881393,0.006540018133819103
1733751996509814000,4.19681396484375,-0.7460595369338989,0.09180484712123871,0.016769472509622574
1733751996519789800,4.206789794921875,-0.7740951776504517,0.10577632486820221,0.002361504826694727
1733751996529766000,4.216765869140625,-0.769966185092926,0.12090252339839935,-0.03032432310283184
1733751996539741000,4.226740966796875,-0.746583878993988,0.11731870472431183,-0.033117979764938354
1733751996549717000,4.236717041015625,-0.6800629496574402,0.1277104616165161,0.009298027493059635
1733751996559692800,4.24669287109375,-0.6511133313179016,0.15499508380889893,0.06464730203151703
1733751996569668000,4.256668212890625,-0.6712155938148499,0.16547223925590515,0.09169252961874008
1733751996579644000,4.266643798828125,-0.6954958438873291,0.18586193025112152,0.06962158530950546
1733751996589620000,4.276619873046875,-0.7179346084594727,0.1972282975912094,0.038624249398708344
1733751996599594800,4.2865947265625,-0.7293129563331604,0.19487619400024414,0.033943213522434235
1733751996609571000,4.296571044921875,-0.7392300367355347,0.2156558483839035,0.05629614740610123
1733751996619547000,4.306546875,-0.7605302333831787,0.2411406934261322,0.08000733703374863
1733751996629522000,4.31652197265625,-0.7630048394203186,0.2802064120769501,0.10129404067993164
1733751996639498000,4.326498046875,-0.7487627863883972,0.3331351578235626,0.1284572035074234
1733751996649473000,4.33647314453125,-0.703200101852417,0.35519686341285706,0.15698084235191345
1733751996659448800,4.34644873046875,-0.6703635454177856,0.3501341938972473,0.158846914768219
1733751996669425000,4.3564248046875,-0.6630921363830566,0.3302009403705597,0.14216631650924683
1733751996679400000,4.36639990234375,-0.6760526895523071,0.3090599775314331,0.11923328787088394
1733751996689376000,4.3763759765625,-0.7072398066520691,0.2836388647556305,0.1103803738951683
1733751996699352000,4.38635205078125,-0.7267323136329651,0.25073763728141785,0.11462012678384781
1733751996709327000,4.3963271484375,-0.7350908517837524,0.2320043295621872,0.1148141622543335
1733751996719303000,4.406302978515625,-0.7252861857414246,0.23156890273094177,0.09842079877853394
1733751996729279000,4.416279052734375,-0.7115004062652588,0.2560712695121765,0.05700167268514633
1733751996739254000,4.42625390625,-0.7067237496376038,0.284354567527771,0.033440686762332916
1733751996749229800,4.436229736328125,-0.71738600730896,0.31479015946388245,0.02490881085395813
1733751996759206100,4.4462060546875,-0.7074905037879944,0.328048437833786,0.03646187111735344
1733751996769181000,4.456180908203125,-0.7067498564720154,0.3197858929634094,0.060731951147317886
1733751996779157000,4.466156982421875,-0.6723505854606628,0.3011389970779419,0.06444599479436874
1733751996789132800,4.4761328125,-0.6387664675712585,0.2958665192127228,0.039618220180273056
1733751996799108000,4.486108154296875,-0.6231755018234253,0.29577863216400146,0.006634438410401344
1733751996809084000,4.496083984375,-0.6081271171569824,0.2736007273197174,-0.005889674182981253
1733751996819059000,4.506058837890625,-0.6002436280250549,0.24153783917427063,0.001746940310113132
1733751996829035000,4.516034912109375,-0.6213076710700989,0.21148252487182617,0.0013167730066925287
1733751996839011000,4.526010986328125,-0.646181583404541,0.18859824538230896,-0.04389411583542824
1733751996848985900,4.53598583984375,-0.6310558915138245,0.13211756944656372,-0.09295693784952164
1733751996858962200,4.545962158203125,-0.5858913660049438,0.08313644677400589,-0.10579949617385864
1733751996868938000,4.55593798828125,-0.5480341911315918,0.024730462580919266,-0.08531564474105835
1733751996878913000,4.5659130859375,-0.5199679732322693,-0.026603033766150475,-0.0671696588397026
1733751996888888800,4.575888916015625,-0.5103093981742859,-0.05404502525925636,-0.0626661404967308
1733751996898865000,4.585864990234375,-0.5032981038093567,-0.0621144063770771,-0.07925310730934143
1733751996908840000,4.59583984375,-0.4973064363002777,-0.09720780700445175,-0.08894096314907074
1733751996918815700,4.605815673828125,-0.49147650599479675,-0.13163022696971893,-0.06447876244783401
1733751996928792000,4.6157919921875,-0.5123594403266907,-0.14639133214950562,-0.05075443163514137
1733751996938766800,4.625766845703125,-0.5282225608825684,-0.14522938430309296,-0.056119900196790695
1733751996948743000,4.635742919921875,-0.5407217144966125,-0.13346493244171143,-0.066170334815979
1733751996958719000,4.645718994140625,-0.5492896437644958,-0.11054497212171555,-0.09204374998807907
1733751996968694000,4.655694091796875,-0.5314139723777771,-0.06702316552400589,-0.08747280389070511
1733751996978669800,4.665669921875,-0.4924008250236511,-0.05234701186418533,-0.05440007150173187
1733751996988644900,4.675644775390625,-0.472968190908432,-0.05131729319691658,-0.01794883981347084
1733751996998621000,4.685620849609375,-0.45779722929000854,-0.02989376150071621,0.00025200191885232925
1733751997008597000,4.695596923828125,-0.45144161581993103,0.01765361614525318,-0.007728586904704571
1733751997018571800,4.70557177734375,-0.42997732758522034,0.07334404438734055,-0.021328285336494446
1733751997028548000,4.715548095703125,-0.39481475949287415,0.11286868900060654,-0.014380883425474167
1733751997038524000,4.72552392578125,-0.3598828613758087,0.14571958780288696,0.000369034125469625
1733751997048499000,4.7354990234375,-0.339107483625412,0.17638033628463745,-0.0014848853461444378
1733751997058475000,4.74547509765625,-0.34481969475746155,0.21962234377861023,0.006790088955312967
1733751997068450800,4.755450927734375,-0.3468784987926483,0.26050207018852234,0.022560063749551773
1733751997078425900,4.76542578125,-0.3451154828071594,0.2825131118297577,0.03557732701301575
1733751997088402000,4.77540185546875,-0.3281620442867279,0.2961408197879791,0.04818469285964966
1733751997098378000,4.7853779296875,-0.31957361102104187,0.3063252866268158,0.03753817453980446
1733751997108353000,4.79535302734375,-0.2972140908241272,0.31139522790908813,0.028433704748749733
1733751997118329000,4.8053291015625,-0.2792012691497803,0.3004291355609894,0.028150344267487526
1733751997128305000,4.815304931640625,-0.2779034674167633,0.2913603186607361,0.04414067044854164
1733751997138280000,4.825280029296875,-0.2738165855407715,0.2711871564388275,0.05401620268821716
1733751997148256000,4.835256103515625,-0.2819681763648987,0.2611900269985199,0.023262297734618187
1733751997158231000,4.84523095703125,-0.2884098291397095,0.2425159513950348,-0.028805695474147797
1733751997168206800,4.855206787109375,-0.2501319348812103,0.21064943075180054,-0.05317037180066109
1733751997178183000,4.865182861328125,-0.17489895224571228,0.1756376475095749,-0.03894216567277908
1733751997188158000,4.875157958984375,-0.11930851638317108,0.1386815756559372,-0.012249317020177841
1733751997198134000,4.885134033203125,-0.11735428869724274,0.1156657487154007,-0.001836357987485826
1733751997208109800,4.89510986328125,-0.1319437474012375,0.09890975803136826,-0.022233866155147552
1733751997218085000,4.905085205078125,-0.16347584128379822,0.07495834678411484,-0.05718332901597023
1733751997228061000,4.91506103515625,-0.17519709467887878,0.06481145322322845,-0.07616737484931946
1733751997238037000,4.925037109375,-0.19515642523765564,0.07857706397771835,-0.08260396867990494
1733751997248012000,4.935011962890625,-0.19287323951721191,0.10516513884067535,-0.07560916990041733
1733751997257988000,4.944988037109375,-0.1596851944923401,0.1307128518819809,-0.06956059485673904
1733751997267963000,4.954962890625,-0.080892413854599,0.15519121289253235,-0.05897555500268936
1733751997277939000,4.96493896484375,0.013760056346654892,0.16152288019657135,-0.04759480431675911
1733751997287915000,4.9749150390625,0.08829782903194427,0.13006535172462463,-0.044202856719493866
1733751997297890000,4.98489013671875,0.10452766716480255,0.09612496197223663,-0.050334516912698746
1733751997307865900,4.994865966796875,0.08057476580142975,0.0742272287607193,-0.06421627849340439
1733751997317842000,5.004842041015625,0.010844681411981583,0.08059511333703995,-0.0616372786462307
1733751997337793000,5.02479296875,-0.05403733626008034,0.14743855595588684,-0.057535890489816666
1733751997347769000,5.03476904296875,0.05381609499454498,0.14898821711540222,-0.06378250569105148
1733751997357744000,5.044744140625,0.1820441037416458,0.12328978627920151,-0.0801771879196167
1733751997367720200,5.05472021484375,0.23364894092082977,0.09583065658807755,-0.08842522650957108
1733751997377696000,5.064696044921875,0.23847618699073792,0.10331013798713684,-0.07429289817810059
1733751997387671300,5.07467138671875,0.23111961781978607,0.13296452164649963,-0.05174676328897476
1733751997397647000,5.084647216796875,0.24634277820587158,0.145059272646904,-0.03764372691512108
1733751997407623200,5.094623046875,0.27624574303627014,0.14020970463752747,-0.04888153448700905
1733751997417598000,5.104597900390625,0.30958184599876404,0.13327963650226593,-0.067169189453125
1733751997427574300,5.11457421875,0.32520973682403564,0.11899857968091965,-0.07485371083021164
1733751997437549000,5.124549072265625,0.3280087113380432,0.09422212839126587,-0.06602159887552261
1733751997447525000,5.134525146484375,0.3261561691761017,0.05897592380642891,-0.05962811037898064
1733751997457501200,5.144501220703125,0.32898762822151184,0.013716833665966988,-0.06128033623099327
1733751997467476200,5.154476318359375,0.34969043731689453,-0.04192773252725601,-0.06228148564696312
1733751997477452000,5.1644521484375,0.3895353376865387,-0.08185384422540665,-0.06261411309242249
1733751997487428000,5.174427978515625,0.4312492907047272,-0.09808283299207687,-0.07552121579647064
1733751997497403100,5.184403076171875,0.4575354754924774,-0.09560982137918472,-0.1127181127667427
1733751997507379000,5.19437890625,0.45550835132598877,-0.0918213352560997,-0.1493576169013977
1733751997517355300,5.204355224609375,0.4374702274799347,-0.07035652548074722,-0.15544293820858002
1733751997527330000,5.214330078125,0.4829726815223694,-0.06499528884887695,-0.13876128196716309
1733751997537306000,5.22430615234375,0.4973907470703125,-0.09291160851716995,-0.12572483718395233
1733751997547282200,5.2342822265625,0.48468226194381714,-0.08719725161790848,-0.13557210564613342
1733751997557257200,5.24425732421875,0.4530673623085022,-0.06574895232915878,-0.1512131243944168
1733751997567233000,5.25423291015625,0.4699745774269104,-0.05768551677465439,-0.14920252561569214
1733751997577209300,5.264209228515625,0.5661810040473938,-0.12668828666210175,-0.1349349021911621
1733751997587184000,5.27418408203125,0.6351158618927002,-0.19543059170246124,-0.1364571750164032
1733751997597160200,5.28416015625,0.6846698522567749,-0.2005673050880432,-0.14406847953796387
1733751997607135000,5.294135009765625,0.718386173248291,-0.19325172901153564,-0.14503121376037598
1733751997617111300,5.304111328125,0.6952304840087891,-0.17703361809253693,-0.13950249552726746
1733751997627087000,5.314087158203125,0.69948410987854,-0.1403546929359436,-0.13759326934814453
1733751997637062100,5.324062255859375,0.7222517132759094,-0.1747390329837799,-0.12180153280496597
1733751997647038200,5.3340380859375,0.794821560382843,-0.2246047705411911,-0.1284705102443695
1733751997657014000,5.344013916015625,0.8334653973579407,-0.2867432236671448,-0.13565145432949066
1733751997666989000,5.353989013671875,0.8500866293907166,-0.3143137991428375,-0.1427307426929474
1733751997676965000,5.363965087890625,0.8617469668388367,-0.3244178593158722,-0.13579027354717255
1733751997686941200,5.373941162109375,0.8690731525421143,-0.3236551284790039,-0.1243090108036995
1733751997696916200,5.383916259765625,0.8547171354293823,-0.316437691450119,-0.12091560661792755
1733751997706892000,5.39389208984375,0.8660996556282043,-0.30099543929100037,-0.13230763375759125
1733751997716868000,5.4038681640625,0.9442327618598938,-0.34111595153808594,-0.12834137678146362
1733751997726843100,5.413843017578125,0.9816032648086548,-0.39763060212135315,-0.12590959668159485
1733751997736819000,5.42381884765625,0.9742481708526611,-0.42630672454833984,-0.13261623680591583
1733751997746795300,5.433795166015625,0.9191325902938843,-0.42103537917137146,-0.1481444537639618
1733751997756770000,5.44377001953125,0.9543914794921875,-0.4404096007347107,-0.16613250970840454
1733751997766746000,5.45374609375,1.0657150745391846,-0.55055832862854,-0.1734633892774582
1733751997776721000,5.463720947265625,1.1455953121185303,-0.6521587371826172,-0.20423541963100433
1733751997786697200,5.473697265625,1.1710968017578125,-0.6965566277503967,-0.21774600446224213
1733751997796673000,5.483673095703125,1.1603472232818604,-0.7129790186882019,-0.20896050333976746
1733751997806648000,5.49364794921875,1.0895203351974487,-0.7241831421852112,-0.1866815984249115
1733751997816624000,5.5036240234375,1.1132310628890991,-0.7896966338157654,-0.17026373744010925
1733751997826600200,5.51360009765625,1.1446459293365479,-0.9406249523162842,-0.1564359813928604
1733751997836575000,5.523574951171875,1.1622421741485596,-1.0813130140304565,-0.15748660266399384
1733751997846551300,5.53355126953125,1.1784907579421997,-1.1595784425735474,-0.16306790709495544
1733751997856527000,5.543527099609375,1.2046613693237305,-1.1717137098312378,-0.1462966501712799
1733751997866502100,5.553502197265625,1.1907809972763062,-1.0960137844085693,-0.12045930325984955
1733751997876478200,5.563478271484375,1.2373194694519043,-1.0024607181549072,-0.10096389800310135
1733751997886454000,5.5734541015625,1.2296961545944214,-0.9484333395957947,-0.09891361743211746
1733751997896429000,5.583428955078125,1.156795859336853,-0.8489256501197815,-0.112592414021492
1733751997906405000,5.593405029296875,1.17648446559906,-0.767676055431366,-0.12960688769817352
1733751997916381200,5.603381103515625,1.2304574251174927,-0.7913214564323425,-0.11883466690778732
1733751997926356000,5.61335595703125,1.2344677448272705,-0.7944302558898926,-0.09237357974052429
1733751997936332300,5.623332275390625,1.1658014059066772,-0.7008408904075623,-0.0653291791677475
1733751997946307000,5.63330712890625,1.1601588726043701,-0.6638773679733276,-0.024066800251603127
1733751997956283100,5.643283203125,1.2367104291915894,-0.7347254753112793,-0.0025031850673258305
1733751997966259000,5.653259033203125,1.2725958824157715,-0.8207338452339172,-0.015443511307239532
1733751997976234200,5.663234130859375,1.2753539085388184,-0.844059407711029,-0.034832920879125595
1733751997986210000,5.6732099609375,1.2559864521026611,-0.8647257089614868,-0.02257508412003517
1733751997996186000,5.68318603515625,1.2091121673583984,-0.8645976185798645,0.007353786379098892
1733751998006161200,5.6931611328125,1.2645546197891235,-0.8766827583312988,0.028211278840899467
1733751998016137200,5.70313720703125,1.2784323692321777,-0.8987739682197571,0.028781460598111153
1733751998026113000,5.713113037109375,1.2695629596710205,-0.8617404103279114,0.01844683662056923
1733751998036088300,5.72308837890625,1.2603299617767334,-0.7951682806015015,0.029488036409020424
1733751998046064000,5.733064208984375,1.3340754508972168,-0.8139229416847229,0.0654173195362091
1733751998056040000,5.7430400390625,1.3614094257354736,-0.8003509044647217,0.07223181426525116
1733751998066015000,5.753014892578125,1.3602641820907593,-0.7107410430908203,0.06663638353347778
1733751998075991000,5.762990966796875,1.398317575454712,-0.6288371086120605,0.07423064857721329
1733751998085966000,5.772966064453125,1.412529468536377,-0.5757337808609009,0.10214207321405411
1733751998095942100,5.782942138671875,1.4117952585220337,-0.5012736320495605,0.12219061702489853
1733751998105918200,5.792918212890625,1.4130733013153076,-0.42471548914909363,0.12327650189399719
1733751998115893200,5.802893310546875,1.4353868961334229,-0.41516751050949097,0.1282651424407959
1733751998125869000,5.812869140625,1.4110009670257568,-0.4282580614089966,0.13642431795597076
1733751998135845000,5.82284521484375,1.3857645988464355,-0.43476390838623047,0.12767663598060608
1733751998145820200,5.832820068359375,1.402290940284729,-0.4320280849933624,0.11720281839370728
1733751998155796000,5.8427958984375,1.4144223928451538,-0.4335721731185913,0.11334256082773209
1733751998165772300,5.852772216796875,1.4189951419830322,-0.4531475305557251,0.12821374833583832
1733751998175747000,5.8627470703125,1.3673913478851318,-0.49444836378097534,0.16029152274131775
1733751998185723100,5.87272314453125,1.3223532438278198,-0.5138787031173706,0.19146354496479034
1733751998195699200,5.88269921875,1.306045413017273,-0.5936241149902344,0.18322692811489105
1733751998205674200,5.89267431640625,1.2850230932235718,-0.7012631297111511,0.14853185415267944
1733751998215650000,5.902650146484375,1.272152304649353,-0.8043676614761353,0.12053802609443665
1733751998225626000,5.912626220703125,1.2653099298477173,-0.8531347513198853,0.11736550182104111
1733751998235601200,5.92260107421875,1.3466143608093262,-0.822664737701416,0.13713601231575012
1733751998245577200,5.9325771484375,1.3816301822662354,-0.7741175889968872,0.1683616191148758
1733751998255552000,5.942552001953125,1.3764545917510986,-0.6916200518608093,0.1774217039346695
1733751998265528300,5.9525283203125,1.3829644918441772,-0.6032737493515015,0.17095616459846497
1733751998275504000,5.962504150390625,1.3208502531051636,-0.5101390480995178,0.170674130320549
1733751998285479200,5.972479248046875,1.3588287830352783,-0.4216693639755249,0.1861225962638855
1733751998295455200,5.982455322265625,1.3707836866378784,-0.3700208067893982,0.21601098775863647
1733751998305431000,5.99243115234375,1.3480677604675293,-0.30333471298217773,0.2053665816783905
1733751998315406000,6.002406005859375,1.3181852102279663,-0.2333061248064041,0.16554060578346252
1733751998325382100,6.012382080078125,1.2922805547714233,-0.15447527170181274,0.13930003345012665
1733751998335358000,6.02235791015625,1.2588958740234375,-0.08883872628211975,0.12634322047233582
1733751998345332700,6.032332763671875,1.2160710096359253,-0.05730539560317993,0.12258993089199066
1733751998355308800,6.042308837890625,1.168401837348938,-0.05568299815058708,0.1001482680439949
1733751998365283800,6.052283935546875,1.124268889427185,-0.0720052719116211,0.062350139021873474
1733751998375260000,6.062260009765625,1.0966484546661377,-0.12246818095445633,0.033898524940013885
1733751998385235700,6.072235595703125,1.1147540807724,-0.1721547544002533,0.03885771706700325
1733751998395210800,6.082210693359375,1.156807541847229,-0.23083272576332092,0.04921608045697212
1733751998405186800,6.092186767578125,1.2141306400299072,-0.2940109372138977,0.0370885506272316
1733751998415163000,6.102162841796875,1.2385914325714111,-0.3562801778316498,-0.0005602900055237114
1733751998425137700,6.1121376953125,1.228116512298584,-0.42373931407928467,-0.03726578503847122
1733751998435114000,6.122114013671875,1.2138547897338867,-0.5108311176300049,-0.051070548593997955
1733751998445089800,6.13208984375,1.1922367811203003,-0.611904501914978,-0.06844435632228851
1733751998455064800,6.14206494140625,1.1634777784347534,-0.6999261975288391,-0.09973011165857315
1733751998465041000,6.152041015625,1.1574798822402954,-0.7682044506072998,-0.137306347489357
1733751998475017000,6.162016845703125,1.159010410308838,-0.8131995797157288,-0.15683557093143463
1733751998484991700,6.17199169921875,1.1503082513809204,-0.798322319984436,-0.13555435836315155
1733751998494968000,6.181968017578125,1.1478408575057983,-0.7630333304405212,-0.13562120497226715
1733751998504943900,6.19194384765625,1.103825330734253,-0.696255624294281,-0.13736198842525482
1733751998514919000,6.2019189453125,1.0646995306015015,-0.6034910678863525,-0.17143259942531586
1733751998524894700,6.211894775390625,1.0237480401992798,-0.5177417397499084,-0.21895159780979156
1733751998534870800,6.221870849609375,1.0173604488372803,-0.47414901852607727,-0.2612561583518982
1733751998544845800,6.231845703125,0.9833236336708069,-0.42704299092292786,-0.28284361958503723
1733751998554821600,6.241821533203125,0.9618167281150818,-0.3677367866039276,-0.29698339104652405
1733751998564797000,6.251796875,0.9444451928138733,-0.33856430649757385,-0.3017409145832062
1733751998574772700,6.261772705078125,0.9095948338508606,-0.3249363899230957,-0.2967032790184021
1733751998584748800,6.271748779296875,0.8690842390060425,-0.34162232279777527,-0.26003143191337585
1733751998594723800,6.281723876953125,0.8207124471664429,-0.3469552993774414,-0.21605437994003296
1733751998604700000,6.291699951171875,0.7754273414611816,-0.3364448547363281,-0.19512341916561127
1733751998614675700,6.30167578125,0.7456744909286499,-0.33426666259765625,-0.17704801261425018
1733751998624650800,6.311650634765625,0.7476465702056885,-0.3339114487171173,-0.16710318624973297
1733751998634626800,6.321626708984375,0.7661752104759216,-0.33104294538497925,-0.16064849495887756
1733751998644603000,6.331602783203125,0.7727634310722351,-0.31854018568992615,-0.15283896028995514
1733751998654577700,6.34157763671875,0.7636114954948425,-0.30100512504577637,-0.15103493630886078
1733751998664554000,6.351553955078125,0.7430621981620789,-0.27752402424812317,-0.13671842217445374
1733751998674529800,6.36152978515625,0.7043619751930237,-0.25485172867774963,-0.1064196527004242
1733751998684504800,6.3715048828125,0.6981059908866882,-0.2164127379655838,-0.08753957599401474
1733751998694481000,6.38148095703125,0.7077721953392029,-0.19982151687145233,-0.06495171040296555
1733751998704456000,6.3914560546875,0.7254987359046936,-0.20173120498657227,-0.022957339882850647
1733751998714431700,6.401431640625,0.687519907951355,-0.17650148272514343,0.01769368164241314
1733751998724407800,6.41140771484375,0.6222546696662903,-0.16221123933792114,0.02226378582417965
1733751998734382800,6.4213828125,0.5626139640808105,-0.16814424097537994,0.006600937340408564
1733751998744358700,6.431358642578125,0.557881772518158,-0.1853182017803192,0.00010664551518857479
1733751998754335000,6.4413349609375,0.5910232067108154,-0.23021218180656433,0.010128919966518879
1733751998764309800,6.451309814453125,0.6234182715415955,-0.2748085558414459,0.024246564134955406
1733751998774285800,6.461285888671875,0.6218606233596802,-0.311786025762558,0.03538177162408829
1733751998784262000,6.471261962890625,0.5899829864501953,-0.29673370718955994,0.05583483725786209
1733751998794237000,6.48123681640625,0.5508334636688232,-0.26509350538253784,0.07975801825523376
1733751998804212700,6.491212646484375,0.5137292146682739,-0.23693041503429413,0.08906153589487076
1733751998814188800,6.501188720703125,0.46989139914512634,-0.24264289438724518,0.07931330054998398
1733751998824163800,6.511163818359375,0.42864954471588135,-0.2594728171825409,0.07902329415082932
1733751998834140000,6.521139892578125,0.3857252299785614,-0.26631900668144226,0.10039010643959045
1733751998844115700,6.53111572265625,0.3474999964237213,-0.23927578330039978,0.12048369646072388
1733751998854091000,6.541091064453125,0.3093925714492798,-0.21817901730537415,0.11383058875799179
1733751998864066800,6.55106689453125,0.28535398840904236,-0.2059902846813202,0.09670474380254745
1733751998874041900,6.561041748046875,0.2788923382759094,-0.20685900747776031,0.06936340779066086
1733751998884018000,6.571017822265625,0.27294379472732544,-0.20720453560352325,0.06863516569137573
1733751998893993700,6.58099365234375,0.24775828421115875,-0.16046898066997528,0.07762865722179413
1733751998903968800,6.59096875,0.21350912749767303,-0.10874348133802414,0.09134657680988312
1733751998913944800,6.60094482421875,0.19080834090709686,-0.06930233538150787,0.09824070334434509
1733751998923921000,6.6109208984375,0.18519748747348785,-0.03051324002444744,0.08157999813556671
1733751998933896000,6.62089599609375,0.16514335572719574,0.00909169390797615,0.05390363186597824
1733751998943871700,6.630871826171875,0.12958179414272308,0.03794409707188606,0.022923585027456284
1733751998953847800,6.640847900390625,0.08587931096553802,0.03535177931189537,-0.013308188877999783
1733751998963822800,6.65082275390625,0.028848588466644287,0.01932971179485321,-0.03468121588230133
1733751998973798700,6.660798583984375,-0.022132039070129395,-0.01864377036690712,-0.033970948308706284
1733751998983775000,6.67077490234375,-0.06653141230344772,-0.06917993724346161,-0.023648951202630997
1733751998993749800,6.680749755859375,-0.10475842654705048,-0.10012933611869812,-0.01117710117250681
1733751999003725800,6.690725830078125,-0.13892386853694916,-0.11350113153457642,0.001941842958331108
1733751999013700600,6.70070068359375,-0.1534881740808487,-0.11162307113409042,0.006449243053793907
1733751999023677000,6.710677001953125,-0.15460136532783508,-0.07957486063241959,-0.009717476554214954
1733751999033652700,6.72065283203125,-0.15682804584503174,-0.03646015003323555,-0.039533693343400955
1733751999043627800,6.730627685546875,-0.16802266240119934,0.01066245324909687,-0.06548546254634857
1733751999053603800,6.740603759765625,-0.17949210107326508,0.05294466391205788,-0.0763370469212532
1733751999063580000,6.750579833984375,-0.1970817744731903,0.0872354507446289,-0.0656311884522438
1733751999073554700,6.7605546875,-0.20864388346672058,0.09791286289691925,-0.05242537707090378
1733751999083531000,6.770531005859375,-0.23200705647468567,0.09574633836746216,-0.0625263899564743
1733751999093506800,6.7805068359375,-0.2666705250740051,0.0882125198841095,-0.06894566863775253
1733751999103481900,6.79048193359375,-0.30547279119491577,0.07503194361925125,-0.06804202497005463
1733751999113458000,6.8004580078125,-0.35030683875083923,0.05346139892935753,-0.06506673991680145
1733751999123433700,6.810433837890625,-0.3912283778190613,0.03398504480719566,-0.07162928581237793
1733751999133408800,6.82040869140625,-0.42347580194473267,0.023044247180223465,-0.09727712720632553
1733751999143384800,6.830384765625,-0.4529227912425995,0.00478020403534174,-0.11051497608423233
1733751999153361000,6.84036083984375,-0.4705617129802704,-0.01339507196098566,-0.11185987293720245
1733751999163335700,6.850335693359375,-0.48309126496315,-0.005071051884442568,-0.09156917035579681
1733751999173311700,6.860311767578125,-0.4863547086715698,0.032812945544719696,-0.07454225420951843
1733751999183286800,6.870286865234375,-0.4761238098144531,0.07905245572328568,-0.07493607699871063
1733751999193262800,6.880262939453125,-0.467761754989624,0.127399742603302,-0.06966941058635712
1733751999203238700,6.89023876953125,-0.45055902004241943,0.18890772759914398,-0.04605737328529358
1733751999213214000,6.9002138671875,-0.44318339228630066,0.2631087005138397,-0.009510282427072525
1733751999223189800,6.910189697265625,-0.450980544090271,0.33975812792778015,0.02322465553879738
1733751999233165800,6.920165771484375,-0.4704192280769348,0.3957630693912506,0.031249824911355972
1733751999243140900,6.930140869140625,-0.47224268317222595,0.4056285321712494,-0.010171160101890564
1733751999253117000,6.940116943359375,-0.47909286618232727,0.38002917170524597,-0.04799497127532959
1733751999263092700,6.9500927734375,-0.48878034949302673,0.33941054344177246,-0.06666361540555954
1733751999273067800,6.96006787109375,-0.512119472026825,0.290620356798172,-0.06858242303133011
1733751999283043800,6.9700439453125,-0.5298837423324585,0.22623084485530853,-0.04625580459833145
1733751999293019600,6.98001953125,-0.54188072681427,0.14626756310462952,-0.03187313675880432
1733751999302994700,6.98999462890625,-0.5617778897285461,0.08046244829893112,-0.00372728006914258
1733751999312970800,6.999970703125,-0.5787283778190613,0.04770397022366524,0.020731722936034203
1733751999322945800,7.00994580078125,-0.5789706110954285,0.048149093985557556,0.02977834828197956
1733751999342898400,7.0298984375,-0.5682404637336731,0.08426918089389801,0.024177348241209984
1733751999352873200,7.039873291015625,-0.5714690089225769,0.14895948767662048,0.02848927117884159
1733751999362849300,7.049849365234375,-0.5819863677024841,0.2260582596063614,0.05052411928772926
1733751999372825300,7.059825439453125,-0.6071295142173767,0.31453272700309753,0.10233298689126968
1733751999382800400,7.06980029296875,-0.639867901802063,0.4333725869655609,0.16750071942806244
1733751999392776200,7.079776123046875,-0.6551192998886108,0.5373655557632446,0.1498575359582901
1733751999402752500,7.08975244140625,-0.6557347178459167,0.5881975889205933,0.076488196849823
1733751999412727300,7.099727294921875,-0.6683043241500854,0.5793894529342651,0.03522650897502899
1733751999422703400,7.109703369140625,-0.6937545537948608,0.5491451025009155,0.050369083881378174
1733751999432679400,7.119679443359375,-0.7261495590209961,0.5161940455436707,0.10488079488277435
1733751999442654500,7.129654541015625,-0.7439163327217102,0.47307848930358887,0.1514667570590973
1733751999452630300,7.13963037109375,-0.751392126083374,0.3932454586029053,0.15629826486110687
1733751999462606300,7.1496064453125,-0.7536603808403015,0.3054307699203491,0.11725126206874847
1733751999472581400,7.159581298828125,-0.7556596398353577,0.24399085342884064,0.06511855125427246
1733751999482557200,7.16955712890625,-0.7558221220970154,0.20711903274059296,0.035453811287879944
1733751999492532200,7.1795322265625,-0.7711200714111328,0.18175509572029114,0.025816628709435463
1733751999502508300,7.18950830078125,-0.7927519679069519,0.17661398649215698,0.013895507901906967
1733751999512484400,7.199484375,-0.8283262252807617,0.18876118957996368,0.010049903765320778
1733751999522459400,7.20945947265625,-0.8825740218162537,0.21339426934719086,0.014316275715827942
1733751999532435500,7.219435546875,-0.9332294464111328,0.25470951199531555,-0.0016099605709314346
1733751999542411300,7.229411376953125,-0.9611393213272095,0.28147608041763306,0.0005450950702652335
1733751999552386300,7.23938623046875,-0.9630738496780396,0.2663187086582184,0.007699144072830677
1733751999562362400,7.2493623046875,-0.9518378973007202,0.24957716464996338,-0.0019966131076216698
1733751999572338400,7.25933837890625,-0.9484192132949829,0.25890302658081055,-0.02729211561381817
1733751999582313200,7.269313232421875,-0.9532755613327026,0.2927713394165039,-0.0531177744269371
1733751999592289300,7.279289306640625,-0.9434255957603455,0.36014023423194885,-0.08002768456935883
1733751999602265300,7.289265380859375,-0.9416050314903259,0.43645939230918884,-0.08417944610118866
1733751999612240400,7.299240478515625,-0.9521814584732056,0.4986766576766968,-0.06888943910598755
1733751999622216200,7.30921630859375,-0.9711848497390747,0.547988772392273,-0.05476425960659981
1733751999632191500,7.31919140625,-0.9857392907142639,0.5744725465774536,-0.054756537079811096
1733751999642167300,7.329167236328125,-0.9810234308242798,0.5635903477668762,-0.07573463767766953
1733751999652143400,7.339143310546875,-0.9752188324928284,0.5419862866401672,-0.08746878802776337
1733751999662118400,7.349118408203125,-0.9639003276824951,0.5160043835639954,-0.08111948519945145
1733751999672094500,7.359094482421875,-0.9546407461166382,0.46899157762527466,-0.06014496460556984
1733751999682070300,7.3690703125,-0.944902241230011,0.4439990222454071,-0.045827142894268036
1733751999692045300,7.37904541015625,-0.911863386631012,0.4240780472755432,-0.045876145362854004
1733751999702021400,7.389021484375,-0.8892880082130432,0.4401223659515381,-0.04354417696595192
1733751999711997200,7.3989970703125,-0.8795503973960876,0.47416022419929504,-0.0399494394659996
1733751999721972200,7.40897216796875,-0.8734447956085205,0.5193012356758118,-0.03560665249824524
1733751999731948300,7.4189482421875,-0.8644382357597351,0.5796176195144653,-0.041050951927900314
1733751999741924400,7.42892431640625,-0.8480772376060486,0.6412432193756104,-0.04637710005044937
1733751999751899100,7.438899169921875,-0.8416581749916077,0.6853665113449097,-0.05039394646883011
1733751999761875500,7.44887548828125,-0.8458632826805115,0.7097018361091614,-0.04228736460208893
1733751999771850200,7.458850341796875,-0.8514548540115356,0.6755537390708923,-0.01756444200873375
1733751999781826300,7.468826416015625,-0.8556807041168213,0.6101670861244202,0.00200271001085639
1733751999791802400,7.47880224609375,-0.8574069738388062,0.5289273858070374,0.0184440016746521
1733751999801777400,7.48877734375,-0.8601604700088501,0.46067389845848083,0.025189388543367386
1733751999811753200,7.498753173828125,-0.866882860660553,0.4075707495212555,0.0245603509247303
1733751999821729500,7.5087294921875,-0.880976676940918,0.359720915555954,0.024203099310398102
1733751999831704300,7.518704345703125,-0.9064338803291321,0.32910096645355225,0.03546161204576492
1733751999841680400,7.528680419921875,-0.9279773235321045,0.3024749159812927,0.03098135069012642
1733751999851656400,7.538656494140625,-0.936889111995697,0.2864581346511841,0.005121525377035141
1733751999861631500,7.548631591796875,-0.9342473149299622,0.29429012537002563,-0.020142780616879463
1733751999871607300,7.558607177734375,-0.9340912103652954,0.32089218497276306,-0.03317069634795189
1733751999881583000,7.5685830078125,-0.9277912974357605,0.3789576292037964,-0.030901269987225533
1733751999891558400,7.578558349609375,-0.9085755348205566,0.4466296136379242,-0.0005468269810080528
1733751999901534200,7.5885341796875,-0.8900383114814758,0.5090725421905518,0.0442645438015461
1733751999911510300,7.59851025390625,-0.8822435140609741,0.5698011517524719,0.0807059109210968
1733751999921485300,7.6084853515625,-0.8740079402923584,0.6054102778434753,0.09250344336032867
1733751999931461400,7.61846142578125,-0.8660038113594055,0.6083621382713318,0.07520222663879395
1733751999941436400,7.6284365234375,-0.8698179125785828,0.5963267087936401,0.0581790953874588
1733751999951412500,7.63841259765625,-0.8685885667800903,0.5677725076675415,0.04566783085465431
1733751999961388300,7.64838818359375,-0.870317280292511,0.534998893737793,0.04325835034251213
1733751999971363300,7.65836328125,-0.882121741771698,0.5037224888801575,0.016685862094163895
1733751999981339100,7.668339111328125,-0.9028213024139404,0.47581514716148376,0.0029537249356508255
1733751999991315500,7.6783154296875,-0.9227385520935059,0.4307936131954193,0.004675458185374737
1733752000001290200,7.688290283203125,-0.9465504884719849,0.38789913058280945,0.003849705448374152
1733752000011266300,7.698266357421875,-0.9657667875289917,0.3362146317958832,0.002136494033038616
1733752000021242400,7.708242431640625,-0.9623576402664185,0.2860493063926697,0.0027959058061242104
1733752000031217400,7.718217529296875,-0.9564241170883179,0.2224287986755371,0.003319749142974615
1733752000041193200,7.728193115234375,-0.9558802247047424,0.1509747952222824,0.009413395076990128
1733752000051169300,7.738169189453125,-0.9613034725189209,0.11999957263469696,0.012444072403013706
1733752000061144300,7.748144287109375,-0.9462928771972656,0.14442938566207886,0.010798345319926739
1733752000071120400,7.758120361328125,-0.9337730407714844,0.19180995225906372,-0.008738870732486248
1733752000081095200,7.76809521484375,-0.9549235701560974,0.25136902928352356,-0.02396666631102562
1733752000091071500,7.778071533203125,-0.9963650703430176,0.325793981552124,-0.02107181027531624
1733752000101047300,7.78804736328125,-1.0160017013549805,0.38870325684547424,-0.005530467722564936
1733752000111022300,7.798022216796875,-1.0233900547027588,0.40732353925704956,0.021312864497303963
1733752000120998400,7.807998291015625,-1.0198477506637573,0.39858150482177734,0.06387834250926971
1733752000130974200,7.81797412109375,-1.0195814371109009,0.4029088616371155,0.09977881610393524
1733752000140949200,7.82794921875,-1.0137766599655151,0.420029878616333,0.10739873349666595
1733752000150925300,7.83792529296875,-1.0259361267089844,0.4339805841445923,0.0983320027589798
1733752000160901400,7.8479013671875,-1.0396056175231934,0.4293367564678192,0.07356785982847214
1733752000170876200,7.857876220703125,-1.0414202213287354,0.41898930072784424,0.033140283077955246
1733752000180852500,7.8678525390625,-1.0355756282806396,0.40104174613952637,0.020383475348353386
1733752000190828300,7.877828369140625,-1.0352450609207153,0.39455217123031616,0.031198836863040924
1733752000200803300,7.88780322265625,-1.0344274044036865,0.40745291113853455,0.051756203174591064
1733752000210779400,7.897779296875,-1.0340640544891357,0.42403507232666016,0.06040961295366287
1733752000220754400,7.90775439453125,-1.0198583602905273,0.4330827295780182,0.05222127214074135
1733752000230730200,7.917730224609375,-1.0105012655258179,0.4227887988090515,0.05884189158678055
1733752000240706600,7.92770654296875,-0.9751178026199341,0.39337238669395447,0.07994403690099716
1733752000250681300,7.937681396484375,-0.9391217231750488,0.367482990026474,0.09888923168182373
1733752000260657400,7.947657470703125,-0.9336044788360596,0.3334890604019165,0.09930930286645889
1733752000270633200,7.95763330078125,-0.9297791123390198,0.30976322293281555,0.07213760167360306
1733752000280608500,7.9676083984375,-0.9183385968208313,0.26241937279701233,0.04977794364094734
1733752000290584300,7.977584228515625,-0.9014298915863037,0.19379185140132904,0.05986013635993004
1733752000300560100,7.98756005859375,-0.9085637927055359,0.13789202272891998,0.08384715020656586
1733752000310535400,7.997535400390625,-0.9174031019210815,0.09954782575368881,0.10271910578012466
1733752000320511200,8.00751123046875,-0.9254381656646729,0.0398981012403965,0.10831952095031738
1733752000330487300,8.0174873046875,-0.9400008916854858,-0.03280246630311012,0.0926462858915329
1733752000340462000,8.027462158203125,-0.9366833567619324,-0.07959529757499695,0.04043096676468849
1733752000350438400,8.0374384765625,-0.9267649054527283,-0.11160622537136078,-0.02660825476050377
1733752000360414200,8.047414306640626,-0.9053690433502197,-0.12066660076379776,-0.053783565759658813
1733752000370389200,8.05738916015625,-0.8874848484992981,-0.10909649729728699,-0.02065703645348549
1733752000380365300,8.067365234375,-0.8669048547744751,-0.09650128334760666,0.03204428777098656
1733752000390340400,8.07734033203125,-0.845316469669342,-0.06944383680820465,0.06636843830347061
1733752000400316200,8.087316162109374,-0.8199789524078369,-0.04322785884141922,0.06786468625068665
1733752000410292500,8.09729248046875,-0.7918634414672852,-0.007021917030215263,0.043356407433748245
1733752000420267300,8.107267333984375,-0.7653419375419617,0.04834242910146713,0.029324784874916077
1733752000430243300,8.117243408203125,-0.7206000685691833,0.13917645812034607,0.04673759639263153
1733752000440219400,8.127219482421875,-0.6882485151290894,0.23039089143276215,0.07143905758857727
1733752000450194400,8.1371943359375,-0.6754062175750732,0.28150174021720886,0.06548982113599777
1733752000460170200,8.147170166015625,-0.6705489754676819,0.28528231382369995,0.051714178174734116
1733752000470146300,8.157146240234376,-0.658214807510376,0.2843467593193054,0.04934076964855194
1733752000480121300,8.167121337890626,-0.6529231667518616,0.309134840965271,0.05634395405650139
1733752000490097400,8.177097412109376,-0.6503007411956787,0.3641442656517029,0.08780920505523682
1733752000500073500,8.187073486328124,-0.6580921411514282,0.41305768489837646,0.12843114137649536
1733752000510048500,8.197048583984374,-0.6708529591560364,0.44116121530532837,0.1458418220281601
1733752000520024300,8.2070244140625,-0.6981885433197021,0.426154226064682,0.1471749246120453
1733752000529999400,8.216999267578124,-0.7825673818588257,0.38916850090026855,0.17642414569854736
1733752000539975400,8.226975341796875,-0.836718738079071,0.5002351999282837,0.21832919120788574
1733752000549951200,8.236951171875,-0.7988107800483704,0.5051498413085938,0.18085850775241852
1733752000559926300,8.24692626953125,-0.71867436170578,0.3868319094181061,0.09363650530576706
1733752000569902300,8.25690234375,-0.6198750734329224,0.319073885679245,0.02400416135787964
1733752000579878400,8.26687841796875,-0.5595158934593201,0.33178484439849854,0.008439144119620323
1733752000589853200,8.276853271484375,-0.5567017197608948,0.34554246068000793,0.03659514710307121
1733752000599829500,8.28682958984375,-0.5822315812110901,0.3351215124130249,0.06661749631166458
1733752000609805300,8.296805419921874,-0.6068751811981201,0.3029468059539795,0.07153742015361786
1733752000619780400,8.3067802734375,-0.6325465440750122,0.26091253757476807,0.05823943018913269
1733752000629756200,8.316756103515624,-0.6523240208625793,0.22214436531066895,0.047971878200769424
1733752000639732500,8.326732421875,-0.6604116559028625,0.18325380980968475,0.03616449981927872
1733752000649707300,8.336707275390625,-0.6652551293373108,0.1433042734861374,0.034233178943395615
1733752000659683300,8.346683349609375,-0.6768451929092407,0.09174808859825134,0.035774149000644684
1733752000669658400,8.356658447265625,-0.6878672242164612,0.02535148337483406,0.03840402141213417
1733752000679634400,8.366634521484375,-0.7000909447669983,-0.02380784973502159,0.013501427136361599
1733752000689610200,8.3766103515625,-0.7006278038024902,-0.04582180455327034,-0.03302852436900139
1733752000699585500,8.38658544921875,-0.6895761489868164,-0.0226052924990654,-0.05910458788275719
1733752000709561300,8.396561279296876,-0.6681651473045349,0.018275562673807144,-0.054578009992837906
1733752000719537200,8.406537109375,-0.6538176536560059,0.06666809320449829,-0.027739379554986954
1733752000729512200,8.41651220703125,-0.645948588848114,0.12779775261878967,-0.011559078469872475
1733752000739488300,8.42648828125,-0.6503425240516663,0.17949050664901733,-0.000657960947137326
1733752000749464300,8.43646435546875,-0.655002236366272,0.2209165096282959,-0.013650192879140377
1733752000759439000,8.446439208984375,-0.640241265296936,0.18384486436843872,-0.03840392827987671
1733752000769415400,8.45641552734375,-0.6209467053413391,0.11488603800535202,-0.07353102415800095
1733752000779391200,8.46639111328125,-0.5992057919502258,0.042828939855098724,-0.10787441581487656
1733752000789366300,8.4763662109375,-0.5612160563468933,-0.005510362796485424,-0.11406892538070679
1733752000799342300,8.48634228515625,-0.5288164615631104,-0.0048709227703511715,-0.08795501291751862
1733752000809318400,8.496318359375,-0.5101391673088074,0.0042485399171710014,-0.0478518009185791
1733752000819293200,8.506293212890625,-0.5011379718780518,0.025545164942741394,-0.013634453527629375
1733752000829269500,8.51626953125,-0.49951857328414917,0.048225175589323044,0.002581268083304167
1733752000839244300,8.526244384765626,-0.49334385991096497,0.06785053014755249,0.0018472746014595032
1733752000849220400,8.536220458984374,-0.47992101311683655,0.07620300352573395,-0.0023045935668051243
1733752000859196400,8.546196533203124,-0.46517929434776306,0.09926248341798782,0.006008849013596773
1733752000869171500,8.55617138671875,-0.46170997619628906,0.13309982419013977,0.01536213792860508
1733752000879147300,8.566147216796875,-0.46128883957862854,0.1431879848241806,0.004860455170273781
1733752000889123300,8.576123291015625,-0.45466768741607666,0.12922342121601105,-0.023108329623937607
1733752000899098400,8.586098388671875,-0.424730509519577,0.1332724690437317,-0.039652299135923386
1733752000909074400,8.596074462890625,-0.395328164100647,0.14065101742744446,-0.021301254630088806
1733752000919050200,8.60605029296875,-0.3847343623638153,0.15210303664207458,0.02353881485760212
1733752000929025500,8.616025634765625,-0.3976118266582489,0.15784375369548798,0.0663805603981018
1733752000939001300,8.62600146484375,-0.41264382004737854,0.138107031583786,0.07269366830587387
1733752000948977200,8.63597705078125,-0.42006632685661316,0.07204838842153549,0.05066053941845894
1733752000958952400,8.645952392578126,-0.41634348034858704,-0.006462498567998409,0.022257821634411812
1733752000968928300,8.65592822265625,-0.400652676820755,-0.06508693099021912,0.021307338029146194
1733752000978903300,8.6659033203125,-0.3916342556476593,-0.0889144167304039,0.06911781430244446
1733752000988879400,8.67587939453125,-0.3905031979084015,-0.08635485172271729,0.119379922747612
1733752000998855400,8.68585546875,-0.3892782926559448,-0.06548746675252914,0.14627723395824432
1733752001008830200,8.695830322265625,-0.3846212327480316,-0.044135574251413345,0.13346609473228455
1733752001018806300,8.70580615234375,-0.37425774335861206,-0.020755711942911148,0.10958166420459747
1733752001028782300,8.7157822265625,-0.35646411776542664,-0.01727629080414772,0.08927585929632187
1733752001038757400,8.72575732421875,-0.34361588954925537,-0.038799919188022614,0.0864296406507492
1733752001048733200,8.735733154296875,-0.3266230523586273,-0.04733561351895332,0.0914909765124321
1733752001058709500,8.74570947265625,-0.31719887256622314,-0.02838451974093914,0.08991509675979614
1733752001068684300,8.755684326171876,-0.30498430132865906,-0.0015965811908245087,0.06592028588056564
1733752001078660400,8.765660400390624,-0.28945493698120117,0.007123000919818878,0.03481161594390869
1733752001088636400,8.775636474609374,-0.25700297951698303,0.03160490840673447,0.02258584275841713
1733752001098611500,8.785611572265625,-0.21046380698680878,0.08788751065731049,0.0450739748775959
1733752001108587300,8.795587158203125,-0.1806102991104126,0.14128707349300385,0.07881409674882889
1733752001118562300,8.805562255859375,-0.16575676202774048,0.17828521132469177,0.09987177699804306
1733752001128538400,8.815538330078125,-0.16495728492736816,0.20791713893413544,0.07456748932600021
1733752001138514200,8.82551416015625,-0.15743957459926605,0.2117871791124344,0.03239651396870613
1733752001148489200,8.8354892578125,-0.1407833695411682,0.2084217369556427,-0.0039657545275986195
1733752001158465300,8.84546533203125,-0.11240510642528534,0.18967704474925995,-0.006744522601366043
1733752001168441300,8.85544140625,-0.08798950910568237,0.18171580135822296,0.004475374706089497
1733752001178416000,8.865416015625,-0.07115292549133301,0.16351358592510223,0.0031747540924698114
1733752001188392400,8.875392333984376,-0.07006102800369263,0.11734022200107574,-0.009583119302988052
1733752001198368300,8.8853681640625,-0.06944005191326141,0.08992613106966019,-0.021515052765607834
1733752001208343300,8.89534326171875,-0.06210703402757645,0.08334172517061234,-0.014184169471263885
1733752001218319400,8.9053193359375,-0.05514352768659592,0.07683731615543365,0.0015959391603246331
1733752001228295400,8.91529541015625,-0.0547640286386013,0.062463968992233276,0.0044343359768390656
1733752001238270200,8.925270263671875,-0.04497164115309715,0.05080290511250496,-0.01885049231350422
1733752001248246500,8.93524658203125,-0.014942637644708157,0.051700659096241,-0.046564944088459015
1733752001258221300,8.94522119140625,0.006498156115412712,0.06984143704175949,-0.06765303015708923
1733752001268197400,8.955197265625,0.026553090661764145,0.07862374186515808,-0.07004161924123764
1733752001278173200,8.965173095703125,0.046261124312877655,0.07731694728136063,-0.0518110916018486
1733752001288148500,8.9751484375,0.06788519024848938,0.08868784457445145,-0.02724289894104004
1733752001298124300,8.985124267578126,0.08438410609960556,0.08288146555423737,-0.02523181401193142
1733752001308100000,8.99510009765625,0.0932292640209198,0.07381979376077652,-0.04389151930809021
1733752001318075400,9.005075439453124,0.11869420111179352,0.06638598442077637,-0.0791725292801857
1733752001328051500,9.015051513671875,0.14934559166431427,0.04444313794374466,-0.07764174789190292
1733752001348002300,9.035002197265625,0.2057398110628128,0.023187875747680664,-0.037402354180812836
1733752001357978000,9.04497802734375,0.2273969203233719,0.04765903204679489,-0.04587504267692566
1733752001367954000,9.054953857421875,0.24740950763225555,0.08924136310815811,-0.05955010652542114
1733752001377929200,9.06492919921875,0.27199387550354004,0.11396204680204391,-0.062046781182289124
1733752001387905000,9.074905029296875,0.2982044219970703,0.14907768368721008,-0.04625556617975235
1733752001397880000,9.084880126953125,0.3204345703125,0.17677825689315796,-0.03381016105413437
1733752001407856000,9.094856201171876,0.3546391427516937,0.18738774955272675,-0.01763651892542839
1733752001417832200,9.104832275390624,0.3735470175743103,0.17951937019824982,-0.01842992752790451
1733752001427807000,9.114806884765626,0.3927217721939087,0.17057541012763977,-0.03167728707194328
1733752001437783000,9.124782958984374,0.4209628701210022,0.16201280057430267,-0.045544128865003586
1733752001447759000,9.134759033203125,0.4526425004005432,0.16265861690044403,-0.06258116662502289
1733752001457734100,9.144734130859375,0.4821356236934662,0.16801045835018158,-0.08286850154399872
1733752001467710000,9.1547099609375,0.5153726935386658,0.1863793432712555,-0.09590520709753036
1733752001477686300,9.164686279296875,0.5288511514663696,0.18623493611812592,-0.11002188920974731
1733752001487661000,9.1746611328125,0.5423792004585266,0.1829126477241516,-0.0978057011961937
1733752001497637000,9.18463720703125,0.5601539611816406,0.16900615394115448,-0.07939819991588593
1733752001507613200,9.19461328125,0.5848249197006226,0.13063932955265045,-0.06919509172439575
1733752001517588200,9.204588134765626,0.6165730357170105,0.08422628045082092,-0.07614398002624512
1733752001527564000,9.21456396484375,0.640815258026123,0.03938823193311691,-0.11127880215644836
1733752001537539000,9.2245390625,0.6560357213020325,-0.0037372023798525333,-0.14892449975013733
1733752001547515100,9.23451513671875,0.6792837381362915,-0.035979826003313065,-0.17803870141506195
1733752001557491000,9.244490966796874,0.7105042338371277,-0.06616087257862091,-0.19508875906467438
1733752001567466000,9.254466064453124,0.7481064796447754,-0.1077413409948349,-0.19826164841651917
1733752001577442000,9.264442138671875,0.770317018032074,-0.14540685713291168,-0.19317783415317535
1733752001587418000,9.274418212890625,0.7711154222488403,-0.20363874733448029,-0.18834339082241058
1733752001597393200,9.28439306640625,0.7733221054077148,-0.255914568901062,-0.20310847461223602
1733752001607369200,9.294369140625,0.7785557508468628,-0.3086744546890259,-0.22179187834262848
1733752001617345000,9.304344970703125,0.7977296710014343,-0.3487105667591095,-0.23897391557693481
1733752001627320000,9.314320068359375,0.8295965194702148,-0.37730729579925537,-0.24102374911308289
1733752001637296000,9.324296142578126,0.8605417609214783,-0.39923158288002014,-0.2397911697626114
1733752001647272200,9.334272216796874,0.8794017434120178,-0.4151005446910858,-0.25107526779174805
1733752001657247000,9.3442470703125,0.8841351866722107,-0.41951167583465576,-0.27164843678474426
1733752001667223300,9.354223388671874,0.8832979202270508,-0.40931016206741333,-0.27962034940719604
1733752001677198000,9.364197998046874,0.8948297500610352,-0.39854735136032104,-0.2657405734062195
1733752001687174100,9.374174072265625,0.9233620762825012,-0.39114055037498474,-0.24623557925224304
1733752001697150200,9.384150146484375,0.9215584993362427,-0.3846081495285034,-0.23780019581317902
1733752001707125200,9.394125244140625,0.9273093342781067,-0.3847418427467346,-0.24145245552062988
1733752001717101000,9.40410107421875,0.9631640315055847,-0.421853631734848,-0.2522391378879547
1733752001727077000,9.4140771484375,0.9922587871551514,-0.4801270365715027,-0.2521965503692627
1733752001737052200,9.42405224609375,1.0022045373916626,-0.5313553810119629,-0.2416950762271881
1733752001747028200,9.4340283203125,1.0001139640808105,-0.5510683655738831,-0.2390737235546112
1733752001757004000,9.444004150390626,1.0182626247406006,-0.5622450709342957,-0.2317136526107788
1733752001766979300,9.453979248046876,1.01390540599823,-0.5867744088172913,-0.20817875862121582
1733752001776955100,9.463955078125,1.0244803428649902,-0.6269497871398926,-0.19326239824295044
1733752001786931000,9.473930908203124,1.0250707864761353,-0.6951844692230225,-0.1924261599779129
1733752001796906200,9.48390625,1.0331920385360718,-0.7510662078857422,-0.19433768093585968
1733752001806882000,9.493882080078125,1.0672138929367065,-0.8004811406135559,-0.1940620392560959
1733752001816858000,9.503858154296875,1.096703290939331,-0.8225473165512085,-0.18151021003723145
1733752001826833000,9.5138330078125,1.0821938514709473,-0.8084887266159058,-0.15023989975452423
1733752001836809200,9.523809326171875,1.0961114168167114,-0.7700525522232056,-0.1378609538078308
1733752001846784000,9.533783935546875,1.0991016626358032,-0.7548751831054688,-0.12751111388206482
1733752001856760000,9.543760009765625,1.1352945566177368,-0.7597588300704956,-0.12340952455997467
1733752001866736000,9.553736083984376,1.1751842498779297,-0.7732053995132446,-0.10511041432619095
1733752001876711200,9.563711181640626,1.1770806312561035,-0.7604902982711792,-0.07842356711626053
1733752001886687000,9.57368701171875,1.170777678489685,-0.7052991986274719,-0.05996014177799225
1733752001896663300,9.583663330078124,1.1972730159759521,-0.6665036678314209,-0.044794727116823196
1733752001906638000,9.59363818359375,1.2107254266738892,-0.648493766784668,-0.026874585077166557
1733752001916614100,9.6036142578125,1.2277058362960815,-0.6231200098991394,-0.01577002741396427
1733752001926590200,9.613590087890625,1.2427119016647339,-0.6013886332511902,-0.012835756875574589
1733752001936565200,9.623565185546875,1.238447904586792,-0.587551474571228,0.0004024427616968751
1733752001946541000,9.633541015625,1.2683470249176025,-0.5806911587715149,0.009463049471378326
1733752001956517000,9.64351708984375,1.2800809144973755,-0.5918132066726685,0.027365896850824356
1733752001966492200,9.6534921875,1.2986491918563843,-0.5783543586730957,0.024940555915236473
1733752001976468000,9.663468017578126,1.3120571374893188,-0.5708175897598267,0.016207106411457062
1733752001986443000,9.673443115234376,1.3146389722824097,-0.5804321765899658,0.00716780498623848
1733752001996419000,9.683419189453126,1.3016289472579956,-0.5866944193840027,0.007447982672601938
1733752002006395100,9.69339501953125,1.3065696954727173,-0.6048241853713989,0.017236962914466858
1733752002016370200,9.7033701171875,1.2974995374679565,-0.6186954379081726,0.04006074741482735
1733752002026346200,9.71334619140625,1.2898030281066895,-0.6339497566223145,0.06511522829532623
1733752002036322000,9.723322021484375,1.287752628326416,-0.6514347195625305,0.09289241582155228
1733752002046297000,9.733297119140625,1.3011325597763062,-0.6663231253623962,0.10437916219234467
1733752002056273200,9.743273193359375,1.3035181760787964,-0.6746278405189514,0.1097891628742218
1733752002066249200,9.753249267578125,1.2951923608779907,-0.6891407370567322,0.12244237214326859
1733752002076224000,9.76322412109375,1.2921642065048218,-0.700200080871582,0.13091684877872467
1733752002086200000,9.773199951171875,1.2958961725234985,-0.6899279952049255,0.13587352633476257
1733752002096175000,9.783175048828125,1.2951428890228271,-0.6738956570625305,0.1526646912097931
1733752002106151200,9.793151123046876,1.2943423986434937,-0.6454917192459106,0.1787996143102646
1733752002116127000,9.803126953125,1.2778618335723877,-0.5999250411987305,0.1866818219423294
1733752002126102300,9.813102294921874,1.2828854322433472,-0.5435033440589905,0.16447798907756805
1733752002136078000,9.823078125,1.27436101436615,-0.48719295859336853,0.12706191837787628
1733752002146054100,9.83305419921875,1.2600071430206299,-0.43589383363723755,0.10911007970571518
1733752002156029200,9.843029296875,1.2497260570526123,-0.39634647965431213,0.1311853528022766
1733752002166005200,9.853005126953125,1.2319926023483276,-0.38233986496925354,0.18175825476646423
1733752002175981000,9.86298095703125,1.2124357223510742,-0.38080400228500366,0.21872881054878235
1733752002185956000,9.8729560546875,1.2049394845962524,-0.39559173583984375,0.2282019406557083
1733752002195932200,9.88293212890625,1.2019227743148804,-0.41870176792144775,0.2062941938638687
1733752002205908000,9.892907958984376,1.2015507221221924,-0.46662989258766174,0.17893101274967194
1733752002215883000,9.902883056640626,1.1926847696304321,-0.5084303617477417,0.16378839313983917
1733752002225859000,9.912859130859376,1.1742479801177979,-0.5241443514823914,0.15124383568763733
1733752002235835100,9.922835205078124,1.1636497974395752,-0.5154996514320374,0.14748023450374603
1733752002245810000,9.932809814453124,1.1580400466918945,-0.47749894857406616,0.15191733837127686
1733752002255786200,9.9427861328125,1.1567379236221313,-0.43042898178100586,0.17192862927913666
1733752002265761000,9.952760986328125,1.1558836698532104,-0.36981332302093506,0.1862148940563202
1733752002275737000,9.962737060546875,1.174074411392212,-0.3183467388153076,0.193270742893219
1733752002285713200,9.972713134765625,1.1754398345947266,-0.2919217646121979,0.1762283742427826
1733752002295688200,9.982688232421875,1.1674916744232178,-0.27635684609413147,0.15255656838417053
1733752002305664000,9.9926640625,1.1656451225280762,-0.280802458524704,0.13283851742744446
1733752002315640300,10.002640380859376,1.165656566619873,-0.29786306619644165,0.133236825466156
1733752002325615000,10.012614990234376,1.1664576530456543,-0.34747108817100525,0.14688844978809357
1733752002335590700,10.022590576171876,1.1550427675247192,-0.4086069166660309,0.1559116095304489
1733752002345566500,10.03256640625,1.1228598356246948,-0.4810488820075989,0.14494764804840088
1733752002355541500,10.04254150390625,1.0942776203155518,-0.5734112858772278,0.1016615554690361
1733752002365517300,10.052517333984374,1.0154852867126465,-0.6403972506523132,0.05986909940838814
1733752002375493600,10.06249365234375,0.9483396410942078,-0.6626127362251282,0.03342633321881294
1733752002385468400,10.072468505859375,0.9010903835296631,-0.6830229759216309,0.007684750482439995
1733752002395444500,10.082444580078125,0.8759028315544128,-0.7277132272720337,-0.00743810273706913
1733752002405419500,10.09241943359375,0.8684648871421814,-0.7318294048309326,-0.00145824090577662
1733752002415395600,10.1023955078125,0.8966097235679626,-0.6620305776596069,0.025969920679926872
1733752002425371400,10.112371337890625,0.8951540589332581,-0.5929726958274841,0.038497697561979294
1733752002435346700,10.1223466796875,0.8756234049797058,-0.5556625127792358,0.05937468260526657
1733752002445322500,10.132322509765626,0.859996497631073,-0.5055772662162781,0.09882249683141708
1733752002455298300,10.14229833984375,0.8697819709777832,-0.456142395734787,0.13490916788578033
1733752002465273300,10.1522734375,0.842894971370697,-0.44819900393486023,0.1457681953907013
1733752002475249400,10.16224951171875,0.8169383406639099,-0.426900178194046,0.13296860456466675
1733752002485225500,10.1722255859375,0.8140102028846741,-0.38110417127609253,0.08698247373104095
1733752002495200500,10.182200439453124,0.8626600503921509,-0.345816433429718,0.023376747965812683
1733752002505176600,10.192176513671875,0.8913212418556213,-0.3159419000148773,-0.008005408570170403
1733752002515151600,10.202151611328125,0.8773545622825623,-0.2554679214954376,0.02131238579750061
1733752002525127400,10.21212744140625,0.873493492603302,-0.18239639699459076,0.0756416767835617
1733752002535103500,10.222103515625,0.8603553771972656,-0.15372149646282196,0.11038830876350403
1733752002545078500,10.23207861328125,0.8605665564537048,-0.1652631014585495,0.11236384510993958
1733752002555054300,10.242054443359375,0.8607001900672913,-0.19977983832359314,0.10711599886417389
1733752002565030700,10.25203076171875,0.8402454853057861,-0.2867693603038788,0.11289478838443756
1733752002575005400,10.26200537109375,0.796881914138794,-0.40240174531936646,0.13417966663837433
1733752002584981500,10.2719814453125,0.7145723700523376,-0.47560298442840576,0.15248197317123413
1733752002594957600,10.28195751953125,0.6282482147216797,-0.4788483679294586,0.1685132086277008
1733752002604932600,10.2919326171875,0.5740390419960022,-0.4868679344654083,0.15306314826011658
1733752002614908400,10.301908447265625,0.5809207558631897,-0.5485784411430359,0.09336841851472855
1733752002624884500,10.311884521484375,0.6559699773788452,-0.5994272232055664,0.029198750853538513
1733752002634859500,10.321859619140625,0.6880741119384766,-0.6241158246994019,0.006646836642175913
1733752002644835600,10.331835693359375,0.6668010354042053,-0.5708821415901184,0.025736108422279358
1733752002654810400,10.341810302734375,0.6774753332138062,-0.5842249989509583,0.03349523991346359
1733752002664786700,10.35178662109375,0.6740670204162598,-0.519612193107605,0.018592990934848785
1733752002674762500,10.361762451171876,0.6718285083770752,-0.4107242226600647,-0.004723703023046255
1733752002684737500,10.371737548828126,0.6606022119522095,-0.3380340337753296,-0.0007593212649226189
1733752002694713600,10.381713623046876,0.6392526030540466,-0.2754737436771393,0.03390195965766907
1733752002704689400,10.391689453125,0.6098712682723999,-0.203828826546669,0.08934524655342102
1733752002714664400,10.40166455078125,0.5898977518081665,-0.15097521245479584,0.10765445232391357
1733752002724640500,10.411640625,0.611467182636261,-0.1390935182571411,0.04599135369062424
1733752002734616600,10.421616455078125,0.5752002000808716,-0.1520795077085495,-0.01757121831178665
1733752002744591400,10.43159130859375,0.5237833261489868,-0.15404517948627472,-0.04343796893954277
1733752002754567400,10.4415673828125,0.4636784493923187,-0.17021942138671875,-0.03491847589612007
1733752002764543500,10.45154345703125,0.4135393798351288,-0.18838565051555634,-0.015862226486206055
1733752002774518500,10.4615185546875,0.3853500187397003,-0.19329805672168732,-0.012766369618475437
1733752002784494300,10.471494384765625,0.3610750436782837,-0.18236951529979706,-0.027648912742733955
1733752002794470700,10.481470703125,0.33984407782554626,-0.1581699252128601,-0.049256350845098495
1733752002804445400,10.491445556640626,0.3248624801635742,-0.11544323712587357,-0.06394767761230469
1733752002814421500,10.50142138671875,0.31068137288093567,-0.06632360816001892,-0.06955961138010025
1733752002824396500,10.511396484375,0.28497815132141113,-0.007317009381949902,-0.05362511798739433
1733752002834372600,10.52137255859375,0.2866005003452301,0.031384509056806564,-0.024908307939767838
1733752002844348400,10.531348388671875,0.2999112606048584,0.05520462244749069,-0.00446348637342453
1733752002854323500,10.541323486328125,0.293393611907959,0.040021732449531555,-0.016292516142129898
1733752002864299500,10.551299560546875,0.25639060139656067,0.017573948949575424,-0.03862951323390007
1733752002874275300,10.561275390625,0.20631398260593414,-0.005300224293023348,-0.04296862706542015
1733752002884250400,10.57125048828125,0.15941545367240906,-0.02352503500878811,-0.03295620530843735
1733752002894226400,10.581226318359375,0.14005756378173828,-0.043564580380916595,-0.020127426832914352
1733752002904202500,10.591202392578126,0.12301120162010193,-0.06838284432888031,-0.009839102625846863
1733752002914177500,10.601177490234376,0.11284545063972473,-0.05607260763645172,-0.0010363832116127014
1733752002924153600,10.611153564453126,0.10365807265043259,-0.011690493673086166,-0.003742421045899391
1733752002934128600,10.621128662109374,0.0937129482626915,0.04043135419487953,-0.028954900801181793
1733752002944104400,10.6311044921875,0.07481222599744797,0.07483673095703125,-0.05702701583504677
1733752002954080500,10.64108056640625,0.043779365718364716,0.0936165302991867,-0.06263326108455658
1733752002964055600,10.6510556640625,-0.009904366917908192,0.09087000787258148,-0.04542924091219902
1733752002974031400,10.66103125,-0.051626261323690414,0.09181872755289078,-0.03203289955854416
1733752002984007700,10.671007568359375,-0.0827394351363182,0.07826296985149384,-0.01664009690284729
1733752002993982500,10.680982421875,-0.10768642276525497,0.06995849311351776,-0.018213199451565742
1733752003003958500,10.69095849609375,-0.12805481255054474,0.07774265110492706,-0.03539112210273743
1733752003013934300,10.700934326171875,-0.1519424468278885,0.08877347409725189,-0.05525517463684082
1733752003023909600,10.71090966796875,-0.17081867158412933,0.10439424961805344,-0.06149496138095856
1733752003033885400,10.720885498046876,-0.19071228802204132,0.10159708559513092,-0.06678514182567596
1733752003043861500,10.730861572265624,-0.21476197242736816,0.08600001037120819,-0.06653666496276855
1733752003053836500,10.74083642578125,-0.23421697318553925,0.062053993344306946,-0.07397095113992691
1733752003063812600,10.7508125,-0.2671048641204834,0.03011896088719368,-0.0767158716917038
1733752003073787400,10.760787353515624,-0.2965812683105469,0.02115938812494278,-0.06791934370994568
1733752003083763700,10.770763671875,-0.3187781870365143,0.012010631151497364,-0.05942465737462044
1733752003093739500,10.780739501953125,-0.32952457666397095,0.019565289840102196,-0.05155416578054428
1733752003103714600,10.790714599609375,-0.34042543172836304,0.031058959662914276,-0.07537294179201126
1733752003113690400,10.8006904296875,-0.3581971228122711,0.043966349214315414,-0.10104728490114212
1733752003123666400,10.81066650390625,-0.38145583868026733,0.06526551395654678,-0.11400782316923141
1733752003133641500,10.820641357421875,-0.4062814712524414,0.09918320924043655,-0.11403971165418625
1733752003143617300,10.8306171875,-0.4411765933036804,0.15129034221172333,-0.10097797214984894
1733752003153593600,10.840593505859376,-0.4683702886104584,0.20392392575740814,-0.0860731452703476
1733752003163568400,10.850568359375,-0.48836183547973633,0.23174357414245605,-0.0659676119685173
1733752003173544400,10.86054443359375,-0.5010547041893005,0.23333556950092316,-0.057058583945035934
1733752003183520500,10.8705205078125,-0.5097435712814331,0.20698972046375275,-0.0646941289305687
1733752003193495600,10.88049560546875,-0.5203380584716797,0.15989291667938232,-0.07965949177742004
1733752003203471400,10.890471435546875,-0.5242310762405396,0.12761780619621277,-0.08940479159355164
1733752003213446400,10.9004462890625,-0.5256935954093933,0.10487730801105499,-0.09129844605922699
1733752003223422500,10.91042236328125,-0.5361851453781128,0.08458242565393448,-0.09819629788398743
1733752003233398500,10.9203984375,-0.5482004880905151,0.08702359348535538,-0.08727285265922546
1733752003243373300,10.930373291015625,-0.5604989528656006,0.10579914599657059,-0.07749905437231064
1733752003253349600,10.940349609375,-0.5602502822875977,0.11987613886594772,-0.06843451410531998
1733752003263325400,10.950325439453126,-0.5592915415763855,0.124597929418087,-0.08554106205701828
1733752003273300500,10.960300537109376,-0.5681823492050171,0.10707397758960724,-0.1103421002626419
1733752003283276500,10.970276611328124,-0.5862199664115906,0.08972188085317612,-0.1210743710398674
1733752003293252400,10.98025244140625,-0.6135662794113159,0.08424653112888336,-0.1179511547088623
1733752003303227400,10.990227294921874,-0.6306139826774597,0.09206636995077133,-0.09824562817811966
1733752003313203500,11.000203369140625,-0.6299425959587097,0.11090666800737381,-0.08550864458084106
1733752003323179500,11.010179443359375,-0.6419553160667419,0.14985673129558563,-0.09514742344617844
1733752003333154600,11.020154541015625,-0.6502264142036438,0.2427261769771576,-0.11210288107395172
1733752003353105700,11.040105712890625,-0.7071604132652283,0.38531357049942017,-0.12673106789588928
1733752003363081700,11.050081787109375,-0.6542096138000488,0.3712313175201416,-0.11088500171899796
1733752003373057500,11.0600576171875,-0.6406610012054443,0.33279260993003845,-0.07882623374462128
1733752003383032600,11.070032470703126,-0.6482933163642883,0.34141406416893005,-0.055745143443346024
1733752003393008400,11.08000830078125,-0.6610655188560486,0.38632693886756897,-0.06810048967599869
1733752003402984700,11.089984619140624,-0.676888108253479,0.4382079839706421,-0.08666485548019409
1733752003412959500,11.09995947265625,-0.6923445463180542,0.45216622948646545,-0.088536836206913
1733752003422935600,11.109935546875,-0.6892324090003967,0.42960232496261597,-0.0726257786154747
1733752003432911600,11.11991162109375,-0.6893264651298523,0.3988014757633209,-0.04437699913978577
1733752003442886700,11.12988671875,-0.7019059062004089,0.41267892718315125,-0.04728224128484726
1733752003452862500,11.139862548828125,-0.7106225490570068,0.45482054352760315,-0.07932408899068832
1733752003462837500,11.14983740234375,-0.7228557467460632,0.48723679780960083,-0.1442389041185379
1733752003472813600,11.1598134765625,-0.7367773056030273,0.5056688189506531,-0.19754326343536377
1733752003482789600,11.16978955078125,-0.7619513273239136,0.5112417340278625,-0.2016434669494629
1733752003492764400,11.179764404296876,-0.7952190041542053,0.48860228061676025,-0.1545788049697876
1733752003502740700,11.18974072265625,-0.8160265684127808,0.43616732954978943,-0.10907897353172302
1733752003512716500,11.199716552734374,-0.7970442175865173,0.35348597168922424,-0.10770970582962036
1733752003522691600,11.209691650390624,-0.7515259981155396,0.2629520893096924,-0.11718150228261948
1733752003532667600,11.219667724609375,-0.713344931602478,0.21120715141296387,-0.12314978986978531
1733752003542643500,11.2296435546875,-0.7103440761566162,0.21110568940639496,-0.11513367295265198
1733752003552618500,11.239618408203125,-0.7206506729125977,0.25015732645988464,-0.10201231390237808
1733752003562594600,11.249594482421875,-0.7275930047035217,0.2653256356716156,-0.0819091796875
1733752003572570600,11.259570556640625,-0.7216213941574097,0.24946944415569305,-0.07209446281194687
1733752003582545400,11.26954541015625,-0.720847487449646,0.24531437456607819,-0.06555773317813873
1733752003592521700,11.279521728515626,-0.7374147176742554,0.22249843180179596,-0.05254803225398064
1733752003602496500,11.28949658203125,-0.7812618017196655,0.20165413618087769,-0.04117953032255173
1733752003612472600,11.29947265625,-0.8176022171974182,0.19252251088619232,-0.0538175068795681
1733752003622448600,11.30944873046875,-0.8027614951133728,0.15491174161434174,-0.06481210142374039
1733752003632423700,11.319423583984374,-0.756608784198761,0.10405567288398743,-0.060543932020664215
1733752003642399500,11.3293994140625,-0.7487572431564331,0.11530593037605286,-0.042013656347990036
1733752003652375600,11.33937548828125,-0.7512357234954834,0.17162582278251648,-0.0115547776222229
1733752003662350600,11.3493505859375,-0.7507504820823669,0.2357475459575653,0.012781720608472824
1733752003672326700,11.35932666015625,-0.7546270489692688,0.28581440448760986,0.02280461974442005
1733752003682302500,11.369302490234375,-0.7407916188240051,0.3043193817138672,0.0018016000976786017
1733752003692277800,11.37927783203125,-0.7393356561660767,0.32927200198173523,-0.03627839311957359
1733752003702253600,11.389253662109375,-0.7635976076126099,0.3809159994125366,-0.07633846253156662
1733752003712229400,11.3992294921875,-0.8084741830825806,0.43011006712913513,-0.08578148484230042
1733752003722204700,11.40920458984375,-0.8550102114677429,0.45414721965789795,-0.059431638568639755
1733752003732180500,11.419180419921876,-0.8884990215301514,0.44326284527778625,-0.04087001457810402
1733752003742155500,11.429155517578126,-0.902038037776947,0.4023897051811218,-0.046799544245004654
1733752003752131600,11.439131591796874,-0.9091529846191406,0.3569108247756958,-0.059602290391922
1733752003762107600,11.449107666015625,-0.9057201743125916,0.317074716091156,-0.05799587070941925
1733752003772082700,11.459082763671875,-0.897804319858551,0.27544912695884705,-0.019465578719973564
1733752003782058500,11.46905859375,-0.8909019231796265,0.23509371280670166,0.022363360971212387
1733752003792034600,11.47903466796875,-0.8835647702217102,0.19482091069221497,0.03632847219705582
1733752003802009600,11.489009521484375,-0.8732250332832336,0.19423794746398926,-0.009275764226913452
1733752003811985400,11.4989853515625,-0.8655747771263123,0.24437803030014038,-0.07469997555017471
1733752003821961700,11.508961669921876,-0.8781952261924744,0.3144418001174927,-0.11901763826608658
1733752003831936500,11.5189365234375,-0.9002924561500549,0.39286530017852783,-0.1186966523528099
1733752003841912600,11.52891259765625,-0.9264143109321594,0.458797425031662,-0.0786064937710762
1733752003851887400,11.538887451171876,-0.9569059014320374,0.5068778395652771,-0.044622208923101425
1733752003861863700,11.54886376953125,-0.9795403480529785,0.5332897305488586,-0.017613230273127556
1733752003871839500,11.558839599609374,-0.9803350567817688,0.5301045775413513,0.002892312128096819
1733752003881814500,11.568814453125,-0.969187319278717,0.5027174353599548,0.019780481234192848
1733752003891790600,11.57879052734375,-0.9649757146835327,0.46818721294403076,0.030977647751569748
1733752003901766700,11.5887666015625,-0.9585830569267273,0.4446062445640564,0.016745716333389282
1733752003911741400,11.598741455078125,-0.9541818499565125,0.4351789653301239,-0.00451678829267621
1733752003921717800,11.6087177734375,-0.9565036296844482,0.46000173687934875,-0.02356691285967827
1733752003931693600,11.618693603515625,-0.9736239910125732,0.501402735710144,-0.05679931491613388
1733752003941668600,11.628668701171875,-0.9991167783737183,0.5730808973312378,-0.09085608273744583
1733752003951644700,11.638644775390626,-1.020506739616394,0.6348198056221008,-0.10260002315044403
1733752003961620500,11.648620361328126,-1.0366723537445068,0.6740878224372864,-0.09787371009588242
1733752003971595500,11.658595458984376,-1.0437648296356201,0.6713610291481018,-0.07618066668510437
1733752003981571600,11.668571533203124,-1.0265158414840698,0.6594710946083069,-0.04970298707485199
1733752003991546600,11.678546630859374,-1.0040167570114136,0.6537349820137024,-0.04812806099653244
1733752004001522400,11.6885224609375,-0.9629665017127991,0.6618725657463074,-0.06051335856318474
1733752004011498800,11.698498779296875,-0.9518291354179382,0.6742324233055115,-0.04870287701487541
1733752004021473500,11.7084736328125,-0.962596595287323,0.6948492527008057,-0.010478793643414974
1733752004031449600,11.71844970703125,-0.980567216873169,0.7220089435577393,0.018430951982736588
1733752004041425400,11.72842529296875,-1.0105140209197998,0.7505103945732117,0.024113604798913002
1733752004051400700,11.738400634765625,-1.0323046445846558,0.7524703145027161,0.004296237602829933
1733752004061376500,11.74837646484375,-1.0482434034347534,0.7213568687438965,-0.013698209077119827
1733752004071352600,11.7583525390625,-1.0607950687408447,0.6461557149887085,-0.017518647015094757
1733752004081327600,11.76832763671875,-1.0419806241989136,0.5541517734527588,-0.0006810787017457187
1733752004091303700,11.7783037109375,-1.0271207094192505,0.47817298769950867,0.03160523623228073
1733752004101278500,11.788278564453124,-1.0110682249069214,0.42866644263267517,0.06691661477088928
1733752004111254800,11.7982548828125,-0.9946755766868591,0.3750540018081665,0.09931084513664246
1733752004121230600,11.808230712890625,-0.9800393581390381,0.3214653432369232,0.11919746547937393
1733752004131205600,11.81820556640625,-0.9461994767189026,0.25572019815444946,0.11539822816848755
1733752004141181400,11.828181396484375,-0.9064672589302063,0.19242379069328308,0.07712647318840027
1733752004151157500,11.838157470703125,-0.8657478094100952,0.19777897000312805,0.03933703154325485
1733752004161132500,11.848132568359375,-0.8553470969200134,0.2621782124042511,0.025647582486271858
1733752004171108600,11.858108642578125,-0.8748493194580078,0.34753748774528503,0.057626836001873016
1733752004181084700,11.868084716796876,-0.9007467031478882,0.39679983258247375,0.10188964009284973
1733752004191059700,11.878059814453126,-0.9241953492164612,0.39774268865585327,0.13257573544979095
1733752004201035500,11.888035400390624,-0.9178732633590698,0.3507370948791504,0.15424960851669312
1733752004211011600,11.898011474609374,-0.9325641989707947,0.28985658288002014,0.15309755504131317
1733752004220986600,11.907986572265624,-0.9012696743011475,0.22016991674900055,0.13596411049365997
1733752004230962400,11.91796240234375,-0.8746200799942017,0.17402034997940063,0.12076978385448456
1733752004240937500,11.9279375,-0.8448778986930847,0.1642388254404068,0.12763381004333496
1733752004250913500,11.93791357421875,-0.8166866898536682,0.1649167388677597,0.1507790982723236
1733752004260889600,11.9478896484375,-0.7793912291526794,0.182154580950737,0.17542558908462524
1733752004270864400,11.957864501953125,-0.7546215057373047,0.22819456458091736,0.18563979864120483
1733752004280840700,11.9678408203125,-0.7525647878646851,0.2712720036506653,0.17214609682559967
1733752004290816500,11.97781640625,-0.7640290260314941,0.29477807879447937,0.15350404381752014
1733752004300791600,11.98779150390625,-0.7777743935585022,0.3081703186035156,0.13991552591323853
1733752004310767600,11.997767578125,-0.7899426817893982,0.2906126379966736,0.13587498664855957
1733752004320743700,12.00774365234375,-0.7914063334465027,0.2443242073059082,0.13428720831871033
1733752004330718500,12.017718505859374,-0.7999334931373596,0.1833679974079132,0.13670088350772858
1733752004340694500,12.027694580078125,-0.7948482036590576,0.13018013536930084,0.1351538449525833
1733752004350669300,12.03766943359375,-0.7898184657096863,0.09010741859674454,0.14439663290977478
1733752004360645400,12.047645263671875,-0.7829083800315857,0.0861467644572258,0.1544324904680252
1733752004370621400,12.057621337890625,-0.7775007486343384,0.09853457659482956,0.17284518480300903
1733752004380596500,12.067596435546875,-0.7818358540534973,0.11877193301916122,0.1908888965845108
1733752004390572300,12.077572265625,-0.7853888273239136,0.16428326070308685,0.19415700435638428
1733752004400548000,12.087548095703125,-0.7758229970932007,0.24275143444538116,0.16078093647956848
1733752004410523400,12.0975234375,-0.756110429763794,0.28810420632362366,0.1049753874540329
1733752004420499200,12.107499267578126,-0.7267298698425293,0.25601309537887573,0.06583704054355621
1733752004430475300,12.117475341796874,-0.7139465808868408,0.20504586398601532,0.05872168764472008
1733752004440450300,12.1274501953125,-0.7132347226142883,0.14566883444786072,0.07974441349506378
1733752004450426400,12.13742626953125,-0.721986711025238,0.08361756056547165,0.09930852055549622
1733752004460402200,12.147402099609375,-0.730739414691925,0.017118431627750397,0.08884496241807938
1733752004470377200,12.157377197265625,-0.750445544719696,-0.056118566542863846,0.06831362098455429
1733752004480353300,12.167353271484375,-0.773913562297821,-0.11467162519693375,0.03497244417667389
1733752004490328300,12.177328369140625,-0.8007301688194275,-0.13040104508399963,0.004705911502242088
1733752004500304100,12.18730419921875,-0.8171085715293884,-0.11142788827419281,-0.04570586234331131
1733752004510280400,12.197280517578125,-0.8165322542190552,-0.051763541996479034,-0.08724374324083328
1733752004520255200,12.207255126953125,-0.7939470410346985,0.010314744897186756,-0.11872204393148422
1733752004530231300,12.217231201171876,-0.7703989148139954,0.053374484181404114,-0.10508040338754654
1733752004540207400,12.227207275390626,-0.7634235620498657,0.08796388655900955,-0.06706590950489044
1733752004550182400,12.237182373046876,-0.7707353234291077,0.11149540543556213,-0.0362841859459877
1733752004560158200,12.247158203125,-0.7884591817855835,0.12890635430812836,-0.02374975197017193
1733752004570134500,12.257134521484375,-0.7784820795059204,0.1410251259803772,-0.035817958414554596
1733752004580109300,12.267109375,-0.7492435574531555,0.14755599200725555,-0.055370356887578964
1733752004590085400,12.27708544921875,-0.7000628113746643,0.16412808001041412,-0.07462190836668015
1733752004600060200,12.28706005859375,-0.634486198425293,0.17642948031425476,-0.0704074576497078
1733752004610036500,12.297036376953125,-0.5920616984367371,0.18176597356796265,-0.03768502175807953
1733752004620012300,12.30701220703125,-0.577112078666687,0.18907874822616577,-0.014849214814603329
1733752004629987300,12.3169873046875,-0.591617226600647,0.1742837280035019,-0.012701045721769333
1733752004639963400,12.32696337890625,-0.6107254028320312,0.14462889730930328,-0.02683417499065399
1733752004649939200,12.336939208984376,-0.6245414018630981,0.09932485222816467,-0.04576922208070755
1733752004659914200,12.346914306640626,-0.6127952933311462,0.043898072093725204,-0.05282286927103996
1733752004669890300,12.356890380859374,-0.5787370800971985,-0.0026568963658064604,-0.06062217429280281
