time,seconds_elapsed,z,y,x
1733902548766834000,0.033833984375,-0.49081484746336934,0.2818506099879742,-2.12585496712476
1733902548776860000,0.04385986328125,-0.2873486228823662,0.37155309274494647,-2.0426076518565415
1733902548786887200,0.05388720703125,-0.042272623062133786,0.5929010109752416,-2.038928963343799
1733902548796913200,0.0639130859375,0.13921733203232287,0.7558505162507295,-2.111388342615962
1733902548806940200,0.073940185546875,0.24014351185411215,0.8885872540920973,-2.0930340630188584
1733902548816967000,0.083966796875,0.19008242687284946,0.8866542402029037,-2.2017416904971
1733902548826993000,0.093992919921875,0.17876842117607591,0.8595043674707412,-2.192640392413735
1733902548837020200,0.104020263671875,0.2895288895308971,0.9780909994065761,-1.799025982247293
1733902548847046100,0.114046142578125,-0.09213643190562724,0.8193471291273832,-1.8048194709569214
1733902548857073200,0.1240732421875,-0.6295955416440964,0.7332412095576525,-1.9570859619155525
1733902548867099100,0.13409912109375,-1.1226707352548837,0.9530009818136691,-2.1331164825603364
1733902548877126100,0.144126220703125,-1.3239654610157012,1.648803564336896,-2.4624808311343194
1733902548887152000,0.154152099609375,-1.3593085770756006,1.7206442271888256,-2.7925787546798584
1733902548897179100,0.16417919921875,-1.270013213814795,1.2803425923883913,-2.722254049348831
1733902548907206100,0.1742060546875,-0.6598658844843507,1.5778233177065848,-2.53400176051259
1733902548917232000,0.184232177734375,-0.06309037016332149,1.8889473684519529,-2.4166332721948622
1733902548927259100,0.194259033203125,0.448964833727479,1.6482295638412237,-2.331647296565771
1733902548937285000,0.20428515625,1.0616934117227792,1.7670885829776524,-1.9519696418151258
1733902548947312000,0.21431201171875,1.4405571197420357,2.0886662231981754,-1.7224435316957531
1733902548957338000,0.224338134765625,1.3700292930543423,2.1258593510389328,-1.8773760269932447
1733902548967365000,0.234365234375,1.2337485989958048,2.004659321734309,-1.8453928888857363
1733902548977392000,0.24439208984375,0.8795315487161278,1.9298200615882872,-1.8084405840635298
1733902548987418000,0.254418212890625,0.42251404917538166,1.8548942922025917,-1.8665160486742853
1733902548997445000,0.264445068359375,0.12886954101920128,1.963957308989763,-1.7480631261207162
1733902549007471000,0.27447119140625,-0.08256108656972647,2.166844272378087,-1.7581863145977257
1733902549017498000,0.284498046875,-0.24579729983210563,2.466010174304247,-1.8333005922928451
1733902549027524000,0.294524169921875,-0.28204087186306714,2.592513570713997,-2.026926829252392
1733902549037551000,0.304551025390625,-0.12542699934989213,2.7306945454359055,-1.6762410218387842
1733902549047578000,0.314578125,-0.7213780455455183,2.653552269044518,-0.5611055043943226
1733902549057604000,0.32460400390625,-0.7447755800068379,2.235889751553535,-0.7727971940722316
1733902549067631000,0.334631103515625,-0.5482157738134265,2.0567443137586117,-0.8270376836299895
1733902549077657300,0.3446572265625,-0.6881994140431285,1.9264929629921912,-1.1422858285680413
1733902549087684000,0.35468408203125,-0.5102256503760815,2.217460360893607,-1.4526144911520182
1733902549097710000,0.3647099609375,-0.18339228158444165,2.5762995180159804,-1.5454720769390462
1733902549107737000,0.374737060546875,0.29151421812921763,2.7558342473894357,-1.5391206620857119
1733902549117764000,0.38476416015625,0.6850076322644949,2.933286909791827,-1.4618164731308818
1733902549127790800,0.394790771484375,0.599933393830061,2.714675138527155,-1.452565537443757
1733902549137817900,0.40481787109375,0.3213362326800823,2.417362755513191,-1.111765310359001
1733902549147843800,0.41484375,0.1704477520763874,2.252654423871636,-0.48010669870525596
1733902549157870800,0.424870849609375,0.020853402936458588,1.9291928696006535,-0.3461480178534984
1733902549167896800,0.434896728515625,-0.24082769472599028,1.3741297141104936,-0.07227671618163585
1733902549177923800,0.444923828125,-2.4955729533970357,0.7693681694716215,1.018121396499872
1733902549187950800,0.454950927734375,-3.981326474693417,0.028572014489769933,1.3178192133456468
1733902549197976800,0.464976806640625,-3.5104639896735548,-0.026779870375990868,2.0959376755058763
1733902549208003800,0.47500390625,-1.9568711501210927,0.44605917541384693,1.8100895203143357
1733902549218029800,0.48502978515625,0.15201543880701066,1.324212129253149,1.394970257565379
1733902549228056800,0.495056884765625,0.6848419203087687,2.5254706635326145,1.3313269296944141
1733902549238082800,0.505082763671875,0.900719590434432,4.25247507340312,2.2960966752350327
1733902549248109800,0.51510986328125,0.65430941940099,4.893879710784554,3.8697815779626366
1733902549258136800,0.52513671875,0.989807156163454,3.7544635924339294,3.778701961633563
1733902549268163000,0.5351630859375,1.230762276661396,2.5369606103181837,2.84064662001729
1733902549278189800,0.54518994140625,0.8396341303527355,1.8745891727536916,2.06200617980957
1733902549288215800,0.5552158203125,0.011997019524872303,1.4585557177692652,1.9750129560112952
1733902549298242800,0.565242919921875,-1.15263888027817,0.8993091391146183,2.411291911166906
1733902549308268800,0.575268798828125,-2.3868781854003664,0.6175134741842746,2.584807234120369
1733902549318296000,0.585296142578125,-3.1318460731089113,0.8041337779045105,2.8939532627910376
1733902549328322800,0.59532275390625,-3.168948892317712,0.7958709764719009,3.0440093842238185
1733902549338348800,0.605348876953125,-3.0916549324959517,0.6033955169826746,2.6204262445122004
1733902549348375800,0.615375732421875,-2.9304829582870005,0.23996201780736445,2.241180843698978
1733902549358401800,0.62540185546875,-2.237412138815224,-0.08531739954054356,2.579894327637553
1733902549368429000,0.635428955078125,-1.9086440025687217,-0.2764636562526226,3.1989065159469843
1733902549378455000,0.645455078125,-2.417963644015789,-0.24600422058105467,3.747141871243715
1733902549388481800,0.655481689453125,-2.7684920689105987,-0.01184855096489191,3.717743927323818
1733902549398508800,0.6655087890625,-2.7694726043805478,0.6443342610925435,3.1915619984030723
1733902549408534800,0.67553466796875,-3.2002538389027118,1.0125599629804491,2.419931144696474
1733902549418562000,0.68556201171875,-3.0938202938362953,1.352086516867578,1.6921335874974726
1733902549428588000,0.695588134765625,-2.323233980746567,1.730807601545751,1.05115448205173
1733902549438614800,0.70561474609375,-1.6769380641922353,1.8258923618629574,0.0928618235707283
1733902549448640800,0.715640869140625,-1.05082861109823,2.061927853876352,-0.5080559051215648
1733902549458667800,0.725667724609375,-1.0957795134589075,1.965460699290037,0.062276715692877765
1733902549468695000,0.735695068359375,-3.286502674074471,0.8252841179609298,1.469357682290673
1733902549478721000,0.745720947265625,-2.9768565869271755,0.18228724295198917,2.8507915819346903
1733902549488747800,0.755747802734375,-2.303019167974591,0.3404690954342484,3.1214936059206724
1733902549498773800,0.765773681640625,-1.6650190783396361,0.31470658540725704,1.915573509570956
1733902549508800800,0.77580078125,-1.2051868136391044,-0.07232377019375562,0.9952531466096639
1733902549518827000,0.785826904296875,-0.7031970766887068,0.14697656785696744,0.40564708552658557
1733902549528854000,0.79585400390625,-0.6965063468784094,0.7890127811402082,0.03367489058673381
1733902549538880800,0.805880859375,-0.9918050519824028,1.244123278015852,-0.6306734000086784
1733902549548906800,0.81590673828125,-0.9400390627793968,1.722584839862585,-1.213952596157789
1733902549558934000,0.82593408203125,-0.4393262138970196,1.95401313034147,-1.3968068253427743
1733902549568960000,0.8359599609375,0.2584018567960709,1.8940370928063988,-0.6707295160651207
1733902549578987000,0.845987060546875,0.7044598631661385,1.6397081114724277,0.22374095084667203
1733902549589012700,0.8560126953125,1.3472674261480568,1.2982321770831942,0.5584755942821502
1733902549599039700,0.866039794921875,1.9296850370317697,1.07612701074481,0.5699550196737051
1733902549609067000,0.87606689453125,1.6723445989221333,0.6430336998879909,0.09621990182697772
1733902549619093000,0.886093017578125,1.5148340698301792,0.6875219531729817,-0.2754699690401554
1733902549629120000,0.8961201171875,2.320613861376047,1.2452499439582227,-0.37906186093986033
1733902549639145700,0.906145751953125,3.3823516967624423,1.2961705683782696,-0.4268640610784292
1733902549649172700,0.9161728515625,5.312331917348504,1.2645382895350457,-1.430418587565422
1733902549659198700,0.92619873046875,4.013078288263082,2.0539111361593005,-1.7990636839091776
1733902549669226000,0.93622607421875,0.5628542842904105,0.1674713666141033,0.5395762480229139
1733902549679252700,0.946252685546875,-0.29374325582291927,-1.6260232849910854,1.6138339577645062
1733902549689278700,0.95627880859375,-1.1243909831762313,-1.6948527833282947,-0.24694588534533976
1733902549699305700,0.9663056640625,-3.8268753331720826,-1.635410706539452,-0.10276713151335716
1733902549709331700,0.976331787109375,-4.240226417204737,-1.673792459642887,-1.1967454407691955
1733902549719359000,0.98635888671875,-3.1904841400384902,-1.5391197853028773,-1.0227174921184778
1733902549729385000,0.996385009765625,-2.1337936511695386,-1.270009122161567,0.06082184070944786
1733902549739411700,1.00641162109375,-0.9216120832722634,-0.5556657975584268,0.9216326146036385
1733902549749438700,1.016438720703125,0.43505598923191424,0.2664300457552075,1.497291983398795
1733902549759464700,1.026464599609375,1.1606684574767947,0.7304299515292048,1.2448013234078883
1733902549769492000,1.036491943359375,1.4998179947450756,0.7032184117376804,0.4990127669662237
1733902549779518000,1.04651806640625,1.6214999623477457,0.5168988445296884,-0.13234686174094676
1733902549789544700,1.056544677734375,1.8029378949940205,0.39643618958890436,-0.9365209716558456
1733902549799570700,1.06657080078125,2.2382596955552696,0.5285083260416984,-1.5881448052346705
1733902549809598000,1.076597900390625,2.3097604589283467,0.6275801101684569,-2.206651966631412
1733902549819624000,1.0866240234375,1.9129127659291028,0.9547302898243069,-2.0453642570883033
1733902549829651000,1.09665087890625,0.6719041128024459,0.35220921758860346,-2.1750912917196747
1733902549839677700,1.106677734375,-0.19140081599503755,-0.08747428531348705,-1.9187457098662852
1733902549849703700,1.11670361328125,-0.729661305244267,0.16512158861756324,-1.3662363305121659
1733902549859731000,1.12673095703125,-0.1893281013742089,0.4611702353060245,-1.1629355256259442
1733902549869757000,1.1367568359375,0.594513414607942,0.3981719273403287,-1.4576117149174213
1733902549879784000,1.146783935546875,1.6597122041031718,0.06640431701689958,-0.6439215886384249
1733902549889810000,1.156809814453125,4.329771663573384,-0.7071747481480241,0.2614092949837446
1733902549899836700,1.166836669921875,4.329042180255056,-0.8715861426696181,0.5132108036667108
1733902549909864000,1.176864013671875,0.5003562905296683,-0.14799188237935304,-0.16852759766876696
1733902549919890000,1.186889892578125,-3.4473210125401614,0.6639201283112168,2.2101205195248124
1733902549929917000,1.1969169921875,-2.58117706092447,0.6559241611212492,3.501592993214726
1733902549939943000,1.20694287109375,-3.853962077540159,0.28544395830482244,2.270758235839009
1733902549949969700,1.2169697265625,-2.9075489496842026,0.14853490321487187,1.0273749625355004
1733902549959995600,1.22699560546875,-0.30747575737088917,-0.3785936589062214,0.05753448960185051
1733902549970023000,1.23702294921875,0.07841507280617951,-1.0375441821113227,-0.24806992093920707
1733902549980050000,1.2470498046875,0.11018588333725929,-1.379328451797366,-0.09915887788832187
1733902549990076000,1.257075927734375,0.4227177550539374,-1.095698264916241,0.2209539504766464
1733902550000102700,1.2671025390625,0.39505379531979556,-0.3699009416237473,0.7174497661858796
1733902550010129000,1.27712890625,0.06778291189372539,0.20229338140934705,1.0969663851559162
1733902550020156000,1.287156005859375,-0.18181144213378428,0.7218792730659246,1.3585083666086195
1733902550030182000,1.297181884765625,0.11346446661651134,1.3535121657565234,1.4113421311736105
1733902550040209000,1.307208984375,0.7705982957884668,1.812886457556486,1.7564081990092992
1733902550050235600,1.317235595703125,-0.016630232283473014,1.159476032821834,1.562979384317994
1733902550060262000,1.327261962890625,-2.102443988659978,-1.1890376428708433,0.13288871353268622
1733902550070289000,1.337288818359375,-3.241798147690296,-5.121877734553814,-5.194106519940495
1733902550080315000,1.34731494140625,2.552209909637272,-5.4282730032116175,-5.765861867034435
1733902550090342000,1.357341796875,4.538033890259266,-3.896844064672291,-2.016587659937143
1733902550100368000,1.367367919921875,0.6795604727745056,-1.8247674494862556,1.6968483410596846
1733902550110395000,1.377394775390625,-0.013393734580278396,0.17748378819301724,2.572339966735244
1733902550120422000,1.387421875,1.6296300773113965,0.06377791403606534,2.3117893344074485
1733902550130447600,1.397447509765625,1.9021444114163517,-0.6696136637777089,1.8173048585206268
1733902550140475000,1.407474853515625,1.8489993889451026,-1.1159152696453034,1.5949059699326753
1733902550150500900,1.4175009765625,1.2794544113770125,-1.5675537064962088,1.7432313220500946
1733902550160527600,1.427527587890625,1.333615332892537,-1.8789472218327223,1.5932435896784065
1733902550170553600,1.4375537109375,1.9299124160468577,-2.185410002768785,1.095502742344141
1733902550180580600,1.44758056640625,2.5875460114344953,-2.6849641831353304,1.0905664549857377
1733902550190608000,1.45760791015625,3.1660075781688093,-3.033699294872582,1.1134896499335765
1733902550200633900,1.4676337890625,3.499972698536515,-3.476982575832307,1.163717031392455
1733902550210660600,1.47766064453125,3.402116135418415,-3.830735515731573,1.5313549965202808
1733902550220686600,1.4876865234375,3.011041180601716,-4.038805726976692,1.9339286659508943
1733902550230713900,1.4977138671875,1.762341096189618,-4.019084250679612,1.9800527037441729
1733902550240739800,1.50773974609375,0.5704375424936413,-3.4716736557692287,1.1678992855131625
1733902550250766800,1.517766845703125,0.4228574557855725,-2.7098174693629145,-0.23926877484619616
1733902550260793600,1.527793701171875,0.708918669205904,-2.195848833066225,-0.99688279363811
1733902550270819600,1.537819580078125,0.9177873373523354,-1.8462360617116091,-1.2166297064125537
1733902550280846800,1.547846923828125,0.8568705118358134,-1.5233524534590541,-1.6884440853297709
1733902550290872800,1.557872802734375,0.6978972167149186,-1.0527253846302629,-2.208989469668269
1733902550300899800,1.56789990234375,0.4038374057561159,-0.5651994957096874,-2.117569077077508
1733902550310925800,1.57792578125,0.1805173106700182,-0.33469343464225526,-1.8139806825339793
1733902550320952600,1.58795263671875,0.22658172723054884,-0.36598216074481604,-1.8629846596777437
1733902550330979800,1.597979736328125,0.28863106390833854,-0.6262133518598973,-1.9316490305811165
1733902550341005800,1.608005859375,0.47377018916010855,-0.828512140096724,-1.7752298038572072
1733902550351032800,1.61803271484375,0.4330222914472222,-0.7696405566722154,-1.426407013836503
1733902550361058800,1.628058837890625,0.059980129188299175,-0.5709215266183019,-0.9796399824142455
1733902550371085600,1.63808544921875,-0.4952116211175918,-0.23559973094463346,-0.7059504670500755
1733902550381112800,1.64811279296875,-0.9997183093249797,-0.009997077879309653,-0.6895704101353883
1733902550391138800,1.658138916015625,-1.3190651217535136,-0.016546061131358147,-0.8706868557423353
1733902550401165800,1.668165771484375,-1.3447254865802825,-0.07711889551579952,-1.2142834355473517
1733902550411191800,1.67819189453125,-1.2164809455916286,0.014692542219161987,-1.5889678120553492
1733902550421218600,1.688218505859375,-1.2238567350566387,0.054335693560540674,-1.8487316779196261
1733902550431244800,1.698244873046875,-1.566455828256905,0.20559797591269016,-2.119534824192524
1733902550441271800,1.708271728515625,-2.136932387586683,0.6478536673903464,-2.2403619285315273
1733902550451298800,1.718298828125,-2.575416305440664,0.9203969353288411,-2.04488553366065
1733902550461324800,1.72832470703125,-2.4341642527103424,0.855884715668857,-1.896377226191759
1733902550471351600,1.7383515625,-2.0518425131917,0.5224079633399844,-1.8598907853156328
1733902550481377800,1.748377685546875,-1.83063853347674,0.11680413243323563,-1.9450503639459609
1733902550491404800,1.75840478515625,-1.8846914645731447,-0.11610124486088752,-2.3643512962937354
1733902550501431800,1.768431884765625,-1.9336543790541587,0.005801379755139351,-2.951772414553165
1733902550511457800,1.778457763671875,-2.0124339012585577,0.09852642520368099,-2.8551854329794644
1733902550521484500,1.788484619140625,-2.3637656053602694,0.3218611333370209,-2.7221207783579824
1733902550531510800,1.7985107421875,-3.2506539465799924,0.974152198652923,-2.60824773094058
1733902550541537800,1.808537841796875,-3.6133109084248543,1.0107765866950154,-1.8391034333527088
1733902550551563800,1.818563720703125,-3.4994121420443056,0.8972878624200821,-1.0727858836233615
1733902550561590800,1.8285908203125,-3.224982621967792,0.8543360249221325,-0.28479660031199455
1733902550571617800,1.83861767578125,-2.8374568840652703,1.0475032660678028,0.33370705395340916
1733902550581643800,1.848643798828125,-2.7742478559583423,1.2761138687774538,0.8919201979070901
1733902550591670800,1.8586708984375,-3.1464526906102894,1.592806367304921,1.405050337553024
1733902550601696800,1.86869677734375,-3.5237662465780972,2.6918644640430807,2.1219372091591358
1733902550611723800,1.878723876953125,-3.6767075680583714,3.8416520465433597,2.6371383098602292
1733902550621750800,1.888750732421875,-3.620097207564115,4.2419197771191595,2.9863655890285967
1733902550631776800,1.89877685546875,-3.1272692667126654,4.098622774557769,3.2172908984214064
1733902550641803800,1.9088037109375,-2.6492285606265065,3.736158704936504,3.2275808217674493
1733902550651829800,1.918829833984375,-2.344407409417629,3.3380086971670386,3.127939713320136
1733902550661856800,1.928856689453125,-1.854009910583496,2.8842703654274344,2.838124992585182
1733902550671882800,1.9388828125,-1.095827151992917,2.4950173653408885,2.6020474149957296
1733902550681909800,1.94890966796875,-0.33498131167292594,2.661611949120462,2.5495669939130545
1733902550691936800,1.958936767578125,0.0924345380693674,3.0622008744746445,2.4594299191311
1733902550701962800,1.968962646484375,0.2156090823173523,2.952455428381264,2.4798674347430465
1733902550711989800,1.97898974609375,0.29270050530433656,2.6731957116693255,2.504613753464818
1733902550722015700,1.989015625,0.5385065729647874,2.4415204606920478,2.3646324513226746
1733902550732042800,1.999042724609375,0.926574162659049,1.285061729864776,2.326449727922678
1733902550742069800,2.00906982421875,0.39441374385058875,0.06157989253513515,1.7071932094633577
1733902550752095700,2.019095703125,-0.12783493727445602,-0.10552337141893803,0.5600982270479202
1733902550762122800,2.029122802734375,0.3655003685772419,-4.038603482402861,-1.2959434816241264
1733902550772148700,2.039148681640625,1.3112059326857328,-8.017070768272877,-2.7816616393461824
1733902550782175700,2.04917578125,3.65315542755723,-0.5847886508639901,-0.5950304242193698
1733902550792201700,2.05920166015625,4.874835403096675,0.7093706507571041,-0.10464052416980266
1733902550802228700,2.069228759765625,3.9055952341437337,1.9338802967645228,-1.7161624055996536
1733902550812255700,2.079255859375,2.672602421951294,-0.5406514029737561,-3.0182781461179253
1733902550822281700,2.08928173828125,0.9955173505038022,-2.1849222192518414,-2.6991572513997553
1733902550832308700,2.099308837890625,-0.2949661121487617,-2.4407646738886832,-1.4022171599537134
1733902550842334700,2.109334716796875,-1.6149053863883018,-2.4952555580109355,-1.676972258722782
1733902550852361700,2.11936181640625,-2.3907132335186003,-3.3433225856661797,-3.118481564623117
1733902550862388700,2.129388671875,-2.7189351340591905,-2.748041109295189,-3.3368197796434163
1733902550872414700,2.139414794921875,-3.3497903203755617,-1.0885733814723788,-3.4726860476821657
1733902550882441700,2.149441650390625,-2.6358172903895376,-0.005384031125903129,-3.044417672763765
1733902550892467700,2.1594677734375,-1.806959405595064,1.036479913880676,-1.1929258824810385
1733902550902494700,2.16949462890625,-1.4998048430025577,2.5350831260085105,0.3052896455034613
1733902550912521700,2.179521728515625,0.325348390930891,3.30192762222141,2.0936402122184634
1733902550922547700,2.189547607421875,2.1611621350884436,2.968483310857415,4.146543048118055
1733902550932574700,2.19957470703125,2.7110394123733044,2.882176900279522,4.912658645534515
1733902550942600700,2.2096005859375,2.633349438971281,2.643571265517175,4.657173772163689
1733902550952627700,2.219627685546875,2.6317092705488205,2.2513988708525896,4.445282541325688
1733902550962653700,2.22965380859375,2.790322792446613,2.0803832557603714,3.2549075123712417
1733902550972680700,2.2396806640625,2.5599299824953077,1.9201254737868905,1.4660703311830758
1733902550982707700,2.249707763671875,1.8725497758805751,1.7663178908661006,0.18655644470378754
1733902550992733700,2.259733642578125,0.6672136168986559,1.410944071766734,-1.0284614425979555
1733902551002760700,2.2697607421875,-0.3814502173811197,1.2863234203636646,-1.6640255372576414
1733902551012786700,2.27978662109375,-1.0364403125226498,1.0532245663240551,-1.62134754826501
1733902551022813700,2.289813720703125,-0.840481687092781,1.429840495416522,-1.595453813073784
1733902551032839700,2.299839599609375,-0.3423322589576244,1.9265671972721814,-1.4798117101572452
1733902551042866700,2.30986669921875,-0.5441875412106514,1.5766189103528856,-1.7085241658061743
1733902551052893700,2.319893798828125,-1.1155261241972445,1.0543564929634333,-1.3231889236852525
1733902551062919700,2.329919677734375,-1.306816757816076,0.6178866914108395,-0.4448709154773503
1733902551072946700,2.33994677734375,-1.4818892470836638,0.21265753903537987,0.3491694115012884
1733902551082972700,2.34997265625,-1.5215420430362223,0.1784098169967532,0.8216127359718084
1733902551092999700,2.359999755859375,-1.4117992272913455,0.6487091151759028,1.137810144458711
1733902551103026700,2.370026611328125,-1.0116542463123799,0.9689660281866789,1.3385035433255135
1733902551113053000,2.380052978515625,-1.3108394374608994,1.154746373951435,0.8930178569506854
1733902551123079700,2.39007958984375,-1.856118865561485,0.1460810803219676,-0.12365345033872872
1733902551133106000,2.40010595703125,-1.405028125721216,-1.3397516436904668,-0.6662693217858672
1733902551143133000,2.4101328125,-0.7626800700098275,-2.481962653456628,-1.6188808658905327
1733902551153159000,2.420158935546875,-0.15417700075507162,-2.9001658536955714,-1.513524010144919
1733902551163186000,2.43018603515625,0.6672504417777061,-2.6710028778001664,-1.0449163913797586
1733902551173213000,2.440212890625,0.5181944372981786,-2.2326997233405708,-0.3859861072450876
1733902551183239000,2.450239013671875,0.5298807834386825,-2.030895879013836,-0.4492655702397227
1733902551193266000,2.460265869140625,0.6274293035209179,-1.3060457734435795,-1.0839762629404663
1733902551203292000,2.4702919921875,0.2272504202723503,-0.49090427931249137,-1.5093695208139717
1733902551213319000,2.48031884765625,-0.42534605773091316,-0.3326446854189038,-2.0228375141121444
1733902551223346000,2.490345947265625,-0.5532821172922849,0.19909137049764394,-2.112207257783413
1733902551233372000,2.500371826171875,1.1325158374428748,0.49365094767212864,-1.2157704592347145
1733902551243399000,2.51039892578125,3.398100470036268,-1.0838324705556035,1.4580324245475231
1733902551253425000,2.5204248046875,0.00646890375316143,-2.6584008781194686,4.312083446669578
1733902551263452000,2.530451904296875,-3.658270578613877,-2.772497212898731,2.70254221766293
1733902551273478000,2.540477783203125,-2.375602173626423,-1.8810700592055916,0.9445502565935253
1733902551283505000,2.5505048828125,-0.6592717179834843,-0.6095812198802828,0.6388859325587749
1733902551293532000,2.560531982421875,0.017329904985427854,0.17332184620797633,0.6093193540737033
1733902551303558000,2.570557861328125,0.5957850419789552,0.10425357067883013,0.5681538154706358
1733902551313585000,2.5805849609375,1.0070756863504648,-0.20002192934602497,0.21170564513802528
1733902551323611000,2.59061083984375,0.3547989418208599,-0.29963790335208174,-0.27547435295432804
1733902551333638000,2.600637939453125,-1.1206424442976712,-0.2980506341606378,-0.6466276327267289
1733902551343663900,2.610663818359375,-1.9387328513622282,-0.3411024249017238,-0.31833529729843135
1733902551353691000,2.62069091796875,-1.4992454555541277,-0.11370353606939315,0.3480097200721502
1733902551363718000,2.6307177734375,-0.43098786301016806,0.188024325299263,1.2156707982525228
1733902551373744000,2.640744140625,-0.17425649670958518,0.744325790412724,1.2925266589179634
1733902551383771000,2.65077099609375,-0.5748632499814034,0.7508741891428827,0.7916974901795387
1733902551393796900,2.660796875,-0.9742898535579443,0.28429303470402956,0.35991993809640405
1733902551403823900,2.670823974609375,-0.8475649233520031,-0.38301118308752774,0.13315087160021066
1733902551413851000,2.680850830078125,-0.48700610283017154,-1.018427393709123,-0.004718552954494953
1733902551423877000,2.690877197265625,-0.49090194122493264,-1.4092887057751415,0.08297638937234877
1733902551433903900,2.70090380859375,-0.7191326047062874,-0.9691749947622418,0.5700885829254985
1733902551443929900,2.710929931640625,-0.8773404684126377,-0.013893208535015583,0.4202405512854457
1733902551453956900,2.720956787109375,-1.0773498305380345,0.48244449400305744,-0.17182020947337148
1733902551463982800,2.73098291015625,-1.1478022539019583,1.1144383289605377,0.7282143213063478
1733902551474010000,2.741010009765625,-1.036143375402689,0.567853371219337,0.14424597384929655
1733902551484036900,2.751036865234375,-0.11867547926306724,-0.6736699534311891,1.8808856425493954
1733902551494062800,2.761062744140625,0.6932792015254498,-0.4907631172761321,3.158199534766376
1733902551504089900,2.77108984375,1.7427613664507864,0.16509850000292062,3.295098360723257
1733902551514115800,2.78111572265625,2.891646739414334,0.4484451937675476,2.2653026007816193
1733902551524143000,2.79114306640625,3.0952281148076057,0.6064625033378601,2.0267495729893445
1733902551534169900,2.801169921875,2.5965572931468484,0.5210986343070865,1.8486846239075063
1733902551544195800,2.81119580078125,1.8776444686710834,0.44953328126519915,1.077477548570931
1733902551554222800,2.821222900390625,1.0672247423648833,0.6130749072149395,-0.0395095880895853
1733902551564248800,2.831248779296875,-0.2397200257450342,1.318792442291975,-1.4206114793002604
1733902551574276000,2.841276123046875,-1.1923755551218986,1.8138257842332124,-2.7643670979350805
1733902551584301800,2.8513017578125,-0.4440893366456031,2.1619921561717987,-3.1726427783995863
1733902551594328800,2.861328857421875,1.1217851845920086,1.981798086106777,-2.3402140493810175
1733902551604355800,2.87135595703125,1.325612643700838,1.118408401635289,-0.9273901552170515
1733902551614381800,2.8813818359375,1.0935562844514846,0.7754808071330189,-0.7018325103372335
1733902551624409000,2.8914091796875,1.2181190681874752,0.6540978224769234,-0.5218675728529691
1733902551634434800,2.901434814453125,0.7332920629620552,0.4159235648691654,-0.3234317436546087
1733902551644461800,2.9114619140625,0.18900398398637772,0.20775515394657848,-0.28055443269759417
1733902551654487800,2.92148779296875,0.005196399599313736,-0.44619273866564035,0.03560848899781704
1733902551664514800,2.931514892578125,0.03974982658624649,-0.6197519007608294,0.5412541181072592
1733902551674541800,2.941541748046875,-0.22135843962430954,-1.3317232355356217,1.3181772330030799
1733902551684567800,2.95156787109375,0.4030214131981134,-2.1521172433674334,1.2653683106184006
1733902551694594800,2.9615947265625,0.7922393419712781,-2.106630918955803,0.9115852678418159
1733902551704620800,2.971620849609375,0.6212777951538563,-1.1292036441549658,0.1017196682870388
1733902551714648000,2.98164794921875,0.2423731706023216,0.7436977216422558,-0.6173468854457139
1733902551724674800,2.9916748046875,-0.4979746560901403,0.8430404316648841,-1.236222880154848
1733902551734700800,3.00170068359375,-1.9334341604322194,-0.13842939652502537,-2.1985393873244523
1733902551744727800,3.011727783203125,-1.7330115413308143,0.1164811840891838,-2.1096990743547677
1733902551754753800,3.02175390625,-0.7272334935754537,0.7481228446081281,-0.9924778366774321
1733902551764781000,3.031781005859375,-0.5812684408485889,1.147379644575715,0.0394312621563673
1733902551774807000,3.04180712890625,-0.01215045652091503,1.0842708619728685,0.293633986762166
1733902551784833800,3.051833740234375,0.698834497565031,0.6415262179344892,-0.46886488146185873
1733902551794860800,3.06186083984375,0.828830996787548,0.36037001995146273,-1.3731284281134604
1733902551804886800,3.07188671875,0.9311223274827003,0.7382692668527364,-2.659686826276779
1733902551814914000,3.0819140625,0.0258721078813076,0.7126540563419461,-2.5600632534861565
1733902551824940000,3.09193994140625,-0.806094848844409,0.18468904339671133,-1.5152514184594152
1733902551834966800,3.101966796875,-0.7460463305950165,-0.12418401355147361,-1.4339718961328267
1733902551844992800,3.11199267578125,-0.49060091245174403,-0.07316592010632157,-1.6662959664076566
1733902551855019800,3.122019775390625,0.11965279986262321,0.5371164337806403,-1.8818045109599828
1733902551865047000,3.132047119140625,0.7098480590105056,1.336425275746733,-1.7454034053921699
1733902551875073000,3.142072998046875,0.5267705424636602,1.929704910776019,-1.2034849781572818
1733902551885099800,3.152099853515625,0.05624444979131221,2.064476369315386,-0.17969956454634664
1733902551895125800,3.162125732421875,-0.1975695677578449,1.6894593998521565,1.1052315246760844
1733902551905152800,3.17215283203125,0.38546938989460466,1.2381721145264803,2.0096043769210574
1733902551915179000,3.182178955078125,1.0688169799923897,1.2987728598311543,2.194112803053856
1733902551925206000,3.1922060546875,0.18089023563563822,1.1659439136616885,3.2875790711343287
1733902551935232800,3.202232666015625,-1.5489181257396936,0.6777255124323069,4.06416550142169
1733902551945258800,3.2122587890625,-0.9101742320001125,-0.42468116408139467,3.9407758531183004
1733902551955285800,3.22228564453125,0.010315057787299155,-1.6477471871517597,2.8511598307251926
1733902551965312000,3.23231201171875,0.6089753629416227,-1.9676796905137597,1.6006629260241985
1733902551975339000,3.242339111328125,0.9631915364384651,-1.4203719714559613,0.4150672403007746
1733902551985365800,3.25236572265625,1.187359772786498,-0.5682308262296021,-0.8878010721504688
1733902551995391700,3.262391845703125,1.3883411948144435,-0.18555077479258178,-1.386104229542613
1733902552005419000,3.2724189453125,1.37547937515378,-0.25660569409430023,-0.8825427132308482
1733902552015445000,3.282445068359375,0.9781652336865663,-0.7464416135229169,-0.4918097037196159
1733902552025472000,3.292471923828125,0.28049627276957034,-1.046290967668593,-0.41086569695770736
1733902552035498000,3.302498046875,-0.8627075474262237,-0.7287851069316268,-0.15023440060913562
1733902552045524700,3.312524658203125,-1.0127677605122327,-0.5461456895411014,-0.2332932075679302
1733902552055552000,3.322552001953125,-0.48942076275646684,-0.17068594474643467,0.037412323549389837
1733902552065578000,3.332577880859375,-0.4599567678630352,0.076575290158391,0.35673838545083997
1733902552075605000,3.34260498046875,-0.7458557764589786,-0.06405015510618686,0.6558341447502374
1733902552085631000,3.352630859375,-0.5746469768822193,-0.5288599159583449,0.9561071311354636
1733902552095657700,3.36265771484375,-0.09442717319130897,-0.884535056091845,1.253222530272603
1733902552105683700,3.37268359375,0.2808236050277948,-1.351152158626914,1.3855676384478806
1733902552115711000,3.3827109375,0.9145932174861431,-2.3916730184614656,0.7858329820603132
1733902552125738000,3.392738037109375,0.6057534782856703,-2.3390187021166087,0.8517723119139671
1733902552135763500,3.402763427734375,0.18606793053448198,-1.9754045856773852,0.9836270062237977
1733902552145790500,3.41279052734375,0.9395072939902543,-1.7764736664384602,0.5342079989880323
1733902552155816400,3.42281640625,1.3895499860823153,-1.995358701686561,0.1546101314753294
1733902552165843500,3.432843505859375,0.7401362297683953,-2.3518910431712863,-0.09817454302608966
1733902552175869400,3.442869384765625,0.5271516507357359,-2.5882445150926707,-0.04754968668222427
1733902552185896400,3.452896484375,0.0027969372421503065,-2.26420136154145,-0.19717326191663742
1733902552195923500,3.46292333984375,-0.8997551293164491,-1.470609435917437,-0.09200432995855808
1733902552205949400,3.472949462890625,-0.5037807120203972,-1.3573764399692416,0.39165596957504745
1733902552215976400,3.4829765625,-0.5630962398201227,-1.5285837782412766,0.6067600249797105
1733902552226002400,3.49300244140625,-1.4956962386399506,-1.2528098578184843,1.151352055338025
1733902552236029400,3.503029541015625,-1.4265554823964834,-0.6620002661645412,1.8666122025251388
1733902552246055400,3.513055419921875,-0.34323242266774173,0.4985363816261291,1.57936177932024
1733902552256082400,3.52308251953125,0.1348456928193569,1.6625442126587033,0.03839958102107048
1733902552266109400,3.533109375,0.09663666593432425,1.681103659439087,-0.6075754330158233
1733902552276135400,3.543135498046875,0.013128946164250373,1.316147773002088,-0.4971598325759172
1733902552286162400,3.553162353515625,-0.21908874112665652,0.9106471102088689,-0.5383224485695361
1733902552296188700,3.563188720703125,0.001360182437300682,0.6131874276787043,-0.7934867116838693
1733902552306215400,3.57321533203125,0.618159955394268,0.38008974268287415,-1.4576222363114355
1733902552316242400,3.583242431640625,0.41121991722285745,-0.16359160257130861,-1.9879729753494262
1733902552326268400,3.593268310546875,-0.02879179472029209,-0.4253691463455558,-2.2728367956787348
1733902552336295400,3.60329541015625,-0.19100304884910582,-0.2732067002832889,-2.2450544702619313
1733902552346321700,3.61332177734375,-0.07329144618213176,0.08792056777626275,-2.0525468620687723
1733902552356348400,3.623348388671875,-0.08663023570477962,0.9253703398272395,-2.2112492312937975
1733902552366374400,3.63337451171875,-0.8535790690749883,1.3656015397399663,-2.154173006853461
1733902552376401400,3.6434013671875,-1.198273965510726,1.4591647895783184,-1.835063218051195
1733902552386428700,3.6534287109375,-1.115338492670655,1.002545057183504,-1.164367604255676
1733902552396454700,3.66345458984375,-1.0390198076218367,0.053821898819506164,-0.49454409711956976
1733902552406481400,3.6734814453125,0.20880583204329012,0.4792743395343423,0.7292869189739227
1733902552416507400,3.68350732421875,0.16296411832273006,0.3958347165644169,1.4137439316183327
1733902552426534400,3.693534423828125,-0.042598201754689216,-0.21531565232872962,1.5415350297510624
1733902552436560400,3.703560302734375,-0.11669102744758128,-0.6866580298200249,1.4469044429421425
1733902552446587600,3.713587646484375,-0.17852759815752506,-0.8674456818640232,1.3266437403142453
1733902552456614400,3.723614501953125,-0.0008487257838249206,-0.8128501683235168,1.315789753344655
1733902552466640400,3.733640380859375,-0.15403262384831903,-0.8106181714877486,1.3310773388475179
1733902552476667400,3.74366748046875,-0.2647036603540182,-0.9100085200443864,0.8287310435444116
1733902552486693400,3.753693359375,-0.4264502195805311,-0.9505907058015465,0.34872692843079567
1733902552496720600,3.763720703125,-0.5769020623326301,-0.792694684523344,-0.03345511035621166
1733902552506746600,3.77374658203125,-0.6854518689006567,-0.6038908992841839,-0.42795127179324627
1733902552516773400,3.7837734375,-0.6116045424014329,-0.4967641112565994,-0.6003916589915752
1733902552526800400,3.79380029296875,-0.3223310889363289,-0.4320847183361649,-0.641472441920638
1733902552536826400,3.803826416015625,-0.1422229435890913,-0.6316472134768962,-0.7288619715601206
1733902552546853600,3.813853515625,-0.482225298294425,-0.4528799613445997,-1.2581857056379318
1733902552556879600,3.823879638671875,-0.5580524004340172,-0.20843466064333915,-1.2892588892936705
1733902552566906400,3.83390625,-0.6831511907428502,-0.09398410559892655,-1.0001929410994053
1733902552576932400,3.843932373046875,-0.6647586249619722,0.01999269445389509,-0.7480120777100324
1733902552586959400,3.85395947265625,-0.4792372223943472,0.09586217443048954,-0.505349568772316
1733902552596986600,3.863986572265625,-0.37048692481815815,0.15896949572861194,-0.24814006356596946
1733902552607012600,3.8740126953125,-0.29137597870230675,0.2333613043680787,0.013097966504096984
1733902552617039400,3.884039306640625,-0.20874504176676273,0.3149634827777743,0.24514263531565664
1733902552627065300,3.8940654296875,-0.14906126517653465,0.3475207675114274,0.39157881268560885
1733902552637092600,3.904092529296875,-0.193727505376935,0.3570955283254385,0.42159050458967684
1733902552647118600,3.91411865234375,-0.17522037330567836,0.4072711795970797,0.38397593646645545
1733902552657145600,3.9241455078125,-0.0834369926214218,0.5011451028198003,0.3098860333830118
1733902552667172400,3.93417236328125,0.0665799658447504,0.5779729064345359,0.20273440317511557
1733902552677198300,3.9441982421875,0.2088935103267431,0.629324031226337,0.11896423307657242
1733902552687225600,3.9542255859375,0.27220658333003517,0.6761696612924337,0.11701894422769546
1733902552697251600,3.96425146484375,0.2703974880814552,0.6825465028479695,0.12220891408622264
1733902552707278600,3.974278564453125,0.25640228047668934,0.6718719640985131,0.15547814648151398
1733902552717304600,3.9843046875,0.280575183224678,0.6299088453769683,0.2566875271588564
1733902552727331300,3.994331298828125,0.27885376625955105,0.622067191965878,0.36313480848968027
1733902552737358600,4.004358642578125,0.3029395752459764,0.6140411218985915,0.46090018619298934
1733902552747384600,4.014384521484375,0.397471962377429,0.6277405614271759,0.4916179805397987
1733902552757411600,4.02441162109375,0.4353711926609277,0.6568868686735629,0.46457682887911794
1733902552767437600,4.0344375,0.6071890640467404,0.74966715144068,0.39618309161067006
1733902552777464300,4.04446435546875,0.7733177838802338,0.8414572541266679,0.3047884179830551
1733902552787490300,4.054490234375,0.7723661822438239,0.8646130887866019,0.19218670567572116
1733902552797517600,4.064517578125,0.6297855112582444,0.7918655402228236,0.017257424271106717
1733902552807544600,4.074544677734375,0.3905798647761345,0.5094456059142947,-0.1974824739962816
1733902552817570600,4.084570556640625,0.2175035177618265,0.11073591843545436,-0.3764174839109182
1733902552827597300,4.094597412109375,0.14904022238850592,-0.32890959054380653,-0.5041349322855472
1733902552837623600,4.10462353515625,0.1158715277582407,-0.7392544784978031,-0.5611883603721857
1733902552847650600,4.114650634765625,0.054446460458636284,-1.0435782015785575,-0.525803158736229
1733902552857676500,4.124676513671875,0.07813362551629544,-1.2131541392564773,-0.44455227798223496
1733902552867703600,4.13470361328125,0.008900514814257621,-1.3147624561235307,-0.40704993806183337
1733902552877730300,4.144730224609375,-0.2388654547423124,-1.3267083299830555,-0.34707097791731356
1733902552887756500,4.154756591796875,-0.39384792666137214,-1.2677365010544657,-0.24106208800375462
1733902552897783600,4.164783447265625,-0.35374271076619623,-1.1725573404520748,-0.16034721382260322
1733902552907809500,4.1748095703125,-0.2228320193082094,-1.0198305385053157,-0.08140110287964343
1733902552917836500,4.18483642578125,-0.00590250204205513,-0.7186117957025766,0.04078676841855049
1733902552927862500,4.194862548828125,0.2654214532345533,-0.3287403714567423,0.18013444883227347
1733902552937889500,4.2048896484375,0.40318975550234315,0.004651625198125839,0.23070845177173613
1733902552947916500,4.21491650390625,0.3557563886761665,0.2495189507037401,0.20601123288869858
1733902552957942500,4.224942626953125,0.40998832960128784,0.49752048258185383,0.2142056452602148
1733902552967969500,4.234969482421875,0.45931204021871086,0.8087357187420129,0.2673872003495693
1733902552977995500,4.24499560546875,0.4272603669196367,1.0577262616574763,0.2675999663174152
1733902552988022500,4.2550224609375,0.5529512779027224,1.3594529539823532,0.31153087798058987
1733902552998048500,4.265048583984375,0.6997691480666398,1.5473288107216356,0.22132745996415615
1733902553008075500,4.275075439453125,0.8193687564373016,1.5309811947718261,0.10798632746636867
1733902553018102500,4.2851025390625,0.8412105858892202,1.3528849737688897,0.057871758732199664
1733902553028128500,4.29512841796875,0.8047013486593961,1.0112129322856664,0.054852703171968456
1733902553038155500,4.305155517578125,0.7127367661893368,0.5648959827184676,0.16572539972960948
1733902553048181500,4.315181396484375,0.6857230870574712,0.13015695048123596,0.34210020376741884
1733902553058208500,4.32520849609375,0.5664174931973218,-0.27456308332830665,0.4832663317799568
1733902553068234500,4.335234375,0.3449596848517656,-0.513967759513855,0.5446300242811442
1733902553078261200,4.34526123046875,0.17106909884512422,-0.6207409117981791,0.4780535655677318
1733902553088288500,4.35528857421875,0.08645546365976334,-0.617796090517938,0.3490957617431879
1733902553098314500,4.365314453125,0.1394686764448881,-0.5481669662356377,0.27214988470673557
1733902553108341500,4.375341552734375,0.11197627388536929,-0.4390151021212339,0.32588732011318206
1733902553118367500,4.385367431640625,0.07146072362363338,-0.2749097048088908,0.443899367031455
1733902553128394200,4.395394287109375,0.1141460191398859,-0.08141542366594076,0.5173936423093081
1733902553138421000,4.4054208984375,0.06738251439929008,0.027088497933745383,0.5501280371755362
1733902553148448000,4.415447998046875,0.010748773029446601,0.0954373731471598,0.6976216146439314
1733902553158475000,4.42547509765625,-0.024407880547642705,0.17164777551591395,0.8487643622696399
1733902553168501000,4.4355009765625,-0.04905716863572597,0.26159239646568894,1.0045049590796231
1733902553178528000,4.445528076171875,-0.04711071074306965,0.36821722632050513,1.0569570308506488
1733902553188554000,4.455553955078125,0.07618249144852161,0.44544688873440025,0.9452209954619407
1733902553198581000,4.4655810546875,0.28850889883339403,0.5047231074370444,0.7071364619642496
1733902553208607000,4.47560693359375,0.31579028899073597,0.5247824373863638,0.4492582637161016
1733902553218634000,4.485634033203125,0.1473760885685682,0.5799908221282064,0.31433599852919575
1733902553228661000,4.495660888671875,0.06441138963401317,0.7188903203830123,0.2677870133221149
1733902553238687000,4.50568701171875,0.09745967275500297,0.8899610266633331,0.2237947268605232
1733902553248714000,4.5157138671875,0.22209084555208683,0.9928957698285579,0.17791034304201603
1733902553258740000,4.525739990234375,0.3139519676476717,0.9544497193172573,0.14908756866157055
1733902553268767000,4.53576708984375,0.3900257380247116,0.8351854803808033,0.1657037724196911
1733902553278793200,4.545793212890625,0.41763913661539553,0.6743279789485037,0.2408230185508728
1733902553288820000,4.555820068359375,0.43378012407720085,0.5080104585446417,0.25172493631541726
1733902553298847000,4.565846923828125,0.44286242519915103,0.41299262598380443,0.1811269670009613
1733902553308873000,4.575873046875,0.3852110312193632,0.38450668234229085,0.11603577840924262
1733902553318900000,4.58589990234375,0.3287175751030445,0.4145348869897425,0.016437924581766128
1733902553328926200,4.59592626953125,0.17569266699254513,0.394574633500725,-0.10885784960389136
1733902553338953000,4.605952880859375,0.023518238231539725,0.3482857605345547,-0.20401509063541887
1733902553348979000,4.61597900390625,0.05576105018854141,0.3343735550381243,-0.22304069362282752
1733902553359006000,4.626005859375,0.08228256188929081,0.2857258439861238,-0.23764321947097777
1733902553369032000,4.636031982421875,0.021565350598096847,0.19873831927627325,-0.1929652888327837
1733902553379059200,4.64605908203125,-0.05613748228549957,0.09786986099109053,-0.17553835321366787
1733902553389086000,4.6560859375,-0.1878629972577095,-0.04263064271956682,-0.16252572690546513
1733902553399112000,4.66611181640625,-0.3176321174651384,-0.1809757219620049,-0.12905951063334942
1733902553409139000,4.676138916015625,-0.3348725906014442,-0.2248411671735346,0.004070025917887687
1733902553419165000,4.6861650390625,-0.24873335328400134,-0.18195508838817476,0.1187251636236906
1733902553429192200,4.696192138671875,-0.25592706418037414,-0.13368088682368398,0.19725801759064196
1733902553439218000,4.706218017578125,-0.3282347600221634,-0.05464578242301941,0.22706161970198152
1733902553449245000,4.716244873046875,-0.32242636600434776,0.03726970020830631,0.21842706234753131
1733902553459272000,4.72627197265625,-0.35098727457821366,0.06098813718706369,0.09252280087471008
1733902553469298000,4.7362978515625,-0.3787620012104511,0.08720993528887629,0.017329904985427854
1733902553479325200,4.7463251953125,-0.3033668607473373,0.10706482870727776,-0.09012743017077446
1733902553489351000,4.756350830078125,-0.22719021451771257,0.04252016808241606,-0.20034896934330462
1733902553499378000,4.7663779296875,-0.15892507206499576,-0.08323445578664541,-0.331294147592783
1733902553509404000,4.77640380859375,-0.00027297172248363493,-0.2361833760514855,-0.4195090221405029
1733902553519431000,4.786430908203125,0.11737784066796302,-0.3685188396155834,-0.41980946639180183
1733902553529458000,4.7964580078125,0.13480126915574073,-0.4621598308652639,-0.33050445851981636
1733902553539484000,4.80648388671875,0.05966799449920654,-0.5323717234715819,-0.18796587311029433
1733902553549511000,4.816510986328125,0.03807341780662536,-0.6169593474328517,0.015825930163264272
1733902553559537000,4.826536865234375,0.08241232574880122,-0.643583734986186,0.2192027228951454
1733902553569564000,4.83656396484375,0.1581090795069933,-0.5766343513071537,0.3201806329041719
1733902553579590100,4.846590087890625,0.1882189710885286,-0.4517959655001759,0.25676234596073627
1733902553589617000,4.856616943359375,0.1558165846556425,-0.33998657261431214,0.09983166258335113
1733902553599644000,4.866643798828125,0.05286883587837219,-0.24242870018184184,-0.09594576106071472
1733902553609670000,4.876669921875,0.011422142246365546,-0.19038550147265196,-0.2829495111405849
1733902553619697200,4.886697265625,-0.05877484505176544,-0.1895291769042611,-0.44579029534459114
1733902553629723100,4.89672314453125,-0.15072656804025172,-0.20200462759584187,-0.5635808084666729
1733902553639750000,4.90675,-0.18838731339275835,-0.1927060533747077,-0.5807803650707006
1733902553649775900,4.91677587890625,-0.17428046210706233,-0.16877718851566315,-0.49945758812427515
1733902553659803000,4.926802978515625,-0.1137321776419878,-0.21235241860896348,-0.3729202894449234
1733902553669830100,4.936830078125,-0.018045944300293923,-0.326795667129755,-0.2124754604667425
1733902553679856000,4.946856201171875,0.07698445548117161,-0.474468692818284,-0.029403789138793945
1733902553689883000,4.9568828125,0.07822188832163811,-0.569056317268312,0.1684048480719328
1733902553699908900,4.966908935546875,0.0380108739644289,-0.5143748790100217,0.2953232550233602
1733902553709935900,4.976935791015625,0.038036008405685426,-0.41280689415335653,0.3653717737615108
1733902553719961900,4.9869619140625,-0.011313421174883842,-0.31446167073547837,0.3516635664045811
1733902553729989000,4.996989013671875,-0.044781975534558295,-0.2214718368709087,0.2761550286948681
1733902553740015900,5.007015869140625,-0.07469429871737956,-0.13951397689133882,0.14986264468729496
1733902553750041900,5.017041748046875,-0.13176876959204673,-0.06531681404113769,-0.012237550282478332
1733902553760068900,5.02706884765625,-0.1897317137390375,0.037085283552110195,-0.15832067643105982
1733902553770094800,5.0370947265625,-0.25950316910147664,0.17956220190227032,-0.22071312745809554
1733902553780122000,5.0471220703125,-0.3247235370308161,0.2707517083466053,-0.23712241046726704
1733902553790148000,5.057148193359375,-0.2918307367324829,0.33073768275380133,-0.19303776954710483
1733902553800174800,5.0671748046875,-0.1393295602351427,0.27407062363624574,-0.14133973101377487
1733902553810201900,5.077201904296875,-0.06727028619647026,0.12887129458487034,-0.09954232424795627
1733902553820228000,5.08722802734375,-0.02551964118182659,0.03305471286177635,0.0048632221221923825
1733902553830255000,5.097255126953125,-0.08211129697561263,-0.01980886231958866,0.11989011574983596
1733902553840281000,5.107281005859375,-0.09371581005156039,-0.029276655627787113,0.2626075648576021
1733902553850307800,5.117307861328125,0.00880816035568714,-0.0724532417923212,0.34066987870335574
1733902553860333800,5.127333740234375,0.04248597355186939,-0.18032120357602835,0.32746903634667396
1733902553870361000,5.137361083984375,-0.004318447721004486,-0.30125732124745846,0.24657471394538877
1733902553880387000,5.147386962890625,-0.08640285668969154,-0.3709779232054949,0.07419920867681502
1733902553890414000,5.1574140625,-0.19247487496733665,-0.40141163991391654,-0.16667174066901205
1733902553900440800,5.16744091796875,-0.2397118424385786,-0.39022505998909474,-0.3668289868324995
1733902553910466800,5.177466796875,-0.2507511228471994,-0.36025136200785635,-0.43855449887216086
1733902553920494000,5.187494140625,-0.1987473793655634,-0.3204290547072887,-0.4137327768266201
1733902553930520000,5.19752001953125,-0.06816752729713917,-0.25911767691522836,-0.26674130366146565
1733902553940547000,5.207547119140625,0.07441022107899188,-0.19786913522630928,-0.04477320770621299
1733902553950573000,5.217572998046875,0.17181728686392306,-0.1874640610679984,0.1580523808836937
1733902553960599800,5.227599853515625,0.24671149206757545,-0.10124532877355813,0.3231184399217367
1733902553970627000,5.237626953125,0.35153438706696033,0.07546060691475867,0.36315643579959866
1733902553980653000,5.247653076171875,0.41502632376849646,0.20175854388028383,0.2928793690025806
1733902553990680000,5.25768017578125,0.35735739413201806,0.260960966694355,0.14544073659181594
1733902554000706000,5.2677060546875,0.27721944305598734,0.24649814157783984,0.07663958756625652
1733902554010732800,5.27773291015625,0.21326573406159877,0.1774134994357824,0.04986380884349346
1733902554020758800,5.2877587890625,0.18117723588347434,0.06767535986602306,0.047612230524420734
1733902554030786000,5.2977861328125,0.1605921284943819,-0.03904080153405666,0.028727497312426565
1733902554040813000,5.30781298828125,0.13158581424057483,-0.11474164694547652,0.03092237700819969
1733902554050839000,5.317839111328125,0.08943944790661335,-0.14988076486587523,0.03426058152019977
1733902554060865800,5.32786572265625,-0.0248263982206583,-0.18108166655451058,0.00837561415731907
1733902554070892000,5.33789208984375,-0.107614571544528,-0.20428718557506798,-0.04246668432950973
1733902554080919000,5.3479189453125,-0.20821780302226542,-0.25719372311532496,-0.12754969059228896
1733902554090945000,5.357945068359375,-0.22451602687239647,-0.32884558539688585,-0.22703122456371783
1733902554100972000,5.367971923828125,-0.2235509812325239,-0.4060147497951984,-0.2723684958934784
1733902554110998000,5.377998046875,-0.1977653825908899,-0.4481996945738792,-0.24877017816305158
1733902554121025000,5.38802490234375,-0.17886603633165357,-0.4569628467440605,-0.2166892787694931
1733902554131052000,5.398052001953125,-0.2100701528906822,-0.42472295739650723,-0.2232856082946062
1733902554141078000,5.408078125,-0.2248018580764532,-0.366281582082808,-0.19989070418179034
1733902554151105000,5.41810498046875,-0.2536702251642942,-0.2932338815286755,-0.17080723303854464
1733902554161131000,5.428131103515625,-0.27775369606316086,-0.1880231562554836,-0.11660627177357673
1733902554172411000,5.439410888671875,-0.2866629787057638,-0.12886135771274565,-0.11572890441715716
1733902554183064000,5.45006396484375,-0.25248013859689233,-0.05761076970845461,-0.0969967314183712
1733902554193090800,5.4600908203125,-0.2124976722985506,-0.027669804953038692,-0.06040390755832195
1733902554203118000,5.4701181640625,-0.17001520587801933,0.007994213624298573,-0.04320493547618389
1733902554213144000,5.48014404296875,-0.08437515025436877,0.043727205784618854,-0.014896540358662605
1733902554223171000,5.490171142578125,-0.04136544508934021,0.0834112736582756,0.02744973246157169
1733902554233197000,5.500197021484375,-0.004721183302998542,0.11704466319084167,0.06104921972453594
1733902554243223800,5.510223876953125,-0.0002478372812271118,0.14697802916169167,0.07616320222616195
1733902554253249800,5.520249755859375,0.015803133809566498,0.24690584559589623,0.10762450841665268
1733902554263277000,5.530277099609375,0.08402443712055682,0.38520430921763177,0.18064239835441112
1733902554273304000,5.540303955078125,0.16896482004225252,0.5186585476785898,0.2436848377227783
1733902554283330000,5.550330078125,0.2772743881136179,0.5911737487912178,0.2866740846216678
1733902554293356800,5.560356689453125,0.26927579057514667,0.5901490819185972,0.32613048121929167
1733902554303382800,5.5703828125,0.19055355151593684,0.5529299428537487,0.40442777286469933
1733902554313410000,5.58041015625,0.2293587907284498,0.476214367441833,0.5072510184794664
1733902554323436000,5.59043603515625,0.2672626971870661,0.31859511727839707,0.5432932227194309
1733902554333463000,5.600463134765625,0.16227496701478958,0.19329642048329113,0.539635869255662
1733902554343489000,5.610489013671875,0.08370528816878794,0.15461597669422625,0.42118367735445494
1733902554353515800,5.620515869140625,0.1048608889222145,0.11945873859524726,0.20155366895794868
1733902554363543000,5.63054296875,0.13404080617725847,0.10593670146018266,0.002405307576060295
1733902554373569000,5.640569091796875,0.15319968015551566,0.0833458072066307,-0.13751929594278334
1733902554383596000,5.650595947265625,0.23491700937747953,-0.021408698731660843,-0.177557876342535
1733902554393622000,5.6606220703125,0.32107670496106144,-0.12081950555443763,-0.17938976794481276
1733902554403649000,5.67064892578125,0.2680763516575098,-0.2403025018081069,-0.1670364823281765
1733902554413675000,5.680675048828125,0.22067396449148655,-0.3697656248062849,-0.16912614808380602
1733902554423702000,5.690701904296875,0.1970861681550741,-0.45043929019421336,-0.13347615803182125
1733902554433729000,5.70072900390625,0.19172960955798624,-0.4672410796523094,-0.08696750483512877
1733902554443755000,5.710755126953125,0.1757031883865595,-0.4307353495538234,-0.06880290259122848
1733902554453782000,5.720781982421875,0.15571487784683705,-0.36274843952059743,0.004445288971066475
1733902554463808000,5.73080810546875,0.14009879104197023,-0.30160774212032554,0.0996153894841671
1733902554473835000,5.7408349609375,0.09021978462934493,-0.17807430143207312,0.1699555846452713
1733902554483861000,5.750861083984375,0.08891746985912323,-0.014713000485301017,0.17817863858938215
1733902554493888000,5.760887939453125,0.10805530104935168,0.0950903132751584,0.1503618263810873
1733902554503915000,5.7709150390625,0.16816636314094066,0.12087094348073005,0.13435177182257174
1733902554523341000,5.790341064453125,0.10224866059720515,-0.10985475168675184,0.08772621424794197
1733902554533367000,5.800366943359375,0.049774376994371414,-0.23367636166661976,0.0448427658110857
1733902554543394000,5.81039404296875,0.00015606734454631804,-0.32757454254776236,0.08540916947722435
1733902554553420000,5.820419921875,-0.049667409488558766,-0.37426410526931286,0.13917173932492732
1733902554563447000,5.830447021484375,-0.08016659264862537,-0.35568858413696286,0.19974515823125838
1733902554573473000,5.84047314453125,-0.10215864422619342,-0.31463819634616375,0.2530693366616964
1733902554583500000,5.8505,-0.07520341728329658,-0.24450141480267046,0.2823673273384571
1733902554593527000,5.860527099609375,-0.013193243572115897,-0.177518713375926,0.2894394576817751
1733902554603553000,5.870552978515625,-0.022910335466265676,-0.15385872858613728,0.23961948798000812
1733902554613580000,5.880580078125,0.0070697922557592385,-0.17249650129973887,0.16497662718892098
1733902554623606000,5.89060595703125,0.06512099920809268,-0.20147271267622707,0.09107786276340483
1733902554633633000,5.900633056640625,0.05208382298052311,-0.22161387569010257,0.03183423115611076
1733902554643658800,5.91065869140625,-0.004525952991843224,-0.1944032126814127,-0.010712532672286033
1733902554653686000,5.92068603515625,-0.027267946153879164,-0.1127317684277892,-0.034951486393809315
1733902554663713000,5.930713134765625,0.046699791854619976,-0.01741349161565304,-0.05057517198324203
1733902554673739000,5.940739013671875,0.12601707419753075,0.0977893431007862,-0.037353286838531494
1733902554683766000,5.95076611328125,0.14340017067492009,0.1690685726776719,-0.0435007035523653
1733902554693791700,5.960791748046875,0.14450024087131022,0.2234375839859247,-0.03758125037550926
1733902554703819000,5.970819091796875,0.14983166502714157,0.26435411626398564,-0.0017307693153619766
1733902554713845000,5.980844970703125,0.178115510225296,0.25250878016948697,0.03466565518975258
1733902554723872000,5.9908720703125,0.1623129609376192,0.22408611102253198,0.08763619787693024
1733902554733898800,6.000898681640625,0.15493863277733325,0.1790267798513174,0.0984212112635374
1733902554743925000,6.010925048828125,0.1993383309960365,0.10707564236223698,0.11563713448047637
1733902554753952000,6.020951904296875,0.2400812602728605,0.062139937570691105,0.11823299619257449
1733902554763978000,6.03097802734375,0.19776772067844867,0.025479601432383057,0.10515665699839591
1733902554774005000,6.0410048828125,0.17142565719783306,0.04586743268370628,0.09319441652595996
1733902554784031000,6.051031005859375,0.20038930135369298,0.08445435297042131,0.08288637300133704
1733902554794058000,6.06105810546875,0.15850187821686268,0.11487550245821475,0.05647475141584873
1733902554804085000,6.0710849609375,0.01182370878458023,0.13273819914609192,0.017393617871403692
1733902554814111000,6.081111083984375,-0.0829231978803873,0.11166589276194572,-0.006034019467234611
1733902554824138000,6.091137939453125,-0.06371639310717582,0.06118249071538448,0.01196399403810501
1733902554834164000,6.1011640625,0.010356558841466903,0.00802782363295555,0.054343000084161756
1733902554844191000,6.11119091796875,0.06748246764242649,-0.055607028670608995,0.06725450410544873
1733902554854217000,6.121217041015625,0.038838556960225104,-0.0950841757953167,0.025400398716330527
1733902554864244000,6.131243896484375,-0.028142975422739983,-0.1240650633469224,-0.02070551889836788
1733902554874271000,6.14127099609375,-0.06289221724271774,-0.1384416714847088,-0.0560796146184206
1733902554884297000,6.151296875,-0.12703648037314413,-0.10696136833280324,-0.07432195827364921
1733902554894324000,6.161323974609375,-0.1301765319645405,-0.0799979580834508,-0.051723172974586486
1733902554904350000,6.171349853515625,-0.1437479611992836,-0.09283464330285787,-0.023364508974552153
1733902554914377000,6.181376953125,-0.15473521915972233,-0.09279343450963497,-0.004017418947815895
1733902554924403000,6.19140283203125,-0.13011515716612337,-0.1321837801337242,-0.023225977286696432
1733902554934430000,6.201429931640625,-0.141617378911376,-0.18251725231558083,-0.04505670082271099
1733902554944457000,6.21145703125,-0.1575456004053354,-0.23509879568517206,-0.10153846650123595
1733902554954483000,6.22148291015625,-0.0906575915247202,-0.2789446594133973,-0.15777064133286475
1733902554964510000,6.231510009765625,-0.055201662740111346,-0.3321922654762864,-0.18235037131607532
1733902554974536000,6.241535888671875,-0.10851356621086597,-0.3299833572551608,-0.16413666923344133
1733902554984563000,6.25156298828125,-0.2929337295383215,-0.2780751831024885,-0.16316928550601004
1733902554994589200,6.261589111328125,-0.4071130664259195,-0.18295681277662515,-0.179318456274271
1733902555004616000,6.271615966796875,-0.36790216902196404,-0.07751870848834515,-0.18352935196757317
1733902555014643000,6.281642822265625,-0.2511848380893469,-0.01439911223053932,-0.15803250713944433
1733902555024669000,6.2916689453125,-0.1445703834980726,-0.029088731840252874,-0.12092413497269153
1733902555034696000,6.301696044921875,-0.14333996492028236,-0.10997954711019992,-0.10122048659324645
1733902555044722200,6.31172216796875,-0.1863859104424715,-0.17493834149390458,-0.09871405673027038
1733902555054749000,6.3217490234375,-0.1648573847234249,-0.21216040316820142,-0.11095452962219715
1733902555064775000,6.33177490234375,-0.11775427276492118,-0.2383712414845824,-0.12708382664620876
1733902555074802000,6.341802001953125,-0.12766367236077786,-0.22461305750608443,-0.14612930337786673
1733902555084829200,6.3518291015625,-0.09911679231226443,-0.18438772236257792,-0.11993687750101088
1733902555094855200,6.361855224609375,0.01694236697256565,-0.15569062018841504,-0.08648819688558577
1733902555104882000,6.3718818359375,0.1268301441460848,-0.09708177935332059,-0.021257307562232017
1733902555114908000,6.381907958984375,0.2322609419107437,-0.02676788767725229,0.0639963790923357
1733902555124935000,6.391934814453125,0.20573300046920776,0.029688743560016155,0.1386754802405834
1733902555134961400,6.40196142578125,0.09602525603771209,0.07663491139113902,0.22328210116326808
1733902555144988400,6.411988525390625,0.008391980770230293,0.11683978826850652,0.27931787663996216
1733902555155015400,6.422015380859375,0.014081716844439505,0.14579904851019382,0.27884382938742636
1733902555165041400,6.43204150390625,0.05866612398028374,0.12779460526406763,0.24741291833519935
1733902555175068400,6.442068359375,0.01331774673461914,0.08578589383512734,0.20062661724090575
1733902555185094400,6.452094482421875,-0.07106207969486714,-0.0033121932879090306,0.1265811378210783
1733902555195121400,6.462121337890625,-0.135337860250473,-0.08718553149998187,0.004943301621079445
1733902555205147400,6.4721474609375,-0.12187865921854972,-0.1701838404431939,-0.15184885006844998
1733902555215174400,6.48217431640625,0.019456980141997336,-0.23393618164658544,-0.24468904632925986
1733902555225201400,6.492201416015625,0.11618833862245082,-0.33836686245799064,-0.2849813092291355
1733902555235227400,6.502227294921875,0.1290337916702032,-0.42002427818626165,-0.2699976751089096
1733902555245254400,6.51225439453125,0.043426469272375104,-0.4508221520319581,-0.20820202093124388
1733902555255280400,6.5222802734375,0.0048036008894443505,-0.45858752533644437,-0.16090484770536423
1733902555265307400,6.532307373046875,-0.028395488879084586,-0.45026481041014194,-0.08298749528825282
1733902555275333400,6.54233349609375,-0.013402502408623694,-0.39292847372889517,0.0335275910705328
1733902555285360400,6.5523603515625,0.0598310761064291,-0.34875936939567326,0.11137655442655085
1733902555295387400,6.562387451171875,0.1495201148599386,-0.26599340790361164,0.20360300270318984
1733902555305413000,6.5724130859375,0.2191167981773615,-0.17432313220500945,0.3242506588220596
1733902555315440400,6.5824404296875,0.28494799148142336,-0.0788166393443942,0.41950843761861323
1733902555325466400,6.59246630859375,0.3438917633593082,-0.02954991961121559,0.5072843362271785
1733902555335493400,6.602493408203125,0.38660277783870695,-0.014303835162520408,0.5198433735489845
1733902555345519400,6.612519287109375,0.3777238903343677,-0.03241875304579735,0.4796002104878425
1733902555355546400,6.62254638671875,0.34318449187278743,-0.07230097384005785,0.4186328238278627
1733902555365572400,6.632572265625,0.36862580712139603,-0.20385142450630664,0.3529465919524431
1733902555375599400,6.642599365234375,0.3739911335468292,-0.32969226535409685,0.2701882292449474
1733902555385626400,6.65262646484375,0.27577859659790993,-0.5037237211361527,0.1651449694931507
1733902555395652400,6.66265234375,0.15590192485153676,-0.587592383173108,0.07338263159692288
1733902555405679400,6.672679443359375,0.08426175300776959,-0.6240168647289276,-0.025440146204829213
1733902555415705300,6.682705322265625,0.03095335666835308,-0.6447831739038229,-0.17608488118052482
1733902555425732400,6.692732421875,-0.05279109446704387,-0.6241226631909609,-0.3181897513478994
1733902555435758300,6.70275830078125,-0.06870294934809207,-0.5159425667181611,-0.404241894903779
1733902555445785300,6.712785400390625,-0.05354746579229831,-0.3758925832539797,-0.4849380643844604
1733902555455812400,6.722812255859375,-0.03084697368443012,-0.2094929375246167,-0.4816822774589061
1733902555465838300,6.73283837890625,-0.026417466804385184,-0.046912265561521053,-0.3694599198579788
1733902555475865300,6.742865234375,-0.07962240276932715,0.0993468016758561,-0.14168869058191774
1733902555485891300,6.752891357421875,-0.12836568315029143,0.1994374074563384,0.06827858645617961
1733902555495918300,6.76291845703125,-0.15230010096728802,0.2675850610092282,0.22357143949866293
1733902555505944300,6.7729443359375,-0.05969429798424244,0.30349136390984055,0.3797288004159927
1733902555515971300,6.782971435546875,0.1057405943661928,0.2821332263216376,0.5119809696108103
1733902555525998300,6.792998291015625,0.19821663348972796,0.23397242200374602,0.6129734926670789
1733902555536024300,6.8030244140625,0.22990005799829957,0.18622078300863504,0.7126379819899797
1733902555546051300,6.81305126953125,0.18694822050034998,0.15837006853073834,0.7594318818688393
1733902555556077300,6.823077392578125,0.14214637122154236,0.1971501733019948,0.7667436661869287
1733902555566104300,6.833104248046875,0.12276888605654239,0.2082156110651791,0.754473382678628
1733902555576130300,6.84313037109375,0.1337573130607605,0.17664865254312753,0.6996592579513787
1733902555586157300,6.8531572265625,0.1533247678399086,0.14302680731788278,0.6117120944291353
1733902555596184300,6.863184326171875,0.09817921920120716,0.16105623887479303,0.5364665915697813
1733902555606210600,6.87321044921875,0.02605564775466919,0.21799948458522556,0.46455929322242734
1733902555616237300,6.8832373046875,-0.02871463783085346,0.2595017077967524,0.361473597279191
1733902555626263300,6.89326318359375,0.0044137247890233995,0.3003071809157729,0.251686357870698
1733902555636290300,6.903290283203125,0.11166589276194572,0.35216654749065635,0.18235446296930313
1733902555646316300,6.91331640625,0.1831698710054159,0.31113062661662694,0.09082418026328086
1733902555656343600,6.923343505859375,0.2407575520992279,0.21345263493582606,-0.004130231672525406
1733902555666369500,6.93336962890625,0.18904197790920732,0.16627265834882854,-0.049232525202631945
1733902555676396300,6.943396240234375,0.01014671548306942,0.16364888571649788,-0.10491934111118316
1733902555686423300,6.95342333984375,-0.11099486163258553,0.1594716000318527,-0.18494155685305594
1733902555696449300,6.96344921875,-0.1748743363469839,0.13315861651524902,-0.19746201573014258
1733902555706476500,6.9734765625,-0.13899170658290386,0.08047931185960769,-0.18027824121713637
1733902555716502500,6.98350244140625,-0.07954407683610916,-0.004033054908365011,-0.09101648796498775
1733902555726529300,6.993529296875,-0.07148994971811772,-0.005353635987639427,-0.02749824777841568
1733902555736555300,7.00355517578125,-0.046346156111359595,-0.027527181611955165,-0.015327332991361617
1733902555746582300,7.013582275390625,0.04878770404458046,-0.08558496443554758,0.0092892218708992
1733902555756609500,7.023609619140625,0.05723755248188972,-0.11634762083739042,0.105022216963768
1733902555766635500,7.033635498046875,-0.057250411963462824,-0.08637056185528635,0.16440028860569
1733902555776662300,7.043662353515625,-0.13959201056361198,-0.07294321726635097,0.1323228963434696
1733902555786688300,7.053688232421875,-0.14797522350549697,-0.03600026479437947,0.061845923060178755
1733902555796715300,7.06371533203125,-0.0781564218699932,0.0020079788215458393,-0.014573299753665923
1733902555806741200,7.0737412109375,-0.05110708690285683,0.05925999822020531,-0.07927870389819144
1733902555816768500,7.0837685546875,-0.003893500307202339,0.12724442403540015,-0.0792892252922058
1733902555826795300,7.093795166015625,0.08323124091625213,0.19092486904636025,-0.07412146726548671
1733902555836821200,7.1038212890625,0.13755027560293673,0.21053703975006938,-0.0541015925437212
1733902555846848300,7.11384814453125,0.14337912788689136,0.25998671483471986,0.023876550149917602
1733902555856874500,7.12387451171875,0.06261632291078567,0.2968107171021402,0.06864215907156467
1733902555866901500,7.133901611328125,-0.05795066918730735,0.32004166282489893,0.09332651847302913
1733902555876927500,7.143927490234375,-0.03301964154839516,0.29982904201000926,0.11470131493508814
1733902555886954200,7.153954345703125,0.05371405453085899,0.3139380852527916,0.15045418083965778
1733902555896981200,7.163981201171875,0.1959761610865593,0.30923166112750766,0.16891221307218074
1733902555907007500,7.174007568359375,0.3050280719578266,0.29435061059892176,0.1725572915762663
1733902555917034500,7.184034423828125,0.329339506393671,0.23995573419705032,0.13953414289653301
1733902555927060500,7.194060546875,0.38559564662277696,0.14637977100759744,0.1757452739626169
1733902555937087200,7.204087158203125,0.4927075293421745,0.03621215397939086,0.21346154889464378
1733902555947113200,7.21411328125,0.5548246705591678,0.027973902466148136,0.25858663877844806
1733902555957140500,7.224140380859375,0.5615349818527698,0.058225394475460046,0.24721651898026464
1733902555967166500,7.23416650390625,0.6058896718859672,-0.011447130557149647,0.16961247029602528
1733902555977193500,7.244193359375,0.6722621324598789,-0.07672697358876467,0.032928456133604046
1733902555987220200,7.25422021484375,0.770068426695466,-0.09142375359162688,-0.1564005220234394
1733902555997246200,7.26424609375,0.8396417291373014,-0.03467150040864944,-0.28782909987568855
1733902556007273500,7.2742734375,0.8476514325916766,0.09859320682957767,-0.3674146777659654
1733902556017299500,7.284299560546875,0.729864426600933,0.23081118149384855,-0.37804596189558504
1733902556027326500,7.294326416015625,0.5093576353698969,0.3512929795265198,-0.34598201363682746
1733902556037352400,7.3043525390625,0.2779927655160427,0.4076579869575798,-0.28790333415567876
1733902556047379200,7.314379150390625,0.13229893094599246,0.4106749236259609,-0.23228373826444149
1733902556057406500,7.324406494140625,0.018739771783351896,0.40179559773020446,-0.16472528277635573
1733902556067432400,7.334432373046875,-0.05855798743069172,0.43685916619636117,-0.06859948897361755
1733902556077459500,7.34445947265625,-0.07377718387246131,0.4631980148065835,0.056470075240731235
1733902556087485400,7.3544853515625,-0.08981471095979213,0.4851823214691132,0.18568623774051665
1733902556097512200,7.36451220703125,-0.12507657847702502,0.5785130777258426,0.2984182984292507
1733902556107538400,7.374538330078125,-0.14355974515080452,0.6648332976333796,0.4045657200306654
1733902556117565400,7.3845654296875,-0.1746212383687496,0.7433081378027796,0.41623979121148585
1733902556127591400,7.39459130859375,-0.22027415151894092,0.7693529719024896,0.3760521577298641
1733902556137617400,7.404617431640625,-0.2585568281620741,0.7009845882710068,0.2650239783495664
1733902556147644200,7.41464404296875,-0.27731355108022687,0.6449160065032541,0.11212474244534969
1733902556157670100,7.424670166015625,-0.23438334089219567,0.5473549192003906,-0.051098903596401214
1733902556167697200,7.434697265625,-0.19864684160053728,0.3816800075490027,-0.16988427297472952
1733902556177723100,7.44472314453125,-0.21206687966585158,0.26000103562101723,-0.17185352722108363
1733902556187750400,7.45475048828125,-0.2439040334314108,0.1524775033608079,-0.10859715284109114
1733902556197776400,7.4647763671875,-0.2816261535823345,0.08703976635374128,-0.03223579769432545
1733902556207803100,7.47480322265625,-0.31123920155763624,0.05337583555243909,0.003960135802626609
1733902556217830100,7.484830078125,-0.3105161479800939,0.0674163436036557,0.022449147695302964
1733902556227856100,7.494856201171875,-0.3435352050065994,0.1395307818956673,0.02939911296367645
1733902556237883400,7.50488330078125,-0.34059505990147587,0.17302279019616543,0.0731593442350626
1733902556247909400,7.514909423828125,-0.29395488927960395,0.22115531826764342,0.08972644815444945
1733902556257936100,7.52493603515625,-0.26088556337058544,0.2604038442682475,0.08428805649280548
1733902556267962000,7.534962158203125,-0.22941841196119783,0.3225015501324087,0.037736148676276206
1733902556277989000,7.544989013671875,-0.15510580603778362,0.3765848763670772,-0.03885784618258476
1733902556288016400,7.555016357421875,-0.07766074730753898,0.4147766598563641,-0.10098667783737182
1733902556298042400,7.56504248046875,-0.0008440496087074279,0.39561332889869805,-0.16243395696878432
1733902556308069000,7.575069091796875,0.10028291348218918,0.35335721857994795,-0.16424831291437147
1733902556318095000,7.58509521484375,0.267975229370594,0.2465659461170435,-0.10518003787398338
1733902556328122000,7.5951220703125,0.3414075453281402,0.19697700869217513,0.002364975565671921
1733902556338148000,7.605148193359375,0.28808395141959187,0.2360914599843323,0.1382405959546566
1733902556348175400,7.61517529296875,0.20409984630942343,0.24248759076222776,0.2276163309752941
1733902556358201300,7.625201416015625,0.10765548807680607,0.22794264032021164,0.20986849283874034
1733902556368228000,7.63522802734375,0.04960311208069324,0.29344065614715215,0.18515782995223998
1733902556378255000,7.645255126953125,0.02718962022066116,0.3398598774947226,0.05095043503642082
1733902556388281300,7.65528125,0.044803602844476695,0.37836204210743307,-0.17180442738234997
1733902556398308400,7.665308349609375,0.1149082356840372,0.3653812722422182,-0.37694413813352584
1733902556408334300,7.675334228515625,0.2341694058805704,0.3610007190704346,-0.474614238768816
1733902556418361000,7.685361083984375,0.3000520371109247,0.35819516013041136,-0.4305225835859775
1733902556428387000,7.695386962890625,0.25545535501539707,0.29398689185306426,-0.2950660653918981
1733902556438414300,7.705414306640625,0.14681436303257941,0.1926994775034487,-0.07950608291327953
1733902556448441300,7.71544140625,-0.023688334101438523,0.15648922322019934,0.16800912675261495
1733902556458467300,7.72546728515625,-0.11791676985025405,0.11554989458844064,0.40562604273855685
1733902556468494000,7.735494140625,-0.04744564178586006,0.07084098429009318,0.5723462987244129
1733902556478520000,7.74552001953125,0.1285714348554611,0.0313423559859395,0.6674860040992499
1733902556488547300,7.75554736328125,0.3553665125757456,0.007963087833672762,0.6844172651559114
1733902556498573300,7.7655732421875,0.5480728582113981,0.03624035716056823,0.6256921044647693
1733902556508600300,7.775600341796875,0.6716758570045233,0.13641878735497592,0.5232867920011282
1733902556518626300,7.785626220703125,0.705778033092618,0.24993249994069336,0.493279191750288
1733902556528653000,7.795653076171875,0.539130257821083,0.36125323252677916,0.4580471348494291
1733902556538680300,7.805680419921875,0.17537001090943813,0.46212885120511055,0.36299627680182456
1733902556548706300,7.815706298828125,-0.08966215074658393,0.6025469373293221,0.22953590086102485
1733902556558733300,7.8257333984375,-0.07501753932237624,0.7171550210230052,0.07885083387494086
1733902556568759300,7.83575927734375,0.03258884891569614,0.6740333799161017,-0.025036826100945472
1733902556578786000,7.8457861328125,0.065081251719594,0.571064734481275,-0.06728489924371242
1733902556588812000,7.85581201171875,0.057695817643404,0.5087001943744719,-0.15595394729971884
1733902556598839300,7.86583935546875,0.045507951721549034,0.4999154148943722,-0.2861737338840961
1733902556608866300,7.8758662109375,0.02165712053477764,0.5248725998878478,-0.3950076180905103
1733902556618892300,7.885892333984375,-0.15755845988690853,0.5429501083701849,-0.48473231267929073
1733902556628919000,7.8959189453125,-0.33031507342755795,0.6199957925193011,-0.5518254887431859
1733902556638945300,7.9059453125,-0.42673429721891876,0.7664296318016945,-0.5250117160975932
1733902556648972300,7.91597216796875,-0.4367553404957056,0.890435804568231,-0.32949498921632764
1733902556658998300,7.925998291015625,-0.35295828239023685,0.9365468367494643,-0.06918576442897319
1733902556669025300,7.936025390625,-0.25240590431690213,0.8320778697542845,0.1096229887574911
1733902556679051300,7.94605126953125,-0.11436638389229774,0.6678117289222777,0.1749351266235113
1733902556689078300,7.956078369140625,-0.07777414455413818,0.4407561005696654,0.20512743579149245
1733902556699105300,7.966105224609375,-0.12856851224601268,0.22696108193695544,0.18204641993343829
1733902556709131300,7.97613134765625,-0.12290624870061874,0.09777122292220591,0.12383914563655853
1733902556719158300,7.986158203125,-0.12156301739811896,0.056091597317159174,0.06261749195456505
1733902556729184300,7.996184326171875,-0.19823416914641856,0.07411182265430688,0.05110942499041557
1733902556739211300,8.006211181640625,-0.28918928231298924,0.08981061930656432,0.07827274172604083
1733902556749237200,8.0162373046875,-0.2977653874784708,0.07457768660038709,0.06261632291078567
1733902556759264300,8.02626416015625,-0.23133798184692858,0.0005751695394515991,-0.0035620763957500455
1733902556769290200,8.036290283203124,-0.17018413270413874,-0.13479425489306449,-0.10101122775673865
1733902556779317200,8.046317138671874,-0.04975450325012207,-0.23534721748828888,-0.16365736128389835
1733902556789344300,8.05634423828125,0.1251204176187515,-0.33266046750992534,-0.16535189024209976
1733902556799370200,8.066370361328126,0.2191331647902727,-0.3902268135547638,-0.12614216188192368
1733902556809397200,8.076397216796876,0.24648995827138423,-0.4486214271172881,-0.12571487638056278
1733902556819423200,8.08642333984375,0.19026830483376977,-0.5213236752346158,-0.09174071058630942
1733902556829450200,8.0964501953125,0.04708382273614406,-0.46721565295010803,-0.07078267823159694
1733902556839476200,8.106476318359375,0.07853460753262043,-0.29265666616261005,-0.04026303680539131
1733902556849503200,8.116503173828125,0.24625030429661274,-0.05321428831517696,0.07394786426424979
1733902556859529200,8.126529296875,0.33129590115845203,0.17842150743454693,0.2004717189401388
1733902556869556200,8.13655615234375,0.30681495537459846,0.37343116157650946,0.2696060454428196
1733902556879583200,8.146583251953125,0.2962409543901682,0.47522301831692454,0.24874971989691255
1733902556889609200,8.156609130859374,0.2512339379280805,0.45057431475073095,0.21925065369009972
1733902556899636200,8.16663623046875,0.09455284539759158,0.3621387831896543,0.18769582399725912
1733902556909662200,8.176662109375,-0.012690554746985435,0.2767778367683291,0.1661211210489273
1733902556919689200,8.186689208984374,0.14050269566774368,0.13431056302934885,0.19942776284515856
1733902556929715200,8.196715087890626,0.335413857871294,-0.06754091983139515,0.2542722827106714
1733902556939742200,8.2067421875,0.35713644485771656,-0.31754122431129217,0.298740369990468
1733902556949769200,8.216769287109376,0.3055857058405876,-0.5192956765383482,0.28938451262414455
1733902556959795200,8.226795166015625,0.3325415173053741,-0.6409598162233829,0.2629693839073181
1733902556969822200,8.236822265625,0.42385961856544013,-0.7555360434740781,0.2610346164524555
1733902556979848200,8.24684814453125,0.4192617693811655,-0.8594728032886981,0.2812339393943548
1733902556989875200,8.256875244140625,0.19428747734725474,-0.9040396747678517,0.3048644058287144
1733902556999901200,8.266901123046875,-0.025116905599832533,-0.8685270473599433,0.2631827343970537
1733902557009928200,8.27692822265625,0.0443459222048521,-0.8363929564744234,0.19897943455576894
1733902557019954200,8.2869541015625,0.1690349626690149,-0.8102198198199272,0.19302666363120077
1733902557029981200,8.296981201171874,0.01111000755727291,-0.7450763165190816,0.18208850550949573
1733902557040008200,8.30700830078125,-0.06544774694442748,-0.6258744752943516,0.14736264456510542
1733902557050034200,8.3170341796875,0.05336334139704704,-0.461154453215003,0.1324111591488123
1733902557060061200,8.327061279296874,0.15588672728240488,-0.3950912047207355,0.12017302434444427
1733902557070087200,8.337087158203126,0.14847732780873774,-0.36295126861631866,0.08661270004808902
1733902557080114200,8.3471142578125,0.029249475359916684,-0.33065935682058334,0.0909007526308298
1733902557090140400,8.357140380859375,-0.08715981253683566,-0.29741467434465885,0.07998714442849159
1733902557100167200,8.367167236328125,-0.14035130449831484,-0.30258126332759855,0.11715104617476463
1733902557110193200,8.377193115234375,-0.19334698162674901,-0.2847860789179802,0.1314905371725559
1733902557120220200,8.38722021484375,-0.20946984890997408,-0.23185353015363214,0.16216624594330786
1733902557130247200,8.3972470703125,-0.20018238060474394,-0.20471096394509075,0.10505787279903889
1733902557140274000,8.40727392578125,-0.2512456283658743,-0.20376286944001912,0.0519751019090414
1733902557150301000,8.417301025390625,-0.3583849836140871,-0.2542237673938274,-0.03598141396343708
1733902557160327000,8.427326904296875,-0.4196358633905649,-0.22143150486052035,-0.12158289114236831
1733902557170354000,8.43735400390625,-0.34843759009540076,-0.20551292797774076,-0.19961422532796858
1733902557180380000,8.4473798828125,-0.35673604736328124,-0.2334180029913783,-0.3018091099113226
1733902557190407000,8.457406982421874,-0.533917491608858,-0.3464513847142458,-0.40500586501359936
1733902557200434000,8.467433837890624,-0.6560796439439058,-0.4045572444632649,-0.47384734604954715
1733902557210460000,8.4774599609375,-0.6088321550786495,-0.391373353241384,-0.46311260154545303
1733902557220487000,8.48748681640625,-0.45642800921499727,-0.2987362783372402,-0.3554787407785654
1733902557230513200,8.49751318359375,-0.3538789043664932,-0.18885697673112153,-0.21201251913011074
1733902557240540000,8.507539794921875,-0.4102461037546396,-0.07880991734266281,-0.09586626608371734
1733902557250566000,8.51756591796875,-0.5106505977898835,0.08795826943814754,0.002500584644079208
1733902557260593000,8.527593017578125,-0.535754643908143,0.284047827771306,0.07585106753706931
1733902557270619000,8.537618896484375,-0.36490707885921,0.5426897038683295,0.08932955779135227
1733902557280646100,8.547646240234375,-0.05224339745640754,0.7375503049284219,0.0614297434747219
1733902557290673000,8.5576728515625,0.11120528951287269,0.7125514727503061,-0.01509235519170761
1733902557300699000,8.567698974609375,0.16217209116220474,0.4430696382090449,-0.12346972780227661
1733902557310726000,8.577725830078125,0.050984921827912325,0.034903263337910176,-0.1820592794150114
1733902557320751900,8.587751953125,-0.06672083562016487,-0.42972617251127954,-0.19848843616843223
1733902557330779100,8.597779052734374,-0.025265958681702613,-0.8016293938681482,-0.179445297524333
1733902557340805000,8.60780517578125,0.08286299212574959,-0.99961514121145,-0.17491700644493102
1733902557350831900,8.617831787109376,0.06926759749352931,-1.0477727306589484,-0.16903963884413242
1733902557360857900,8.62785791015625,0.06297814196050167,-0.9726038001671433,-0.16994506325125694
1733902557370884900,8.637884765625,0.06765314803421497,-0.8237149689480662,-0.20609891117215157
1733902557380912000,8.647912109375,0.15851006152331829,-0.6174506380811333,-0.19285072254240512
1733902557390938000,8.657938232421875,0.3776069859564304,-0.3714072545334697,-0.14152443993091582
1733902557400964900,8.66796484375,0.4312772013455629,-0.14613660990148783,-0.08729542161524295
1733902557410990800,8.677990966796875,0.4016705831110477,0.06848813755363226,-0.004027355819940567
1733902557421017900,8.688017822265625,0.4117974248498678,0.23810265367627143,0.11258008499741554
1733902557431043800,8.6980439453125,0.37738662120401856,0.3359922422811389,0.2431318800151348
1733902557441071000,8.708071044921875,0.3475672370016575,0.40154169603437184,0.3257721693009138
1733902557451097000,8.71809716796875,0.3588186988562345,0.3422618240699172,0.3032160540997982
1733902557461123800,8.728123779296874,0.29467794285714627,0.2160495195612311,0.18588146805167197
1733902557471150800,8.73815087890625,0.18455869501531122,0.13477058175653217,0.014204466441273688
1733902557481177000,8.748177001953126,0.07028992627859115,0.055877370044589036,-0.062490650704503055
1733902557491204000,8.7582041015625,-0.027267946153879164,-0.00921557211279869,-0.009513678276538848
1733902557501230000,8.76822998046875,-0.026997897040843963,-0.07158931843936443,0.007877016985416412
1733902557511256800,8.7782568359375,-0.07484042918980122,-0.16371026051491497,0.04409107066094875
1733902557521282800,8.78828271484375,-0.13890519734323023,-0.2415042788133025,0.08603343885540962
1733902557531310000,8.79831005859375,-0.17735095559358596,-0.23420681528151033,0.1471241596341133
1733902557541336000,8.808336181640625,-0.17907003447115422,-0.14549217451810836,0.2184568729639053
1733902557551363000,8.818363037109375,-0.17450141138136385,-0.05319353778809309,0.21190145997107027
1733902557561389800,8.828389892578125,-0.12374269952476023,0.03437748589813709,0.1805430296331644
1733902557571415800,8.838415771484375,-0.09183014243543147,0.04968816001564264,0.06771510735452174
1733902557581443000,8.848443115234375,-0.08932195900678634,0.03923778541088104,-0.032848961156606675
1733902557591469000,8.858468994140624,-0.04803250176310539,-0.01040156702697277,-0.06498539012968539
1733902557601496000,8.86849609375,-0.061250295254588125,-0.0004316694155335426,-0.0730938777834177
1733902557611522000,8.87852197265625,-0.07655950806736946,0.10648761334121226,-0.03811491886079311
1733902557621548800,8.888548828125,-0.057010757988691325,0.18279665377885101,-0.027490648993849752
1733902557631574800,8.89857470703125,-0.07719722144901751,0.2177221289485693,-0.04496142375469207
1733902557641602000,8.90860205078125,-0.053715223574638364,0.21303338661044835,-0.10306699124276637
1733902557651629000,8.918629150390625,0.016749474748969078,0.18819500569105146,-0.13297405372858045
1733902557661655000,8.928655029296875,0.026745968106389045,0.16421762551516295,-0.14057751446962355
1733902557671681800,8.938681884765625,0.04225684097111225,0.14198825805038212,-0.13721826716959476
1733902557681708000,8.9487080078125,0.06083470019102096,0.08964607639461755,-0.12127893975973128
1733902557691735000,8.958735107421875,0.04736439324319362,-0.009012743017077446,-0.12785188840925693
1733902557701761000,8.968760986328125,-0.006852934634685516,-0.09919336467981338,-0.12473054151833057
1733902557711788000,8.9787880859375,-0.08454115447103977,-0.133963357026875,-0.12116437346935272
1733902557721814800,8.988814697265624,-0.09697627315223216,-0.09580401450246571,-0.12381108858585357
1733902557731841000,8.998841064453124,-0.035464112091064454,-0.047208033637702464,-0.1296212361693382
1733902557741868000,9.008867919921874,0.06415069287121296,-0.014985972207784653,-0.0845008224606514
1733902557751894000,9.01889404296875,0.06993804410099982,-0.014886311225593089,-0.047913259297609326
1733902557761921000,9.028921142578126,-0.031472996628284455,-0.03115764706879854,-0.009917582902312278
1733902557771947000,9.038947021484375,-0.0808931533575058,-0.04330284289270639,0.028706454524397847
1733902557781974000,9.04897412109375,0.00870586902499199,-0.0915893194168806,0.03564356031119823
1733902557792000000,9.059,0.09900690219700335,-0.1691571277439594,0.06901800664663314
1733902557802027000,9.069027099609375,0.03960311159193516,-0.24206688113212585,0.06593816080987452
1733902557812053000,9.079052978515625,-0.006986205625534057,-0.34741204643994567,0.07440028420686721
1733902557822080000,9.089080078125,-0.036465982609987256,-0.4638616663470864,0.08073065627217292
1733902557832107000,9.09910693359375,-0.07039806282818317,-0.5379854717001319,0.09839315421283244
1733902557842133000,9.109133056640625,-0.07281272275447845,-0.5850295469477772,0.07447159587740898
1733902557852160000,9.119159912109374,-0.08814473192095756,-0.5743935866430402,0.035869185760617255
1733902557862186000,9.12918603515625,-0.1293085169583559,-0.48501814388334746,-0.0018155249893665312
1733902557872213000,9.139212890625,-0.04430968184769153,-0.3716971773907542,-0.04477379222810268
1733902557882239000,9.149239013671876,0.12710720752179622,-0.28361586609482764,-0.0685714319229126
1733902557892266000,9.159265869140626,0.22432138108313082,-0.28710633855909107,-0.052120063337683674
1733902557902293000,9.16929296875,0.1272211892902851,-0.3412722285106778,-0.028518822997808453
1733902557912319000,9.179319091796875,0.024425416204333306,-0.37645284748524427,-0.04159633123576641
1733902557922346000,9.189345947265625,0.0620487521559,-0.360134457629919,0.0002069207489490509
1733902557932372000,9.1993720703125,0.14226970534026623,-0.3467030213877558,0.012122983992099762
1733902557942399000,9.20939892578125,0.18800269798934457,-0.27385259697139264,0.023581951117515564
1733902557952425000,9.219425048828125,0.21761925309598446,-0.21389906352907417,0.02623158884346485
1733902557962452000,9.229451904296875,0.21913141122460364,-0.1835878041565418,0.017899813827872275
1733902557972478000,9.23947802734375,0.19785773704946039,-0.18251754457652566,0.01905950525701046
1733902557982505000,9.2495048828125,0.22566285881996154,-0.18968933590203524,0.05832067154347896
1733902557992531000,9.259531005859374,0.21768705763518809,-0.16707418399006127,0.13884674515426157
1733902558002558000,9.269557861328124,0.19066577971875667,-0.11940087092816828,0.2372802313774824
1733902558012585000,9.2795849609375,0.1855804392784834,-0.059757426348328584,0.34076632481515406
1733902558022611000,9.28961083984375,0.17123042688667772,0.032037644773721695,0.4076104945540428
1733902558032638000,9.299637939453126,0.21028467242419718,0.14369593875110148,0.45664252874851224
1733902558042664000,9.309663818359375,0.18306348802149294,0.23439035515487192,0.4965630357265472
1733902558052691000,9.31969091796875,0.12287526904046535,0.3319385829761624,0.5371364536553621
1733902558062717000,9.329717041015625,0.17467969055771826,0.43727614949941634,0.5858633674234152
1733902558072744000,9.339743896484375,0.34506606783568855,0.49556204199045895,0.6486515397697686
1733902558082771000,9.34977099609375,0.45499768415093417,0.4606052948996424,0.6712088240146636
1733902558092797000,9.359796875,0.41449265528321266,0.35960078914463517,0.6352607277989387
1733902558102824000,9.369823974609375,0.34371699131429195,0.24649434218555688,0.5645481921941041
1733902558112850000,9.379849853515625,0.294230783611536,0.1076449666827917,0.48981297694444653
1733902558122877000,9.389876953125,0.2750859381586313,0.021117899091541766,0.4147030831634998
1733902558132903200,9.399903076171874,0.34113340456187724,-0.057549394910037514,0.31865912242531774
1733902558142930000,9.409929931640624,0.3705266723066568,-0.14123071768134832,0.2104886705636978
1733902558152956000,9.419955810546876,0.36840602689087387,-0.2143812940880656,0.13799042058587074
1733902558162983000,9.42998291015625,0.2890992659419775,-0.3108288671910763,0.07667582792341708
1733902558177396000,9.44439599609375,0.16455401786267757,-0.3709297001495957,0.07221124972999096
1733902558187423000,9.454423095703126,0.04929799165427685,-0.4368512020856142,0.06797697316110134
1733902558197450000,9.464449951171876,0.05777940427362919,-0.4684232751742005,0.09458382505774497
1733902558207476000,9.47447607421875,0.09251637113392353,-0.45914983539432286,0.09658405896425247
1733902558217503000,9.4845029296875,0.11126198813617229,-0.4476940831393003,0.06390519367754459
1733902558227529000,9.494529052734375,0.15113865597248077,-0.44236762741953134,0.037836686441302295
1733902558237556000,9.504555908203125,0.11995265959203243,-0.44116526589244603,-0.01596153924167156
1733902558247582000,9.51458203125,0.06715221277475357,-0.39160511617064475,-0.04349836546480655
1733902558257609000,9.52460888671875,0.04342705379426479,-0.3147168145403266,-0.04388181182444095
1733902558267635000,9.534635009765625,0.00017184943556785583,-0.2762254635825753,-0.02750818465054035
1733902558277662000,9.544661865234374,-0.06528466533720494,-0.24824089359194038,-0.024069442373514174
1733902558287689000,9.55468896484375,-0.12216799755394459,-0.26581659003198144,-0.02002104376554489
1733902558297715000,9.56471484375,-0.17323767505586146,-0.27979981493800876,-0.01469546482861042
1733902558307742000,9.574741943359374,-0.24832594152688978,-0.2982949643105268,-0.013438742765784262
1733902558317768200,9.584768310546876,-0.33110183989107606,-0.3164680421218276,0.003606500059366226
1733902558327795000,9.594794921875,-0.3785580030709505,-0.3268997120261192,0.06031915188431739
1733902558337821000,9.604821044921875,-0.3811883515745401,-0.33556144964843987,0.11088906317055225
1733902558347848000,9.614847900390625,-0.3649029872059822,-0.3703030926838517,0.13859598526358605
1733902558357874000,9.6248740234375,-0.37459962083399295,-0.4019356637880206,0.17684651320278644
1733902558367901200,9.634901123046875,-0.4001087406218052,-0.39678719498366116,0.21577099488079546
1733902558377928000,9.644927978515625,-0.42577392775416373,-0.40520343341231346,0.21417817273139952
1733902558387954000,9.654953857421875,-0.4844587564349174,-0.3806935537949204,0.19857494540810583
1733902558397981000,9.66498095703125,-0.5353811344206333,-0.3460039332076907,0.17163023985922335
1733902558408007000,9.6750068359375,-0.5414455490261316,-0.3043137862086296,0.17825462643504142
1733902558418034200,9.6850341796875,-0.5198211617171764,-0.2985433861136436,0.21213409968316554
1733902558428060200,9.69506005859375,-0.5991542261511087,-0.28919892692416904,0.2510866384118795
1733902558438087000,9.7050869140625,-0.7144283725380897,-0.31284283736199137,0.24700609109997748
1733902558448113000,9.71511279296875,-0.7890501905411481,-0.3143137866973877,0.23621523249447343
1733902558458140000,9.725139892578126,-0.7911176444649696,-0.33338089073896404,0.1778454611122608
1733902558468167200,9.735167236328126,-0.7140373273938894,-0.39835985112786293,0.08762801457047462
1733902558478193200,9.745193115234375,-0.6053700319260359,-0.4772257364414632,0.006899111863970756
1733902558488220000,9.755219970703125,-0.5887719483464956,-0.5077177592083811,-0.04348199885189533
1733902558498246000,9.765245849609375,-0.6147960319191217,-0.47208267446458335,-0.10890344231128692
1733902558508273000,9.77527294921875,-0.6268500423282385,-0.4502354381851852,-0.19191431847512722
1733902558527699000,9.794698974609375,-0.3437619994997978,-0.21735168820098041,-0.33213527459204195
1733902558537726000,9.804725830078125,-0.19711773233711719,-0.0876994723714888,-0.30344577120244504
1733902558547752000,9.814751953125,-0.12612696431279183,0.011979629998654127,-0.235154909786582
1733902558557779200,9.824779296875,-0.07383622058331966,0.04902604284510016,-0.15787585527300835
1733902558567805000,9.834804931640624,-0.03728255968987942,0.07198343232348561,-0.06695113724470138
1733902558577832000,9.84483203125,-0.08961597351729869,0.1290088033594191,0.0036257892817258834
1733902558587859000,9.85485888671875,-0.10831833589971065,0.13642346353009344,0.06180266844034195
1733902558597885000,9.864885009765626,-0.022804537004232406,0.16298559950217603,0.14188801254630087
1733902558607912000,9.874911865234376,0.1301578272640705,0.16495704570561645,0.14335457796752452
1733902558617938000,9.88493798828125,0.25787293755114077,0.20081015711426733,0.03531739709675312
1733902558627965000,9.89496484375,0.3751800510704517,0.21477233923226594,-0.1486924318641424
1733902558637991000,9.904990966796875,0.46597091358602044,0.22828517014756797,-0.35492987472414966
1733902558648018000,9.915017822265625,0.49193888305723665,0.2376858895689249,-0.5522463445037603
1733902558658045000,9.925044921875,0.49473055960237977,0.21784020237028598,-0.6883493439078331
1733902558668071000,9.93507080078125,0.4809568857938051,0.2038045166246593,-0.7098913136303424
1733902558678098000,9.945097900390625,0.4404986186772585,0.2842629318267107,-0.717499450546503
1733902558688124000,9.9551240234375,0.39347441717386245,0.36253465063944457,-0.6792080060750245
1733902558698151000,9.96515087890625,0.33621640642583367,0.41894218203797934,-0.5996177520096302
1733902558708177200,9.97517724609375,0.3218202168047428,0.48421997924298044,-0.45802316945195193
1733902558718204000,9.985203857421874,0.30598025811612606,0.5292182278767228,-0.3074374711871147
1733902558728230000,9.99522998046875,0.2536187872380018,0.5877559031717479,-0.15249299319088458
1733902558738257000,10.0052568359375,0.2243529452651739,0.6046658291794359,-0.009336568143963813
1733902558748284000,10.015283935546876,0.17556465669870375,0.6129949738465249,0.08777999026179313
1733902558758310100,10.02531005859375,0.0760258395820856,0.572968083884567,0.07763035216927527
1733902558768337000,10.0353369140625,0.06513911938667297,0.5234557188272476,0.07171148351430892
1733902558778363000,10.04536279296875,0.0805091224759817,0.46558191426843404,0.030329671812057493
1733902558788390000,10.055389892578125,0.15908347749710083,0.4296627518862486,-0.14665069690346716
1733902558798416000,10.065415771484375,0.24312895740568635,0.3321174466744065,-0.344502004212141
1733902558808443100,10.075443115234375,0.26298925765156744,0.25995821939259767,-0.369789590203762
1733902558818470000,10.085469970703125,0.21149229464828967,0.281501212028414,-0.18248130421936512
1733902558828496000,10.095495849609375,0.09292670550048351,0.3116729167997837,0.0071568860173225396
1733902558838523000,10.10552294921875,0.02140051542520523,0.35877938975915313,0.15560615677535533
1733902558848548900,10.115548828125,0.01175707328915596,0.44023514543548226,0.24236264920830725
1733902558858576100,10.125576171875,0.05585983438789844,0.5601673467613756,0.25122867723107334
1733902558868602000,10.13560205078125,0.014311433947086333,0.7553549878187478,0.14523147775530815
1733902558878628900,10.14562890625,-0.07294307113587856,1.0194771950230002,0.08689093246757984
1733902558888654800,10.15565478515625,-0.022722703939676285,1.2792144651412962,0.15719196466207502
1733902558898681900,10.165681884765625,0.09141805450320244,1.4866091152124106,0.2264782668560743
1733902558908709000,10.175709228515625,0.16320084968805312,1.6175158611476421,0.3203384538143873
1733902558918735000,10.185735107421875,0.2421212416678667,1.5971473191186785,0.32170506599247456
1733902558928761900,10.195761962890625,0.23985329673588274,1.5247481456011533,0.29300971738398074
1733902558938787800,10.205787841796875,0.2601321146547794,1.366309103487432,0.3209621386706829
1733902558948814800,10.21581494140625,0.28732407296299933,1.1191435840420425,0.3270540258049965
1733902558958841000,10.225841064453125,0.10133856001496315,0.9058506697125732,0.21540683774352073
1733902558968868000,10.2358681640625,-0.08887187715172767,0.7495008549630642,0.1313344698280096
1733902558978894800,10.245894775390624,-0.2602770760834217,0.6396190691389143,0.01288636958003044
1733902558988920800,10.2559208984375,-0.38078093981742855,0.5028922387480735,-0.08040858471095562
1733902558998948000,10.265947998046874,-0.4246387862443924,0.35667218834683295,-0.16278057844936847
1733902559008974000,10.27597412109375,-0.43366263517737386,0.20919746170938014,-0.26256197215020655
1733902559019001000,10.2860009765625,-0.44101767411530013,0.07178250292390584,-0.3327297333538532
1733902559029027000,10.296027099609375,-0.4891957218289375,-0.017753391094505785,-0.33654958390295503
1733902559039053800,10.3060537109375,-0.5400169775277376,-0.04455591169372201,-0.29007541749775406
1733902559049079800,10.316079833984375,-0.514762124761939,0.006848112329095601,-0.19734628039598465
1733902559059107000,10.326107177734375,-0.3793482766658067,0.03011617519184947,-0.07837854018807411
1733902559069134000,10.336134033203125,-0.2664092952281236,0.03814487560763955,0.032547932383418084
1733902559079160000,10.34616015625,-0.18728081345558165,-0.01302227091938257,0.05348024577498436
1733902559089186800,10.356186767578125,-0.12280863354504108,-0.13555749435052275,-0.050692076361179346
1733902559099212800,10.366212890625,-0.10832768824994564,-0.2551081490129232,-0.27062311353087426
1733902559109240000,10.376239990234374,-0.13235153791606424,-0.2886315022997558,-0.5650730928510427
1733902559119266000,10.38626611328125,-0.06680442225039004,-0.17231325368732214,-0.7921832278698683
1733902559129293000,10.39629296875,0.11476619686484336,0.03176511144265532,-0.9735814130276441
1733902559139319000,10.406319091796876,0.2839642411410808,0.2122168095305562,-1.0945593240141869
1733902559149346000,10.416345947265626,0.4557371043413877,0.3230259393326938,-1.1254641653656958
1733902559159373000,10.426373046875,0.4935100778967142,0.35956805591881275,-1.072547983214259
1733902559169399000,10.43639892578125,0.26413492055535315,0.3154366532474756,-0.8488894499540328
1733902559179426000,10.446426025390625,-0.27764263690412044,0.20676453547403215,-0.4044897321850061
1733902559189452000,10.4564521484375,-0.7608294737070799,0.11111322731524705,0.17678630744814872
1733902559199479000,10.46647900390625,-0.7290899350970983,-0.010436784470826388,0.5837345387011766
1733902559209505000,10.476505126953125,-0.2754629547774792,-0.08991159546300768,0.6659896280616522
1733902559219532000,10.486531982421875,0.12642273238897322,-0.16724427985996007,0.5635650263756513
1733902559229559000,10.49655908203125,0.16719781036973,-0.2583364634096622,0.5906394957840442
1733902559239585000,10.5065849609375,-0.0777080935806036,-0.26775895627141,0.8029641496032476
1733902559249612000,10.516612060546874,-0.3074345485776663,-0.09857157951965928,1.1537287213414906
1733902559259638000,10.526637939453124,-0.4557230758160352,0.09799524093642831,1.4197761975198984
1733902559269665000,10.5366650390625,-0.557314149287343,0.16855390115380287,1.409880826449394
1733902559279691000,10.54669091796875,-0.3869318636626005,0.15525719720721243,1.101948265221715
1733902559289718000,10.556718017578126,0.13139818271398543,0.1686189292140305,0.7145756720542907
1733902559299744300,10.566744140625,0.6083522626072168,0.2799592432834208,0.3878232595443725
1733902559309771000,10.57677099609375,0.8029653186470269,0.4333401252247393,0.15380466031134127
1733902559319798000,10.586798095703125,0.6873328603416681,0.5784507530793547,-0.0480886158645153
1733902559329824000,10.596823974609375,0.35798517064154145,0.7479656082198023,-0.2865986812978983
1733902559339851300,10.606851318359375,0.07015607076585292,0.8908424856729805,-0.4762023847430944
1733902559349877000,10.616876953125,0.039894788014888764,0.9323547918871045,-0.5275964718937873
1733902559359904000,10.626904052734375,0.07777005290091037,0.8599373520605266,-0.47218204318583007
1733902559369930000,10.636929931640625,0.09137889153659343,0.6693307551831007,-0.3457575572311878
1733902559379957000,10.64695703125,-0.001533200916647911,0.47513797038197514,-0.2106149272918701
1733902559389983000,10.65698291015625,-0.11289514229595661,0.30309447354674335,-0.14147007939517497
1733902559400010000,10.667010009765624,-0.22333003195822237,0.22086028084382414,-0.08399579554796219
1733902559410037000,10.677037109375,-0.13166414017379283,0.16360197783485053,-0.04787701894044876
1733902559420063000,10.68706298828125,0.10126081860363483,0.08181757472604513,0.0014665654212236404
1733902559430090000,10.697090087890626,0.22145079408288001,-0.030025135907530785,0.09338613970577717
1733902559440116000,10.707115966796875,0.23781389986276624,-0.18691826375350354,0.10110416673719883
1733902559450143000,10.71714306640625,0.26069267114698885,-0.33884923914745446,0.058248190829157824
1733902559460169000,10.7271689453125,0.12029986559450626,-0.4392553406178951,-0.006655950757861137
1733902559470196000,10.737196044921875,-0.1428548117518425,-0.4483263896934688,-0.06796294463574885
1733902559480222000,10.747221923828125,-0.17215221790671348,-0.36118425894379613,-0.05993629004657268
1733902559490249000,10.7572490234375,-0.014421908584237099,-0.2317000931575894,0.046592824348807335
1733902559500276000,10.76727587890625,0.28356676625609395,-0.14668050751984119,0.1189689092516899
1733902559510302000,10.777302001953124,0.4248568129092455,-0.136068074221164,0.135377023217082
1733902559520329000,10.787328857421874,0.18237667480111122,-0.10744900571927428,0.09199030143320559
1733902559530355000,10.79735498046875,-0.04262450523972511,0.021145371620357036,0.0659656333386898
1733902559540382000,10.8073818359375,-0.020874445724487302,0.23136530824527143,0.18674889853596685
1733902559550408200,10.817408203125,0.03840425719618797,0.3968981080122292,0.3290045753508806
1733902559560435000,10.82743505859375,0.05672668035030365,0.4656291144110262,0.36503567367494105
1733902559570462000,10.8374619140625,0.012397124758362769,0.43826457601487634,0.365209276676178
1733902559580488000,10.847488037109375,0.061063832771778105,0.40067163520157334,0.28741876550912854
1733902559590515200,10.85751513671875,0.15348375779390333,0.34478578958958384,0.22546002972424029
1733902559600541200,10.867541259765625,0.1482563785344362,0.3130737235084176,0.17987492111325262
1733902559610568000,10.87756787109375,0.09439151735603808,0.33175475084185596,0.18555881196856497
1733902559620594000,10.887593994140625,-0.07277882048487663,0.25619930525049567,0.19057167169451714
1733902559630621000,10.897620849609375,-0.2693131999760866,0.08441928165704012,0.14779635980725286
1733902559640647000,10.90764697265625,-0.40908348971605296,-0.0957721580594778,0.09538228195905685
1733902559650674200,10.917674072265624,-0.40559857020974155,-0.2558889241270721,0.014709493353962898
1733902559660701000,10.927700927734374,-0.1575380016207695,-0.40598391626551744,-0.023331775748729706
1733902559670727000,10.937726806640624,0.051533203360438345,-0.5884272265620529,-0.07400105575621127
1733902559680754000,10.94775390625,0.13006781089305877,-0.7580373587705195,-0.12649462858140467
1733902559690780000,10.95777978515625,0.09662556001842021,-0.9182792125225067,-0.15024667556881904
1733902559700807200,10.96780712890625,-0.10336860453784465,-0.9979502767391503,-0.16777356443107128
1733902559710833200,10.977833251953125,-0.17378887919783592,-0.9267745075367391,-0.20864801113307474
1733902559720860000,10.98785986328125,-0.017416998746991156,-0.8244456213101744,-0.22856091834902761
1733902559730886000,10.997885986328125,0.08795300874114036,-0.7303034025400876,-0.22618892852067946
1733902559740913000,11.007912841796875,0.10332944157123565,-0.6408776908978819,-0.23630291077792642
1733902559750940200,11.017940185546875,0.10426116946339607,-0.5890899282544851,-0.29927988369464875
1733902559760966100,11.027966064453125,0.11112404097020626,-0.5267965536877512,-0.32216683828532694
1733902559770993000,11.037992919921875,0.09299509456157684,-0.48812005542144177,-0.2998211509644985
1733902559781019000,11.048018798828124,0.057007250857353205,-0.43907866887673735,-0.21375322531759738
1733902559791046000,11.0580458984375,0.03158288674354553,-0.3365437386840582,-0.08620061211585998
1733902559801072000,11.068072021484374,0.0342985754430294,-0.28851372113898394,0.05299567712843418
1733902559811099100,11.07809912109375,-0.0774205088108778,-0.27538842823654414,0.13314473412036895
1733902559821125000,11.088125,-0.1742038897395134,-0.2644100842349231,0.18330723364949225
1733902559831151900,11.09815185546875,-0.15792612415552137,-0.25153832770213486,0.21486440142989158
1733902559841179100,11.10817919921875,-0.10526303998231887,-0.2857804967828095,0.19373744224905967
1733902559851205000,11.118205078125,-0.07907762836813927,-0.3265228415377438,0.15597615913152693
1733902559861232000,11.128232177734375,-0.11613047095537185,-0.42582609633281826,0.17316577886343001
1733902559871258000,11.138258056640625,-0.20126608418822287,-0.5885923539958894,0.15679390525519846
1733902559881284900,11.148284912109375,-0.33924189172685143,-0.782908180654794,0.09844576118290424
1733902559891310800,11.158310791015625,-0.478733949047327,-0.9875539704091847,0.06347790817618369
1733902559901338000,11.168338134765625,-0.6045651452839375,-1.144333262617141,0.04230827889740467
1733902559911364000,11.178364013671874,-0.7407552384495735,-1.1780527229979634,0.04118190521597862
1733902559921391000,11.18839111328125,-0.7301327221482992,-1.1309009495921432,0.023983517655730247
1733902559931417900,11.19841796875,-0.7367395730674267,-1.0731138004034757,-0.11567454388141632
1733902559941443800,11.20844384765625,-0.8085510098248719,-0.9674439331859349,-0.30044249773323534
1733902559951471000,11.21847119140625,-0.7204962942749261,-0.8214706971526146,-0.5144137497156858
1733902559961497000,11.2284970703125,-0.6150123050183057,-0.6977266824536025,-0.8012368874192237
1733902559971524000,11.238524169921876,-0.4626216031581163,-0.5591540780656039,-1.0387824917346238
1733902559981550000,11.248550048828125,-0.25716741963028905,-0.4246672816865146,-1.1594161193281411
1733902559991576800,11.258576904296875,-0.09513152206838131,-0.22977233996540306,-1.1338035391658543
1733902560001603000,11.26860302734375,0.03994447237551212,-0.017644231631606815,-0.9593693478018045
1733902560011630000,11.278630126953125,0.14586393043994902,0.17252324317619203,-0.7428177239373326
1733902560021657000,11.288656982421875,0.2179559377044439,0.3443682948298752,-0.5340031240656972
1733902560031683000,11.29868310546875,0.2060357828080654,0.46711043900996446,-0.27718378722071646
1733902560041710000,11.3087099609375,0.1961678842663765,0.5989880758039653,-0.01200315700471401
1733902560051736000,11.318736083984374,0.2317073996812105,0.682303049480915,0.2739186479449272
1733902560061763000,11.32876318359375,0.2712204949021339,0.6165117497958242,0.5690899272769689
1733902560071789000,11.3387890625,0.2724772169649601,0.3779964236654341,0.7334700498774648
1733902560081816000,11.348816162109374,0.1280892042964697,0.15815145734399555,0.7215189153209328
1733902560091842000,11.358842041015626,-0.03974631945490837,0.07341404964849352,0.5839116488337517
1733902560101869000,11.368869140625,0.08177052071392536,0.09315583808124064,0.41894174364656206
1733902560111896000,11.37889599609375,0.20866379322409628,0.1718446132622659,0.2947895865380764
1733902560121922000,11.388922119140625,0.24758184516131876,0.2698822320356965,0.23087883990257976
1733902560131949000,11.398948974609375,0.20874971794188021,0.3773452662803232,0.26401158643662925
1733902560141975000,11.40897509765625,0.1670107633650303,0.43904286691099403,0.35046997270584107
1733902560152002000,11.419001953125,0.22923136495649812,0.4271170129261911,0.4591360991299152
1733902560162028000,11.429028076171875,0.27872926309704776,0.4262529434427619,0.5685661956638097
1733902560172055000,11.439054931640625,0.3301291954666376,0.45072366009354586,0.6542629499107598
1733902560182081300,11.449081298828125,0.4172878389596939,0.4973400114484131,0.6898772841274738
1733902560192108000,11.45910791015625,0.37092648527920247,0.6192573952421545,0.6556538197472691
1733902560202135000,11.469135009765624,0.27357027289867397,0.7306146604463457,0.5486275694847107
1733902560212161000,11.4791611328125,0.3462941483259201,0.8112846725724637,0.4568912428125739
1733902560222188000,11.48918798828125,0.3291875307023525,0.8406887539722024,0.38603082316964865
1733902560232214300,11.49921435546875,0.3643909460306167,0.8431085284650325,0.372861252734065
1733902560242241000,11.509240966796876,0.40576106729507444,0.7632995170824229,0.31198855862021446
1733902560252267000,11.51926708984375,0.2834802570164203,0.5569254422307014,0.24928192707747218
1733902560262294000,11.5292939453125,0.253761995100975,0.33065950295105573,0.1935264298468828
1733902560272320000,11.539320068359375,0.2466220602184534,0.0853439952865243,0.1498144216313958
1733902560282347300,11.54934716796875,0.22719898234605787,-0.10830299220010638,0.12690437842607497
1733902560292374000,11.5593740234375,0.16728198152184484,-0.1848325435206294,0.11146101783961057
1733902560302400000,11.56939990234375,0.013182137656211852,-0.17690350408703087,0.11553045923560858
1733902560312427000,11.579427001953125,-0.0773375067025423,-0.15024053808897733,0.09718085581362247
1733902560322453000,11.589452880859374,-0.11863982342779636,-0.11419117345586419,0.08429185588508843
1733902560332480300,11.599480224609374,-0.03976736224293709,-0.12622662529498338,0.08806494468301534
1733902560342506200,11.60950634765625,0.12748539318442345,-0.12314692558869719,0.10843728610426187
1733902560352533000,11.619532958984376,0.2293804180383682,-0.11326017621606588,0.11810177102833985
1733902560362559000,11.62955908203125,0.211159701693058,-0.10197773470133542,0.10261632486581802
1733902560372586000,11.6395859375,0.11288403638005257,-0.049921238119155165,0.11452566610723733
1733902560382613200,11.64961328125,-0.005191138902306556,-0.0039523908875882625,0.11851298217773437
1733902560392639200,11.65963916015625,-0.03341594738960266,0.05040113059058785,0.17557108643949032
1733902560402666000,11.669666015625,-0.032439795833826064,0.10897723819985985,0.23427578886449335
1733902560412692000,11.67969189453125,-0.04931026661396026,0.11041165491715073,0.2873226116582751
1733902560422719000,11.689718994140625,-0.06345043564736842,0.1082484855338931,0.2980275455459952
1733902560432745200,11.6997451171875,-0.03602057693004608,0.0920173355706036,0.260539526411891
1733902560442772200,11.709772216796875,0.005092354702949524,0.01603489673882723,0.17591010913550853
1733902560452798200,11.719798095703124,0.0452303038239479,-0.05996990005522966,0.06153875680714845
1733902560462825000,11.729824951171874,0.01626607514619827,-0.15620353814661503,-0.06310176834017038
1733902560472852000,11.73985205078125,-0.022370237240195275,-0.20231383967548608,-0.17261486698240042
1733902560482878200,11.749878173828124,-0.015087679016590118,-0.1524310338705778,-0.2516413496851921
1733902560492905200,11.7599052734375,-0.014118541723489761,-0.05623334387540817,-0.2541559628546238
1733902560502931200,11.76993115234375,-0.0498708231061697,0.02161620400249958,-0.17231792986243963
1733902560512958000,11.7799580078125,-0.030769232273101806,0.11388532237708568,-0.050340486444532866
1733902560522984000,11.78998388671875,-0.0437491253554821,0.1696463725656271,0.0891860576674342
1733902560533011200,11.80001123046875,-0.015486322945356368,0.2045579653404653,0.23833324756175278
1733902560543037200,11.810037109375,0.17441431761980056,0.1846266456849873,0.39199849940240383
1733902560553064200,11.820064208984375,0.37637832094430923,0.046101533700525756,0.503948762063682
1733902560563091000,11.830091064453125,0.41643151439130305,-0.08410349370613694,0.5564999102950096
1733902560573117000,11.840116943359375,0.2693044321477413,-0.139093997913599,0.5452645227923989
1733902560583144200,11.850144287109375,0.24578268678486345,-0.1627079516045749,0.5112333661139011
1733902560593170200,11.860170166015624,0.3612602467894554,-0.12105477561503648,0.4902990068957209
1733902560603197200,11.870197265625,0.4259831865906715,-0.05995367957279086,0.4345493548840284
1733902560613223200,11.88022314453125,0.44780455777645106,-0.004305003717541694,0.40584406940340995
1733902560623250000,11.89025,0.4355471337497234,0.034979835705459116,0.35672611049115655
1733902560633276200,11.900276123046876,0.36983635195493697,0.05809928387776017,0.27502105622887607
1733902560643303200,11.91030322265625,0.3571732697367668,0.06751052469313144,0.20636486863195894
1733902560653329200,11.9203291015625,0.4192430646806955,0.06526026154831051,0.17477146049439907
1733902560663356200,11.930356201171875,0.4298743488103151,0.021885668593645095,0.18114684074521065
1733902560673383000,11.9403828125,0.37826398856043814,-0.005888181255757808,0.22029987048208713
1733902560683409200,11.9504091796875,0.38629882645606994,-0.06303001827821135,0.3025742490649223
1733902560693436200,11.960436279296875,0.4363771548330784,-0.13215762277916074,0.3915051629275083
1733902560703462100,11.970462158203125,0.4654547807574272,-0.2325558332040906,0.4594587552130222
1733902560713489200,11.9804892578125,0.4322416624635458,-0.3399200832493603,0.5392500848084688
1733902560723515100,11.99051513671875,0.3415764721542597,-0.3975726462729275,0.5762298621594906
1733902560733542100,12.000542236328124,0.2802449283570051,-0.4382359344422817,0.5652490339398384
1733902560743568100,12.010568115234374,0.20540683725476264,-0.4134687190629542,0.5152011007010936
1733902560753595100,12.02059521484375,0.11528232969343662,-0.35071459511667485,0.4052046024560928
1733902560763622100,12.0306220703125,0.023001520881056784,-0.24946780503839253,0.32894670768380163
1733902560773648100,12.040648193359376,-0.045755204480886456,-0.1570528484523296,0.3066103727132082
1733902560783675100,12.050675048828126,-0.08827624934613704,-0.07152677459716797,0.3381745547562837
1733902560793701000,12.060701171875,-0.1282972940891981,-0.04174246170818805,0.37142858958244324
1733902560803728100,12.07072802734375,-0.11584697783887386,-0.06645896981358528,0.3736123633623123
1733902560813754000,12.080754150390625,-0.062391866505146026,-0.09524345801025628,0.3630664194285869
1733902560823781000,12.090781005859375,-0.023871873974800107,-0.09201894300580024,0.3037725189387798
1733902560833807000,12.10080712890625,-0.04386719877719879,-0.06347206295728683,0.20917174274623393
1733902560843834000,12.110834228515625,-0.06210194364786148,0.013937632198631762,0.13876549661159515
1733902560853861000,12.120861083984375,-0.07140577856600284,0.14742694197297096,0.08307751165926457
1733902560863887000,12.13088720703125,-0.07099252158999443,0.2694593304485082,0.050613750427961346
1733902560873914000,12.1409140625,-0.040671033084392544,0.29899317570775746,0.06052782619893551
1733902560883940000,12.150940185546874,-0.16390519856512545,0.2732742125615477,0.06102174719572067
1733902560893967000,12.160967041015626,-0.3100695732563734,0.1578627035304904,0.07815525282621383
1733902560903993000,12.1709931640625,-0.26883096941709517,0.040622810028493404,0.1139893672734499
1733902560914020000,12.18102001953125,-0.20893442685902117,-0.11874766771644353,0.14947861380577088
1733902560924046000,12.191046142578125,-0.18775661427378654,-0.22762276071608065,0.14841186135709286
1733902560934073000,12.201072998046875,-0.19733634352385995,-0.3099082452148199,0.09139467362761497
1733902560944100000,12.21110009765625,-0.190215697863698,-0.37140257835835216,0.003525836038589477
1733902560954126000,12.2211259765625,-0.1614233186215162,-0.43097149639725685,-0.0548901125729084
1733902560964153000,12.231153076171875,-0.08411912966668605,-0.44669513522982596,-0.06013795009851455
1733902560974179000,12.241178955078125,-0.06254208863079548,-0.43977088892459865,-0.06496025568842888
1733902560984206000,12.2512060546875,-0.11268939059078693,-0.38566315890103575,-0.06759878749847412
1733902560994232000,12.261232177734374,-0.21882336818873882,-0.29956074646264313,-0.06323123993873596
1733902561004259000,12.271259033203124,-0.2193599592834711,-0.2014268277078867,-0.042510523471236225
1733902561014285000,12.28128515625,-0.12727087365090847,-0.08627455413490533,-0.043508886858820914
1733902561024312000,12.29131201171875,-0.028314824858307837,0.02811784098148346,-0.09067921883463859
1733902561034338000,12.301338134765626,0.10789981822669506,0.08807078990191221,-0.14981997458934784
1733902561044365000,12.311364990234376,0.18596154755055902,0.09597411037236452,-0.17184826652407645
1733902561054392000,12.32139208984375,0.2110936507195234,0.09069266283810139,-0.11214403166770934
1733902561064418000,12.33141796875,0.18155892867743967,0.09120207366496325,-0.0006926584392786026
1733902561074445000,12.341445068359375,0.11721066740751265,0.11694324864298104,0.12917349240183829
1733902561084471000,12.351470947265625,-0.015209844091534613,0.14314385782629252,0.2430097149401903
1733902561094498000,12.361498046875,-0.10198737931251525,0.11766951709091662,0.3381669559717178
1733902561104524000,12.37152392578125,-0.12494798366129398,0.09885010420009493,0.42483986177444455
1733902561114551000,12.381551025390625,-0.15679390525519846,0.08636822376772761,0.4525707492649555
1733902561124577000,12.391576904296874,-0.18108371238112447,0.08130787163823842,0.45397067919075484
1733902561134604300,12.401604248046874,-0.20845044273436067,0.06700447486713529,0.40150457889437674
1733902561144630800,12.411630859375,-0.21782792741060256,0.005346329464018345,0.3290817322403192
1733902561154656800,12.42165673828125,-0.23484277509748935,-0.07353226920068263,0.23548691821992396
1733902561164683800,12.431683837890626,-0.21522329787015915,-0.13756269669309257,0.1273000997453928
1733902561174709800,12.441709716796876,-0.17875497717261313,-0.20425985917672515,-0.022118308305740356
1733902561184736800,12.45173681640625,-0.17693243792057037,-0.2920163224324584,-0.17102350613772868
