time,seconds_elapsed,z,y,x
1733902548766834000,0.033833984375,-1.3128689527511597,-0.0758802741765976,0.4042470455169678
1733902548776860000,0.04385986328125,-1.3653062582015991,-0.03781544417142868,0.5220290422439575
1733902548786887200,0.05388720703125,-1.4261192083358765,-0.005606786347925663,0.6064448356628418
1733902548796913200,0.0639130859375,-1.4878777265548706,-0.018727915361523628,0.6519169807434082
1733902548806940200,0.073940185546875,-1.5499670505523682,-0.01246777456253767,0.6538989543914795
1733902548816967000,0.083966796875,-1.6060175895690918,0.022246796637773514,0.629192590713501
1733902548826993000,0.093992919921875,-1.6262445449829102,-0.16393770277500153,0.5341236591339111
1733902548837020200,0.104020263671875,-1.627223014831543,-0.5845509767532349,0.33125874400138855
1733902548847046100,0.114046142578125,-1.631295919418335,-1.067581295967102,0.1103082224726677
1733902548857073200,0.1240732421875,-1.7044039964675903,-1.624985694885254,-0.1185808852314949
1733902548867099100,0.13409912109375,-1.8376109600067139,-2.195314407348633,-0.2299085259437561
1733902548877126100,0.144126220703125,-1.986200213432312,-2.6647346019744873,-0.2931162416934967
1733902548887152000,0.154152099609375,-2.160886287689209,-2.8471899032592773,-0.23415471613407135
1733902548897179100,0.16417919921875,-2.4649667739868164,-2.2766916751861572,0.11066071689128876
1733902548907206100,0.1742060546875,-2.5963656902313232,-1.693274974822998,0.4409361183643341
1733902548917232000,0.184232177734375,-2.6749558448791504,-1.0650153160095215,0.6298367977142334
1733902548927259100,0.194259033203125,-2.775291919708252,-0.5174097418785095,0.698803186416626
1733902548937285000,0.20428515625,-2.8463799953460693,-0.1874462068080902,0.6793258786201477
1733902548947312000,0.21431201171875,-2.9150826930999756,0.05993906781077385,0.582323431968689
1733902548957338000,0.224338134765625,-3.0061843395233154,0.2923472821712494,0.44513124227523804
1733902548967365000,0.234365234375,-3.087646722793579,0.45132842659950256,0.30361348390579224
1733902548977392000,0.24439208984375,-3.1583948135375977,0.4965670108795166,0.2041766494512558
1733902548987418000,0.254418212890625,-3.2324814796447754,0.34347233176231384,0.1899150162935257
1733902548997445000,0.264445068359375,-3.3222413063049316,0.021667933091521263,0.255855917930603
1733902549007471000,0.27447119140625,-3.435685873031616,-0.21197479963302612,0.37182295322418213
1733902549017498000,0.284498046875,-3.5518441200256348,-0.35544541478157043,0.49888479709625244
1733902549027524000,0.294524169921875,-3.6476147174835205,-0.3816124200820923,0.6003851890563965
1733902549037551000,0.304551025390625,-3.780799150466919,-1.6215490102767944,0.0762072205543518
1733902549047578000,0.314578125,-3.8750455379486084,-1.7030977010726929,-0.11716307699680328
1733902549057604000,0.32460400390625,-3.8347160816192627,-2.1495909690856934,-0.22744616866111755
1733902549067631000,0.334631103515625,-3.7392895221710205,-2.206329822540283,-0.1217462345957756
1733902549077657300,0.3446572265625,-3.7138373851776123,-2.0103116035461426,0.13293719291687012
1733902549087684000,0.35468408203125,-3.7553632259368896,-1.688319444656372,0.4219107925891876
1733902549097710000,0.3647099609375,-3.8321633338928223,-1.4130966663360596,0.6398910284042358
1733902549107737000,0.374737060546875,-3.8888285160064697,-1.1331286430358887,0.717609703540802
1733902549117764000,0.38476416015625,-3.9019064903259277,-0.7680721282958984,0.7020736336708069
1733902549127790800,0.394790771484375,-3.884718418121338,-0.4427570402622223,0.6442381739616394
1733902549137817900,0.40481787109375,-3.843440532684326,-0.5506366491317749,0.49818986654281616
1733902549147843800,0.41484375,-3.848905563354492,-0.9796226620674133,0.2015971690416336
1733902549157870800,0.424870849609375,-3.8827004432678223,-1.386767029762268,-0.17490403354167938
1733902549167896800,0.434896728515625,-3.9084420204162598,-2.0166232585906982,-0.6352425813674927
1733902549177923800,0.444923828125,-3.770273447036743,-2.3195066452026367,-0.6915913224220276
1733902549187950800,0.454950927734375,-3.518219232559204,-2.263385534286499,-0.4084092676639557
1733902549197976800,0.464976806640625,-3.223536491394043,-2.1316683292388916,-0.04499140381813049
1733902549208003800,0.47500390625,-3.0544345378875732,-1.8723373413085938,0.08798602223396301
1733902549218029800,0.48502978515625,-3.00828218460083,-1.7078940868377686,0.009150858968496323
1733902549228056800,0.495056884765625,-2.9367640018463135,-1.6408307552337646,-0.12651202082633972
1733902549238082800,0.505082763671875,-2.8338472843170166,-1.2663894891738892,-0.29630133509635925
1733902549248109800,0.51510986328125,-2.7958271503448486,-0.3449768126010895,-0.3974768817424774
1733902549258136800,0.52513671875,-2.7794179916381836,0.9726256132125854,-0.4487304985523224
1733902549268163000,0.5351630859375,-2.691983461380005,2.0706875324249268,-0.3328295946121216
1733902549278189800,0.54518994140625,-2.575988292694092,2.634711265563965,-0.011474193073809147
1733902549288215800,0.5552158203125,-2.492779493331909,2.6716537475585938,0.4987127184867859
1733902549298242800,0.565242919921875,-2.4490303993225098,2.270204544067383,1.1429098844528198
1733902549308268800,0.575268798828125,-2.458831548690796,1.5639960765838623,1.7679916620254517
1733902549318296000,0.585296142578125,-2.5036988258361816,0.7860046625137329,2.201768398284912
1733902549328322800,0.59532275390625,-2.5380306243896484,0.011977950111031532,2.3422346115112305
1733902549338348800,0.605348876953125,-2.503204822540283,-0.5503687262535095,2.1986496448516846
1733902549348375800,0.615375732421875,-2.3130569458007812,-0.9147940278053284,1.7945442199707031
1733902549358401800,0.62540185546875,-1.9356389045715332,-1.2018541097640991,1.2827049493789673
1733902549368429000,0.635428955078125,-1.5206029415130615,-1.316030740737915,0.7920264601707458
1733902549378455000,0.645455078125,-1.1689367294311523,-1.4256565570831299,0.3643704950809479
1733902549388481800,0.655481689453125,-0.9260982871055603,-1.4496442079544067,0.011267390102148056
1733902549398508800,0.6655087890625,-0.7749521732330322,-1.3734420537948608,-0.14194481074810028
1733902549408534800,0.67553466796875,-0.7270424365997314,-1.3095874786376953,-0.11947223544120789
1733902549418562000,0.68556201171875,-0.7960841059684753,-1.1415239572525024,-0.07501928508281708
1733902549428588000,0.695588134765625,-0.9787096977233887,-0.8565831780433655,-0.09419208019971848
1733902549438614800,0.70561474609375,-1.2476516962051392,-0.5858222842216492,-0.08888626098632812
1733902549448640800,0.715640869140625,-1.5019086599349976,-0.33650070428848267,-0.02572881057858467
1733902549458667800,0.725667724609375,-1.6759934425354004,0.4532218873500824,0.12532967329025269
1733902549468695000,0.735695068359375,-1.664136528968811,1.110178828239441,0.45082980394363403
1733902549478721000,0.745720947265625,-1.3521679639816284,1.6288936138153076,0.63397216796875
1733902549488747800,0.755747802734375,-0.9984727501869202,2.189446449279785,0.6327347755432129
1733902549498773800,0.765773681640625,-0.6839811205863953,2.466356039047241,0.5549936294555664
1733902549508800800,0.77580078125,-0.46185579895973206,2.701141357421875,0.46186378598213196
1733902549518827000,0.785826904296875,-0.3794517517089844,2.8748366832733154,0.41616126894950867
1733902549528854000,0.79585400390625,-0.4191567301750183,3.0137691497802734,0.4584628939628601
1733902549538880800,0.805880859375,-0.5675525665283203,3.0738768577575684,0.5971360802650452
1733902549548906800,0.81590673828125,-0.6928693056106567,3.030651330947876,0.7526050209999084
1733902549558934000,0.82593408203125,-0.8061522245407104,2.8612306118011475,0.8695499897003174
1733902549568960000,0.8359599609375,-0.8506397604942322,2.6559884548187256,0.9128434062004089
1733902549578987000,0.845987060546875,-0.8284553289413452,2.1991004943847656,0.9106822609901428
1733902549589012700,0.8560126953125,-0.6811464428901672,1.4874353408813477,0.8659095764160156
1733902549599039700,0.866039794921875,-0.46357977390289307,0.8461527824401855,0.7696261405944824
1733902549609067000,0.87606689453125,-0.3046785891056061,0.438192218542099,0.629468560218811
1733902549619093000,0.886093017578125,-0.14195623993873596,0.1743461787700653,0.3799031674861908
1733902549629120000,0.8961201171875,0.016180921345949173,-0.10106993466615677,0.04001577943563461
1733902549639145700,0.906145751953125,0.13604074716567993,-0.44633519649505615,-0.3578873872756958
1733902549649172700,0.9161728515625,0.3045131266117096,-0.7142171263694763,-0.8310547471046448
1733902549659198700,0.92619873046875,0.6607468724250793,-0.5510716438293457,-1.121864914894104
1733902549669226000,0.93622607421875,0.8260829448699951,-1.450569987297058,-1.3133083581924438
1733902549679252700,0.946252685546875,0.4631310701370239,-0.4747086763381958,-1.267171025276184
1733902549689278700,0.95627880859375,-0.0501372329890728,0.6593183875083923,-0.8744024038314819
1733902549699305700,0.9663056640625,-0.5914039611816406,1.456363320350647,-0.24503882229328156
1733902549709331700,0.976331787109375,-1.025173306465149,2.5180461406707764,0.36537304520606995
1733902549719359000,0.98635888671875,-1.1566767692565918,3.5340890884399414,0.8464171886444092
1733902549729385000,0.996385009765625,-1.0159523487091064,4.398311138153076,1.1309688091278076
1733902549739411700,1.00641162109375,-0.6251270771026611,4.828030586242676,1.2086482048034668
1733902549749438700,1.016438720703125,-0.18523147702217102,5.06100606918335,1.0830059051513672
1733902549759464700,1.026464599609375,0.10962651669979095,5.193203926086426,0.7895095348358154
1733902549769492000,1.036491943359375,0.19877709448337555,5.046983242034912,0.42759519815444946
1733902549779518000,1.04651806640625,0.14119262993335724,4.628692150115967,0.08762137591838837
1733902549789544700,1.056544677734375,0.048540469259023666,3.800410509109497,-0.19033926725387573
1733902549799570700,1.06657080078125,0.0015274214092642069,2.8787758350372314,-0.386599600315094
1733902549809598000,1.076597900390625,0.05784941464662552,1.9202896356582642,-0.5050283670425415
1733902549819624000,1.0866240234375,0.1985868215560913,1.1169345378875732,-0.4998088479042053
1733902549829651000,1.09665087890625,0.28389179706573486,0.7925906181335449,-0.40049439668655396
1733902549839677700,1.106677734375,0.3108302056789398,0.8516597747802734,-0.2953440248966217
1733902549849703700,1.11670361328125,0.3317324221134186,0.9173102378845215,-0.2494637817144394
1733902549859731000,1.12673095703125,0.33791521191596985,0.8050659894943237,-0.33406150341033936
1733902549869757000,1.1367568359375,0.3490546941757202,0.42459017038345337,-0.5245037078857422
1733902549879784000,1.146783935546875,0.43990814685821533,-0.6111853718757629,-0.9032193422317505
1733902549889810000,1.156809814453125,0.4508906602859497,-1.6631585359573364,-1.4122376441955566
1733902549899836700,1.166836669921875,0.34183183312416077,-2.354708194732666,-1.8018754720687866
1733902549909864000,1.176864013671875,-0.005821792874485254,-2.0128965377807617,-1.707919716835022
1733902549919890000,1.186889892578125,-0.20463289320468903,-1.4270702600479126,-1.4019094705581665
1733902549929917000,1.1969169921875,-0.4881420135498047,-0.14626453816890717,-1.059559941291809
1733902549939943000,1.20694287109375,-0.761288583278656,1.1390019655227661,-0.5117785930633545
1733902549949969700,1.2169697265625,-0.8964301347732544,1.4827297925949097,-0.07700781524181366
1733902549959995600,1.22699560546875,-0.9544817209243774,1.2556679248809814,0.17790384590625763
1733902549970023000,1.23702294921875,-0.9403606653213501,0.938399076461792,0.26089251041412354
1733902549980050000,1.2470498046875,-0.8356654644012451,0.7551365494728088,0.12431389838457108
1733902549990076000,1.257075927734375,-0.6716784834861755,0.6817622184753418,-0.1577184796333313
1733902550000102700,1.2671025390625,-0.4695653021335602,0.6838626861572266,-0.45146703720092773
1733902550010129000,1.27712890625,-0.24804843962192535,0.6853728890419006,-0.6448967456817627
1733902550020156000,1.287156005859375,-0.066917285323143,0.6865153908729553,-0.6492425203323364
1733902550030182000,1.297181884765625,0.12880708277225494,0.5022686719894409,-0.5181220173835754
1733902550040209000,1.307208984375,0.36434507369995117,0.24042478203773499,-0.2663329541683197
1733902550050235600,1.317235595703125,0.37671959400177,0.3924616575241089,0.12980017066001892
1733902550060262000,1.327261962890625,-0.1641862690448761,1.679675817489624,0.45266422629356384
1733902550070289000,1.337288818359375,-1.6185344457626343,2.548720598220825,0.33768776059150696
1733902550080315000,1.34731494140625,-2.5831990242004395,1.4882208108901978,0.0686861053109169
1733902550090342000,1.357341796875,-2.883819580078125,0.8259928226470947,-0.05064230039715767
1733902550100368000,1.367367919921875,-2.657456159591675,0.9451979994773865,0.07159599661827087
1733902550110395000,1.377394775390625,-2.238086462020874,0.8022640347480774,0.19722330570220947
1733902550120422000,1.387421875,-1.878205418586731,0.4623967409133911,0.346688449382782
1733902550130447600,1.397447509765625,-1.659034252166748,-0.030975664034485817,0.5564395189285278
1733902550140475000,1.407474853515625,-1.5959030389785767,-0.38732048869132996,0.8224384784698486
1733902550150500900,1.4175009765625,-1.6481976509094238,-0.5014049410820007,1.0908572673797607
1733902550160527600,1.427527587890625,-1.848885416984558,-0.6525958180427551,1.2775163650512695
1733902550170553600,1.4375537109375,-2.131075620651245,-0.9166736602783203,1.3432012796401978
1733902550180580600,1.44758056640625,-2.3709707260131836,-1.1582388877868652,1.3023992776870728
1733902550190608000,1.45760791015625,-2.5187206268310547,-1.4911317825317383,1.2097567319869995
1733902550200633900,1.4676337890625,-2.5164291858673096,-1.6937706470489502,1.112127423286438
1733902550210660600,1.47766064453125,-2.3743979930877686,-1.739753007888794,1.0629305839538574
1733902550220686600,1.4876865234375,-2.125936508178711,-1.738234519958496,1.1580784320831299
1733902550230713900,1.4977138671875,-1.8534668684005737,-1.6614116430282593,1.443400502204895
1733902550240739800,1.50773974609375,-1.6339161396026611,-1.5291904211044312,1.8052926063537598
1733902550250766800,1.517766845703125,-1.5432153940200806,-1.4509375095367432,2.1687934398651123
1733902550260793600,1.527793701171875,-1.5113695859909058,-1.2982441186904907,2.479867696762085
1733902550270819600,1.537819580078125,-1.4802284240722656,-0.9282567501068115,2.7221691608428955
1733902550280846800,1.547846923828125,-1.4704111814498901,-0.533198893070221,2.910761594772339
1733902550290872800,1.557872802734375,-1.4567219018936157,-0.1648893505334854,3.0429203510284424
1733902550300899800,1.56789990234375,-1.3878648281097412,0.22605577111244202,3.163015604019165
1733902550310925800,1.57792578125,-1.233452558517456,0.559572160243988,3.280369520187378
1733902550320952600,1.58795263671875,-1.0056904554367065,0.7464970350265503,3.364746570587158
1733902550330979800,1.597979736328125,-0.7312437295913696,0.7905965447425842,3.3948793411254883
1733902550341005800,1.608005859375,-0.43328627943992615,0.6739591360092163,3.3753113746643066
1733902550351032800,1.61803271484375,-0.15622273087501526,0.4137749969959259,3.3242931365966797
1733902550361058800,1.628058837890625,0.08472783863544464,0.033684369176626205,3.284210681915283
1733902550371085600,1.63808544921875,0.2343367040157318,-0.3861871659755707,3.288409948348999
1733902550381112800,1.64811279296875,0.28827372193336487,-0.7663590312004089,3.315516948699951
1733902550391138800,1.658138916015625,0.2772189676761627,-1.0122557878494263,3.31916880607605
1733902550401165800,1.668165771484375,0.2314445525407791,-1.1076523065567017,3.2643322944641113
1733902550411191800,1.67819189453125,0.1545444279909134,-1.0813556909561157,3.1694047451019287
1733902550421218600,1.688218505859375,0.01258543785661459,-0.9592926502227783,3.0883893966674805
1733902550431244800,1.698244873046875,-0.1611747294664383,-0.8341867327690125,3.0426015853881836
1733902550441271800,1.708271728515625,-0.29689446091651917,-0.667442262172699,3.0476560592651367
1733902550451298800,1.718298828125,-0.3342879116535187,-0.4313260018825531,3.042570114135742
1733902550461324800,1.72832470703125,-0.2948262691497803,-0.17640288174152374,2.925034284591675
1733902550471351600,1.7383515625,-0.15746229887008667,0.24405965209007263,2.6602702140808105
1733902550481377800,1.748377685546875,0.028414633125066757,0.8716127872467041,2.2789816856384277
1733902550491404800,1.75840478515625,0.27293047308921814,1.8553962707519531,1.8458560705184937
1733902550501431800,1.768431884765625,0.48679614067077637,3.1455438137054443,1.358441710472107
1733902550511457800,1.778457763671875,0.6052811741828918,4.445413112640381,0.7966925501823425
1733902550521484500,1.788484619140625,0.6719616651535034,5.669956684112549,0.31154024600982666
1733902550531510800,1.7985107421875,0.6229257583618164,6.711769104003906,-0.03200208768248558
1733902550541537800,1.808537841796875,0.5623444318771362,7.159024715423584,-0.33945098519325256
1733902550551563800,1.818563720703125,0.5495538115501404,7.228908061981201,-0.6227076053619385
1733902550561590800,1.8285908203125,0.6229124665260315,7.004156589508057,-0.9291109442710876
1733902550571617800,1.83861767578125,0.7470666766166687,6.624109268188477,-1.2493057250976562
1733902550581643800,1.848643798828125,0.8787620663642883,6.2533955574035645,-1.5148229598999023
1733902550591670800,1.8586708984375,0.932722270488739,5.9478654861450195,-1.6289986371994019
1733902550601696800,1.86869677734375,0.8145045638084412,5.507055282592773,-1.5978716611862183
1733902550611723800,1.878723876953125,0.5935201048851013,4.973575592041016,-1.5210907459259033
1733902550621750800,1.888750732421875,0.28946012258529663,4.405575752258301,-1.4754315614700317
1733902550631776800,1.89877685546875,-0.041597601026296616,3.8842670917510986,-1.5156527757644653
1733902550641803800,1.9088037109375,-0.40549352765083313,3.593204975128174,-1.6230119466781616
1733902550651829800,1.918829833984375,-0.801355242729187,3.4917871952056885,-1.7679029703140259
1733902550661856800,1.928856689453125,-1.2110998630523682,3.4385437965393066,-1.929950475692749
1733902550671882800,1.9388828125,-1.602539300918579,3.35487699508667,-2.062133312225342
1733902550681909800,1.94890966796875,-1.9051260948181152,3.0928595066070557,-2.1307482719421387
1733902550691936800,1.958936767578125,-2.047595262527466,2.7420260906219482,-2.1402974128723145
1733902550701962800,1.968962646484375,-2.0048961639404297,2.3771069049835205,-2.113063097000122
1733902550711989800,1.97898974609375,-1.806031584739685,1.9832653999328613,-2.0709798336029053
1733902550722015700,1.989015625,-1.4093414545059204,1.5383199453353882,-2.130966901779175
1733902550732042800,1.999042724609375,-0.8968750238418579,0.9414482712745667,-2.090935468673706
1733902550742069800,2.00906982421875,-0.4446777403354645,0.19684655964374542,-1.8709012269973755
1733902550752095700,2.019095703125,-0.12786078453063965,-0.5274839401245117,-1.565783977508545
1733902550762122800,2.029122802734375,-0.3115224838256836,-2.0879039764404297,-0.6121500134468079
1733902550772148700,2.039148681640625,-0.38388192653656006,-3.6747777462005615,0.0629388689994812
1733902550782175700,2.04917578125,-0.08237561583518982,-4.0585618019104,0.19677069783210754
1733902550792201700,2.05920166015625,0.39491623640060425,-3.7446627616882324,-0.32032838463783264
1733902550802228700,2.069228759765625,0.6006326675415039,-3.08551287651062,-0.9379881024360657
1733902550812255700,2.079255859375,0.7112988829612732,-2.1215310096740723,-1.399423360824585
1733902550822281700,2.08928173828125,1.0747863054275513,-0.9228640198707581,-1.866429328918457
1733902550832308700,2.099308837890625,1.715955376625061,0.3591560125350952,-2.360095977783203
1733902550842334700,2.109334716796875,2.152463436126709,0.7763609886169434,-2.4474129676818848
1733902550852361700,2.11936181640625,2.3794121742248535,1.1168628931045532,-2.4498672485351562
1733902550862388700,2.129388671875,2.362635612487793,2.214911937713623,-2.780890464782715
1733902550872414700,2.139414794921875,1.9985134601593018,3.310591220855713,-2.9854936599731445
1733902550882441700,2.149441650390625,1.5605201721191406,4.124688148498535,-3.181840181350708
1733902550892467700,2.1594677734375,0.9146170020103455,4.901010036468506,-3.1846821308135986
1733902550902494700,2.16949462890625,-0.16217516362667084,5.778622150421143,-2.8366804122924805
1733902550912521700,2.179521728515625,-0.8409958481788635,5.6919050216674805,-2.4619228839874268
1733902550922547700,2.189547607421875,-0.830127477645874,4.5983357429504395,-2.0634167194366455
1733902550932574700,2.19957470703125,-0.4275780916213989,3.0728187561035156,-1.4628028869628906
1733902550942600700,2.2096005859375,0.07729519158601761,1.5910409688949585,-0.7849652171134949
1733902550952627700,2.219627685546875,0.48020458221435547,0.5345520973205566,-0.2893034815788269
1733902550962653700,2.22965380859375,0.6253260970115662,-0.22360774874687195,-0.0015805992297828197
1733902550972680700,2.2396806640625,0.567338764667511,-0.6741189360618591,0.11507166177034378
1733902550982707700,2.249707763671875,0.41426321864128113,-0.8041139245033264,0.12552005052566528
1733902550992733700,2.259733642578125,0.19788284599781036,-0.4611953794956207,0.11602546274662018
1733902551002760700,2.2697607421875,-0.04417026415467262,0.15734055638313293,0.17841772735118866
1733902551012786700,2.27978662109375,-0.18495774269104004,0.8934675455093384,0.2514304220676422
1733902551022813700,2.289813720703125,-0.19154933094978333,1.4314287900924683,0.2239207774400711
1733902551032839700,2.299839599609375,-0.07463860511779785,1.7604427337646484,0.10829851031303406
1733902551042866700,2.30986669921875,0.066241554915905,1.8868584632873535,-0.02165335975587368
1733902551052893700,2.319893798828125,0.22974757850170135,1.8415788412094116,-0.1967502236366272
1733902551062919700,2.329919677734375,0.4537271559238434,1.8438771963119507,-0.3814047574996948
1733902551072946700,2.33994677734375,0.6681629419326782,1.785016655921936,-0.5221314430236816
1733902551082972700,2.34997265625,0.9339141845703125,1.5789246559143066,-0.6065754890441895
1733902551092999700,2.359999755859375,1.2306296825408936,1.5335017442703247,-0.6043896675109863
1733902551103026700,2.370026611328125,1.5232958793640137,1.3775979280471802,-0.5418437719345093
1733902551113053000,2.380052978515625,1.704458475112915,1.1556004285812378,-0.41530972719192505
1733902551123079700,2.39007958984375,1.7496182918548584,1.4301599264144897,-0.46143221855163574
1733902551133106000,2.40010595703125,1.6196855306625366,1.8356549739837646,-0.7650347352027893
1733902551143133000,2.4101328125,1.2969248294830322,2.347376823425293,-1.2372733354568481
1733902551153159000,2.420158935546875,0.983576774597168,2.582129716873169,-1.7028366327285767
1733902551163186000,2.43018603515625,0.7656719088554382,2.4938783645629883,-1.9693626165390015
1733902551173213000,2.440212890625,0.6477405428886414,2.381120204925537,-2.075731039047241
1733902551183239000,2.450239013671875,0.5631577372550964,2.1698977947235107,-2.074324131011963
1733902551193266000,2.460265869140625,0.5810387134552002,2.0005154609680176,-1.9687236547470093
1733902551203292000,2.4702919921875,0.6821213960647583,1.6767114400863647,-1.709236741065979
1733902551213319000,2.48031884765625,0.7732858657836914,1.2319612503051758,-1.3676265478134155
1733902551223346000,2.490345947265625,0.8719964623451233,0.7760578989982605,-1.0640934705734253
1733902551233372000,2.500371826171875,1.0490293502807617,1.0527384281158447,-0.850101113319397
1733902551243399000,2.51039892578125,1.389743447303772,1.0001181364059448,-0.7483420372009277
1733902551253425000,2.5204248046875,1.684039831161499,0.387349396944046,-0.6322633624076843
1733902551263452000,2.530451904296875,1.6753052473068237,-0.00857129693031311,-0.5050337314605713
1733902551273478000,2.540477783203125,1.2731202840805054,-0.016476783901453018,-0.49407491087913513
1733902551283505000,2.5505048828125,0.8633702993392944,-0.0727754756808281,-0.604925274848938
1733902551293532000,2.560531982421875,0.6197271347045898,-0.1561770737171173,-0.777999222278595
1733902551303558000,2.570557861328125,0.47227776050567627,-0.03681952506303787,-0.9792526960372925
1733902551313585000,2.5805849609375,0.44294121861457825,0.25231534242630005,-1.0204503536224365
1733902551323611000,2.59061083984375,0.5037334561347961,0.6175987124443054,-0.8108246922492981
1733902551333638000,2.600637939453125,0.5662121176719666,0.8219345211982727,-0.42411085963249207
1733902551343663900,2.610663818359375,0.6021370887756348,0.8406876921653748,-0.00473810825496912
1733902551353691000,2.62069091796875,0.6556162238121033,0.6771516799926758,0.3615793287754059
1733902551363718000,2.6307177734375,0.6789314150810242,0.36315807700157166,0.6518718600273132
1733902551373744000,2.640744140625,0.6097707748413086,-0.0964277982711792,0.925663411617279
1733902551383771000,2.65077099609375,0.4482170343399048,-0.2745269536972046,1.1828299760818481
1733902551393796900,2.660796875,0.2806433439254761,-0.16802442073822021,1.3407506942749023
1733902551403823900,2.670823974609375,0.18040809035301208,-0.045085709542036057,1.4076606035232544
1733902551413851000,2.680850830078125,0.17377565801143646,0.12989386916160583,1.4309256076812744
1733902551423877000,2.690877197265625,0.2143334597349167,0.42432576417922974,1.4793405532836914
1733902551433903900,2.70090380859375,0.2729804217815399,0.7212995886802673,1.5426032543182373
1733902551443929900,2.710929931640625,0.2562384605407715,0.7255244255065918,1.6240839958190918
1733902551453956900,2.720956787109375,0.16237536072731018,0.44766002893447876,1.7495661973953247
1733902551463982800,2.73098291015625,-0.04399139806628227,0.7357163429260254,1.9572821855545044
1733902551474010000,2.741010009765625,-0.14358791708946228,1.1602853536605835,1.9523972272872925
1733902551484036900,2.751036865234375,0.09587474167346954,1.4575833082199097,1.6851444244384766
1733902551494062800,2.761062744140625,0.49717211723327637,1.890625238418579,1.2238267660140991
1733902551504089900,2.77108984375,0.879740834236145,2.229051351547241,0.6603362560272217
1733902551514115800,2.78111572265625,1.131284475326538,2.3086602687835693,0.17287765443325043
1733902551524143000,2.79114306640625,1.2616851329803467,2.0493757724761963,-0.11603005230426788
1733902551534169900,2.801169921875,1.2320080995559692,1.7122761011123657,-0.2217913419008255
1733902551544195800,2.81119580078125,1.0560349225997925,1.461439609527588,-0.2072339653968811
1733902551554222800,2.821222900390625,0.6965516209602356,1.1607630252838135,-0.09757069498300552
1733902551564248800,2.831248779296875,0.18956482410430908,0.4768119752407074,0.18443621695041656
1733902551574276000,2.841276123046875,-0.38846927881240845,0.22520600259304047,0.4127310812473297
1733902551584301800,2.8513017578125,-0.9676740765571594,0.3163095712661743,0.45132216811180115
1733902551594328800,2.861328857421875,-1.4111032485961914,0.20773546397686005,0.41344547271728516
1733902551604355800,2.87135595703125,-1.6135424375534058,0.009928634390234947,0.3485117554664612
1733902551614381800,2.8813818359375,-1.6305761337280273,-0.0774165540933609,0.20045031607151031
1733902551624409000,2.8914091796875,-1.4802069664001465,-0.17781347036361694,0.056197527796030045
1733902551634434800,2.901434814453125,-1.2288669347763062,-0.2589435577392578,-0.05898839980363846
1733902551644461800,2.9114619140625,-0.9403344392776489,-0.10431323945522308,-0.1583927422761917
1733902551654487800,2.92148779296875,-0.7227296829223633,0.3094196021556854,-0.26554563641548157
1733902551664514800,2.931514892578125,-0.511822521686554,0.5933056473731995,-0.30887261033058167
1733902551674541800,2.941541748046875,-0.25681090354919434,0.5228639245033264,-0.2474190592765808
1733902551684567800,2.95156787109375,0.0058968993835151196,0.28332963585853577,-0.14545221626758575
1733902551694594800,2.9615947265625,0.25323957204818726,-0.10045397281646729,-0.005529466085135937
1733902551704620800,2.971620849609375,0.3987483084201813,-0.25364378094673157,0.05565479397773743
1733902551714648000,2.98164794921875,0.4620351493358612,-0.03087756782770157,-0.016644569113850594
1733902551724674800,2.9916748046875,0.44194477796554565,-0.08275941014289856,0.03127635270357132
1733902551734700800,3.00170068359375,0.3379368782043457,-0.07629336416721344,0.17902670800685883
1733902551744727800,3.011727783203125,0.25672775506973267,0.03953124210238457,0.23281456530094147
1733902551754753800,3.02175390625,0.35785168409347534,0.019328244030475616,0.2325689047574997
1733902551764781000,3.031781005859375,0.628726065158844,-0.04743240773677826,0.2181481570005417
1733902551774807000,3.04180712890625,0.9618147611618042,-0.20375899970531464,0.21444614231586456
1733902551784833800,3.051833740234375,1.2027183771133423,-0.2689949870109558,0.26076462864875793
1733902551794860800,3.06186083984375,1.4312540292739868,-0.29661867022514343,0.23902781307697296
1733902551804886800,3.07188671875,1.6935566663742065,-0.22907985746860504,0.16519567370414734
1733902551814914000,3.0819140625,1.9761401414871216,0.04634002596139908,0.07592063397169113
1733902551824940000,3.09193994140625,2.1592819690704346,0.2925604581832886,-0.0740041509270668
1733902551834966800,3.101966796875,2.1797001361846924,0.40428441762924194,-0.29894983768463135
1733902551844992800,3.11199267578125,2.0907223224639893,0.5165438652038574,-0.5739094614982605
1733902551855019800,3.122019775390625,1.9920575618743896,0.6615300178527832,-0.8816420435905457
1733902551865047000,3.132047119140625,1.9392677545547485,0.9406828284263611,-1.1227272748947144
1733902551875073000,3.142072998046875,1.9088163375854492,1.2080934047698975,-1.1858296394348145
1733902551885099800,3.152099853515625,1.8589215278625488,1.208673357963562,-1.0757290124893188
1733902551895125800,3.162125732421875,1.8458551168441772,0.980049192905426,-0.949321985244751
1733902551905152800,3.17215283203125,1.8742783069610596,0.6835312247276306,-0.9077255129814148
1733902551915179000,3.182178955078125,1.9374960660934448,0.6360676288604736,-0.9169443845748901
1733902551925206000,3.1922060546875,1.9018051624298096,0.5137899518013,-0.8005011081695557
1733902551935232800,3.202232666015625,1.848114013671875,0.5209230184555054,-0.7709925770759583
1733902551945258800,3.2122587890625,1.647804617881775,0.4796413779258728,-1.0676645040512085
1733902551955285800,3.22228564453125,1.3662713766098022,0.39361751079559326,-1.5025171041488647
1733902551965312000,3.23231201171875,1.0835442543029785,0.4813116788864136,-1.8764183521270752
1733902551975339000,3.242339111328125,0.8247992992401123,0.7482710480690002,-2.035216808319092
1733902551985365800,3.25236572265625,0.6432175040245056,1.0902856588363647,-1.9294761419296265
1733902551995391700,3.262391845703125,0.5401982665061951,1.295668601989746,-1.7590352296829224
1733902552005419000,3.2724189453125,0.47652795910835266,1.2574938535690308,-1.6529310941696167
1733902552015445000,3.282445068359375,0.4669012725353241,1.1779838800430298,-1.6334002017974854
1733902552025472000,3.292471923828125,0.5471985340118408,1.044392466545105,-1.5746324062347412
1733902552035498000,3.302498046875,0.5907712578773499,0.9590543508529663,-1.4269160032272339
1733902552045524700,3.312524658203125,0.5275073647499084,0.9109882712364197,-1.2777267694473267
1733902552055552000,3.322552001953125,0.4470686912536621,0.8633347153663635,-1.1032922267913818
1733902552065578000,3.332577880859375,0.36978214979171753,0.7897827625274658,-0.8627318143844604
1733902552075605000,3.34260498046875,0.2741391956806183,0.6990808248519897,-0.6237491965293884
1733902552085631000,3.352630859375,0.12994739413261414,0.5791927576065063,-0.4689452052116394
1733902552095657700,3.36265771484375,-0.029039692133665085,0.3965332508087158,-0.3935936391353607
1733902552105683700,3.37268359375,-0.22468562424182892,0.1630784124135971,-0.357746422290802
1733902552115711000,3.3827109375,-0.48801833391189575,-0.14690108597278595,-0.38942694664001465
1733902552125738000,3.392738037109375,-0.6801856160163879,-0.26371291279792786,-0.43139222264289856
1733902552135763500,3.402763427734375,-0.9577856063842773,-0.3578636348247528,-0.5178367495536804
1733902552145790500,3.41279052734375,-1.276204228401184,-0.6510470509529114,-0.7145205140113831
1733902552155816400,3.42281640625,-1.502457618713379,-0.8528212308883667,-0.866180956363678
1733902552165843500,3.432843505859375,-1.6476532220840454,-0.8476206064224243,-0.9218599200248718
1733902552175869400,3.442869384765625,-1.692307949066162,-0.8240306377410889,-0.8455982804298401
1733902552185896400,3.452896484375,-1.6882152557373047,-0.7707772850990295,-0.7042542099952698
1733902552195923500,3.46292333984375,-1.6364684104919434,-0.5690293908119202,-0.5028188824653625
1733902552205949400,3.472949462890625,-1.5151833295822144,-0.39198216795921326,-0.21024268865585327
1733902552215976400,3.4829765625,-1.4063917398452759,-0.3521634340286255,0.23363332450389862
1733902552226002400,3.49300244140625,-1.335233211517334,-0.44948893785476685,0.7381790280342102
1733902552236029400,3.503029541015625,-1.2389944791793823,-0.6452796459197998,1.11833655834198
1733902552246055400,3.513055419921875,-1.089208960533142,-0.8055404424667358,1.2519689798355103
1733902552256082400,3.52308251953125,-0.9251839518547058,-0.5811330676078796,1.1334596872329712
1733902552266109400,3.533109375,-0.7766820788383484,-0.2184869647026062,0.9287534356117249
1733902552276135400,3.543135498046875,-0.5686872601509094,0.09972236305475235,0.7183845043182373
1733902552286162400,3.553162353515625,-0.22117428481578827,0.49219241738319397,0.5415335297584534
1733902552296188700,3.563188720703125,0.18965306878089905,0.7711584568023682,0.357552170753479
1733902552306215400,3.57321533203125,0.5215785503387451,0.8754979372024536,0.21567760407924652
1733902552316242400,3.583242431640625,0.6923698782920837,0.9121200442314148,0.18398748338222504
1733902552326268400,3.593268310546875,0.7350097894668579,0.8904594779014587,0.23397128283977509
1733902552336295400,3.60329541015625,0.7301434278488159,0.7185704708099365,0.3207645118236542
1733902552346321700,3.61332177734375,0.716696560382843,0.22515682876110077,0.38820189237594604
1733902552356348400,3.623348388671875,0.6473904848098755,-0.4228937327861786,0.41234004497528076
1733902552366374400,3.63337451171875,0.505075991153717,-0.5723577737808228,0.5020177364349365
1733902552376401400,3.6434013671875,0.37808212637901306,-0.429088830947876,0.5887050032615662
1733902552386428700,3.6534287109375,0.26269614696502686,-0.3212214708328247,0.6704954504966736
1733902552396454700,3.66345458984375,0.2453623265028,-0.3955065608024597,0.655115008354187
1733902552406481400,3.6734814453125,0.27505791187286377,-0.3876209557056427,0.5156825184822083
1733902552416507400,3.68350732421875,0.29709744453430176,-0.24248002469539642,0.33313897252082825
1733902552426534400,3.693534423828125,0.28477632999420166,-0.0631432831287384,0.13518327474594116
1733902552436560400,3.703560302734375,0.24588458240032196,0.12064945697784424,-0.05607869476079941
1733902552446587600,3.713587646484375,0.19726324081420898,0.3576172888278961,-0.217657208442688
1733902552456614400,3.723614501953125,0.11859207600355148,0.680563747882843,-0.3462468087673187
1733902552466640400,3.733640380859375,-0.00010181032121181488,0.7388928532600403,-0.4198310077190399
1733902552476667400,3.74366748046875,-0.060410842299461365,0.5950005054473877,-0.42047765851020813
1733902552486693400,3.753693359375,-0.09536509215831757,0.5371068716049194,-0.34051892161369324
1733902552496720600,3.763720703125,-0.11771223694086075,0.5435259938240051,-0.2390790730714798
1733902552506746600,3.77374658203125,-0.1186472699046135,0.5032941699028015,-0.11718699336051941
1733902552516773400,3.7837734375,-0.0991944968700409,0.40501725673675537,-0.012039730325341225
1733902552526800400,3.79380029296875,-0.057883549481630325,0.2527366280555725,0.043859489262104034
1733902552536826400,3.803826416015625,-0.03548909351229668,0.23370347917079926,0.11653680354356766
1733902552546853600,3.813853515625,-0.058235421776771545,0.1425440013408661,0.22810406982898712
1733902552556879600,3.823879638671875,-0.06443588435649872,-0.044602010399103165,0.3389655351638794
1733902552566906400,3.83390625,-0.06361164152622223,-0.2205011248588562,0.44853195548057556
1733902552576932400,3.843932373046875,-0.05752788856625557,-0.316934198141098,0.5302395820617676
1733902552586959400,3.85395947265625,-0.05270304158329964,-0.3418581783771515,0.5697859525680542
1733902552596986600,3.863986572265625,-0.05012821406126022,-0.3371782600879669,0.5736767053604126
1733902552607012600,3.8740126953125,-0.04048970341682434,-0.31764504313468933,0.5495993494987488
1733902552617039400,3.884039306640625,-0.021366138011217117,-0.2791799306869507,0.5138906240463257
1733902552627065300,3.8940654296875,0.0069025177508592606,-0.23787055909633636,0.4794548749923706
1733902552637092600,3.904092529296875,0.04365592822432518,-0.2223951518535614,0.45413124561309814
1733902552647118600,3.91411865234375,0.08510377258062363,-0.23441027104854584,0.43395674228668213
1733902552657145600,3.9241455078125,0.12369708716869354,-0.24457602202892303,0.41819387674331665
1733902552667172400,3.93417236328125,0.15371625125408173,-0.23598413169384003,0.4008452296257019
1733902552677198300,3.9441982421875,0.16962546110153198,-0.22301481664180756,0.3790135681629181
1733902552687225600,3.9542255859375,0.16536518931388855,-0.21722270548343658,0.3462257981300354
1733902552697251600,3.96425146484375,0.13650460541248322,-0.19558469951152802,0.31173834204673767
1733902552707278600,3.974278564453125,0.09358882904052734,-0.15922297537326813,0.2794560194015503
1733902552717304600,3.9843046875,0.04834241047501564,-0.13111883401870728,0.24894832074642181
1733902552727331300,3.994331298828125,0.0072530340403318405,-0.12419168651103973,0.22767631709575653
1733902552737358600,4.004358642578125,-0.024203144013881683,-0.12197621166706085,0.2091517597436905
1733902552747384600,4.014384521484375,-0.045389920473098755,-0.11916817724704742,0.19144731760025024
1733902552757411600,4.02441162109375,-0.04962103068828583,-0.11480730772018433,0.17338447272777557
1733902552767437600,4.0344375,-0.03632333502173424,-0.09949013590812683,0.15009140968322754
1733902552777464300,4.04446435546875,-0.010753732174634933,-0.06587335467338562,0.12311279773712158
1733902552787490300,4.054490234375,0.014829393476247787,-0.0541360042989254,0.09010424464941025
1733902552797517600,4.064517578125,0.017117183655500412,-0.03891903534531593,0.04882674664258957
1733902552807544600,4.074544677734375,-0.004848301410675049,-0.02499549649655819,-0.0016026021912693977
1733902552817570600,4.084570556640625,-0.04053131863474846,0.00909355841577053,-0.07042244076728821
1733902552827597300,4.094597412109375,-0.0825543999671936,0.08225831389427185,-0.13594579696655273
1733902552837623600,4.10462353515625,-0.1114901602268219,0.14319676160812378,-0.1795370727777481
1733902552847650600,4.114650634765625,-0.11394239217042923,0.17632009088993073,-0.17958126962184906
1733902552857676500,4.124676513671875,-0.08388291299343109,0.1619621366262436,-0.1349477469921112
1733902552867703600,4.13470361328125,-0.03337739780545235,0.07766696065664291,-0.06077098473906517
1733902552877730300,4.144730224609375,0.028716666623950005,-0.04338373243808746,0.03024555929005146
1733902552887756500,4.154756591796875,0.09491033852100372,-0.1422693133354187,0.12458536773920059
1733902552897783600,4.164783447265625,0.15690359473228455,-0.20561255514621735,0.1904609203338623
1733902552907809500,4.1748095703125,0.22219817340373993,-0.25592127442359924,0.22609640657901764
1733902552917836500,4.18483642578125,0.29234814643859863,-0.2769452929496765,0.2461601048707962
1733902552927862500,4.194862548828125,0.3675832748413086,-0.2790167033672333,0.2491103559732437
1733902552937889500,4.2048896484375,0.43097275495529175,-0.30702975392341614,0.22883029282093048
1733902552947916500,4.21491650390625,0.4590299725532532,-0.33991846442222595,0.19305525720119476
1733902552957942500,4.224942626953125,0.4772666096687317,-0.36156854033470154,0.1428021639585495
1733902552967969500,4.234969482421875,0.49216192960739136,-0.35449492931365967,0.09408523142337799
1733902552977995500,4.24499560546875,0.49625515937805176,-0.32821059226989746,0.0520113930106163
1733902552988022500,4.2550224609375,0.4980256259441376,-0.30637186765670776,0.007497718092054129
1733902552998048500,4.265048583984375,0.4756050705909729,-0.2620963156223297,-0.045295171439647675
1733902553008075500,4.275075439453125,0.43645739555358887,-0.18942663073539734,-0.11811451613903046
1733902553018102500,4.2851025390625,0.3820185363292694,-0.07491741329431534,-0.21199063956737518
1733902553028128500,4.29512841796875,0.33317244052886963,0.04715442657470703,-0.3156525790691376
1733902553038155500,4.305155517578125,0.29805997014045715,0.16578242182731628,-0.39920666813850403
1733902553048181500,4.315181396484375,0.2876025140285492,0.25071728229522705,-0.45008155703544617
1733902553058208500,4.32520849609375,0.29916509985923767,0.28871622681617737,-0.4574543535709381
1733902553068234500,4.335234375,0.3298519253730774,0.27138519287109375,-0.4323332905769348
1733902553078261200,4.34526123046875,0.3648771643638611,0.21991658210754395,-0.393027126789093
1733902553088288500,4.35528857421875,0.4105471670627594,0.16711463034152985,-0.3356778025627136
1733902553098314500,4.365314453125,0.4713273346424103,0.10251449793577194,-0.27527621388435364
1733902553108341500,4.375341552734375,0.5407416224479675,0.015020865947008133,-0.20468538999557495
1733902553118367500,4.385367431640625,0.6059883236885071,-0.10388145595788956,-0.14630642533302307
1733902553128394200,4.395394287109375,0.6428243517875671,-0.18818488717079163,-0.10788527131080627
1733902553138421000,4.4054208984375,0.6723731160163879,-0.224872425198555,-0.10636495053768158
1733902553148448000,4.415447998046875,0.7002809047698975,-0.23030953109264374,-0.12975868582725525
1733902553158475000,4.42547509765625,0.7327660918235779,-0.21574600040912628,-0.1638791263103485
1733902553168501000,4.4355009765625,0.7619370222091675,-0.21024736762046814,-0.20662152767181396
1733902553178528000,4.445528076171875,0.7730081081390381,-0.18899379670619965,-0.2519819438457489
1733902553188554000,4.455553955078125,0.7645919919013977,-0.1460157036781311,-0.30809128284454346
1733902553198581000,4.4655810546875,0.7398273348808289,-0.09175955504179001,-0.36732256412506104
1733902553208607000,4.47560693359375,0.711197018623352,-0.05679304897785187,-0.4236425459384918
1733902553218634000,4.485634033203125,0.6949140429496765,-0.048135705292224884,-0.4656946361064911
1733902553228661000,4.495660888671875,0.6772090792655945,-0.04234546050429344,-0.4922708570957184
1733902553238687000,4.50568701171875,0.6455564498901367,-0.006251963786780834,-0.504749596118927
1733902553248714000,4.5157138671875,0.6112099289894104,0.0164932943880558,-0.510046660900116
1733902553258740000,4.525739990234375,0.5636078119277954,0.05326463282108307,-0.5113170742988586
1733902553268767000,4.53576708984375,0.5131542086601257,0.0868191346526146,-0.5080613493919373
1733902553278793200,4.545793212890625,0.4719805121421814,0.08753520995378494,-0.5052030086517334
1733902553288820000,4.555820068359375,0.43499958515167236,0.08434474468231201,-0.5037869811058044
1733902553298847000,4.565846923828125,0.40923523902893066,0.08597053587436676,-0.5002152323722839
1733902553308873000,4.575873046875,0.38997578620910645,0.08109482377767563,-0.5006291270256042
1733902553318900000,4.58589990234375,0.3763381242752075,0.06676028668880463,-0.5138027667999268
1733902553328926200,4.59592626953125,0.3529649078845978,0.08168970048427582,-0.5239853858947754
1733902553338953000,4.605952880859375,0.3314306437969208,0.11119110882282257,-0.5334181785583496
1733902553348979000,4.61597900390625,0.3111967444419861,0.1342218667268753,-0.5348531007766724
1733902553359006000,4.626005859375,0.3081527352333069,0.12941859662532806,-0.5297159552574158
1733902553369032000,4.636031982421875,0.3117828965187073,0.10008067637681961,-0.5181804895401001
1733902553379059200,4.64605908203125,0.31142210960388184,0.0694751963019371,-0.5065977573394775
1733902553389086000,4.6560859375,0.2989417314529419,0.05735994502902031,-0.4867825508117676
1733902553399112000,4.66611181640625,0.2774854302406311,0.05602797120809555,-0.45826733112335205
1733902553409139000,4.676138916015625,0.2529846131801605,0.020852670073509216,-0.43027350306510925
1733902553419165000,4.6861650390625,0.23332029581069946,-0.02568976767361164,-0.40169888734817505
1733902553429192200,4.696192138671875,0.2033916860818863,-0.05775662511587143,-0.3773256540298462
1733902553439218000,4.706218017578125,0.16016267240047455,-0.08022687584161758,-0.36244210600852966
1733902553449245000,4.716244873046875,0.09796959161758423,-0.07890275120735168,-0.3727794289588928
1733902553459272000,4.72627197265625,0.028740428388118744,-0.029921486973762512,-0.4111664593219757
1733902553469298000,4.7362978515625,-0.029922351241111755,0.04949956759810448,-0.4693794250488281
1733902553479325200,4.7463251953125,-0.051291950047016144,0.1221071258187294,-0.5272840857505798
1733902553489351000,4.756350830078125,-0.04291471093893051,0.17664653062820435,-0.5545814633369446
1733902553499378000,4.7663779296875,-0.015617703087627888,0.20479275286197662,-0.5394056439399719
1733902553509404000,4.77640380859375,0.010837073437869549,0.20409846305847168,-0.4889688193798065
1733902553519431000,4.786430908203125,0.034884434193372726,0.12380784004926682,-0.4103009104728699
1733902553529458000,4.7964580078125,0.02871229313313961,0.016051819548010826,-0.3098190426826477
1733902553539484000,4.80648388671875,0.0021951377857476473,-0.05930788442492485,-0.21777033805847168
1733902553549511000,4.816510986328125,-0.01885848119854927,-0.05435307323932648,-0.16493268311023712
1733902553559537000,4.826536865234375,-0.018566196784377098,-0.008759025484323502,-0.16408829391002655
1733902553569564000,4.83656396484375,-0.010445952415466309,0.0533384345471859,-0.2015073150396347
1733902553579590100,4.846590087890625,-0.003964801784604788,0.11381837725639343,-0.24786020815372467
1733902553589617000,4.856616943359375,-0.0033472147770226,0.14993536472320557,-0.28140005469322205
1733902553599644000,4.866643798828125,0.0026645443867892027,0.1442657858133316,-0.2831186056137085
1733902553609670000,4.876669921875,0.017594758421182632,0.11241013556718826,-0.25735971331596375
1733902553619697200,4.886697265625,0.03925669938325882,0.06995705515146255,-0.2170746624469757
1733902553629723100,4.89672314453125,0.058241039514541626,0.018745530396699905,-0.16323965787887573
1733902553639750000,4.90675,0.06770864129066467,-0.027962882071733475,-0.10200425982475281
1733902553649775900,4.91677587890625,0.0654449537396431,-0.058710675686597824,-0.04498597979545593
1733902553659803000,4.926802978515625,0.05346592515707016,-0.06079333648085594,0.0009619719348847866
1733902553669830100,4.936830078125,0.03988593444228172,-0.03538278490304947,0.03131162375211716
1733902553679856000,4.946856201171875,0.038892049342393875,-0.011092228814959526,0.03377164900302887
1733902553689883000,4.9568828125,0.04072856530547142,0.006054534111171961,0.024726757779717445
1733902553699908900,4.966908935546875,0.03747376427054405,0.022990450263023376,0.01494945865124464
1733902553709935900,4.976935791015625,0.03280790522694588,0.03967568650841713,0.009712619706988335
1733902553719961900,4.9869619140625,0.033445727080106735,0.05330934748053551,0.007448332384228706
1733902553729989000,4.996989013671875,0.03273945674300194,0.06221415847539902,0.002747054910287261
1733902553740015900,5.007015869140625,0.02301667258143425,0.06985735893249512,-0.003231974085792899
1733902553750041900,5.017041748046875,0.0000019010622054338455,0.07563614845275879,-0.015026847831904888
1733902553760068900,5.02706884765625,-0.04068729653954506,0.08112430572509766,-0.025152537971735
1733902553770094800,5.0370947265625,-0.08997815102338791,0.06881330907344818,-0.040574103593826294
1733902553780122000,5.0471220703125,-0.13597914576530457,0.04109257087111473,-0.050430260598659515
1733902553790148000,5.057148193359375,-0.1627873182296753,0.022452574223279953,-0.05924505740404129
1733902553800174800,5.0671748046875,-0.1745571792125702,0.0052954345010221004,-0.05868033692240715
1733902553810201900,5.077201904296875,-0.17651966214179993,-0.007470694370567799,-0.046780265867710114
1733902553820228000,5.08722802734375,-0.17653964459896088,-0.034503910690546036,-0.025604940950870514
1733902553830255000,5.097255126953125,-0.17369778454303741,-0.05193429812788963,-0.0027211965061724186
1733902553840281000,5.107281005859375,-0.1630658358335495,-0.04865651577711105,0.003058012807741761
1733902553850307800,5.117307861328125,-0.1475297510623932,-0.018384899944067,-0.017774565145373344
1733902553860333800,5.127333740234375,-0.12143304944038391,0.03369048982858658,-0.06597375124692917
1733902553870361000,5.137361083984375,-0.08274077624082565,0.07298276573419571,-0.12422693520784378
1733902553880387000,5.147386962890625,-0.042639631778001785,0.09853456169366837,-0.1704510748386383
1733902553890414000,5.1574140625,-0.00860496424138546,0.09888769686222076,-0.1795034259557724
1733902553900440800,5.16744091796875,0.025698576122522354,0.05621885508298874,-0.1445794403553009
1733902553910466800,5.177466796875,0.04469357430934906,-0.03150487318634987,-0.07034008949995041
1733902553920494000,5.187494140625,0.04506358504295349,-0.1374003291130066,0.021626953035593033
1733902553930520000,5.19752001953125,0.03760780021548271,-0.21295180916786194,0.10697300732135773
1733902553940547000,5.207547119140625,0.03398803621530533,-0.21684283018112183,0.15012800693511963
1733902553950573000,5.217572998046875,0.040999606251716614,-0.1849871575832367,0.13831502199172974
1733902553960599800,5.227599853515625,0.053034767508506775,-0.1349257528781891,0.09032706916332245
1733902553970627000,5.237626953125,0.0796021893620491,-0.08701175451278687,0.03742896765470505
1733902553980653000,5.247653076171875,0.10913152247667313,-0.0656019076704979,0.00002958253026008606
1733902553990680000,5.25768017578125,0.13399426639080048,-0.06325086951255798,-0.014688377268612385
1733902554000706000,5.2677060546875,0.15028218924999237,-0.06183754652738571,-0.014507001265883446
1733902554010732800,5.27773291015625,0.15358105301856995,-0.06988002359867096,-0.013114167377352715
1733902554020758800,5.2877587890625,0.14413096010684967,-0.06918447464704514,-0.011753658764064312
1733902554030786000,5.2977861328125,0.13652603328227997,-0.05716536566615105,-0.014097772538661957
1733902554040813000,5.30781298828125,0.13517510890960693,-0.04178006201982498,-0.025294216349720955
1733902554050839000,5.317839111328125,0.13889740407466888,-0.015456045977771282,-0.04353953152894974
1733902554060865800,5.32786572265625,0.14128991961479187,0.009161978960037231,-0.06852452456951141
1733902554070892000,5.33789208984375,0.1414065659046173,0.028927961364388466,-0.09176459908485413
1733902554080919000,5.3479189453125,0.13601700961589813,0.040048446506261826,-0.10547877848148346
1733902554090945000,5.357945068359375,0.12753990292549133,0.0403166264295578,-0.10256820917129517
1733902554100972000,5.367971923828125,0.11705882102251053,0.03256068006157875,-0.07196301221847534
1733902554110998000,5.377998046875,0.11199828237295151,-0.0098988963291049,-0.02112380415201187
1733902554121025000,5.38802490234375,0.10818322747945786,-0.06465691328048706,0.036678627133369446
1733902554131052000,5.398052001953125,0.1078796237707138,-0.09483452141284943,0.07301586121320724
1733902554141078000,5.408078125,0.11596608906984329,-0.10412444174289703,0.07301001250743866
1733902554151105000,5.41810498046875,0.12802301347255707,-0.10177580267190933,0.04790758714079857
1733902554161131000,5.428131103515625,0.13967518508434296,-0.09928949177265167,0.020494475960731506
1733902554172411000,5.439410888671875,0.14467446506023407,-0.11440373212099075,0.0007612528279423714
1733902554183064000,5.45006396484375,0.13796542584896088,-0.13959631323814392,0.007855313830077648
1733902554193090800,5.4600908203125,0.12297715991735458,-0.16785404086112976,0.029658615589141846
1733902554203118000,5.4701181640625,0.10059140622615814,-0.1873323917388916,0.05607464164495468
1733902554213144000,5.48014404296875,0.07749274373054504,-0.19664733111858368,0.07049139589071274
1733902554223171000,5.490171142578125,0.054790597409009933,-0.20018187165260315,0.0683419480919838
1733902554233197000,5.500197021484375,0.030436787754297256,-0.2009456604719162,0.05381440371274948
1733902554243223800,5.510223876953125,0.00795413926243782,-0.19562865793704987,0.036276835948228836
1733902554253249800,5.520249755859375,-0.005357138812541962,-0.20330975949764252,0.025659875944256783
1733902554263277000,5.530277099609375,-0.012486285530030727,-0.23105649650096893,0.03393954411149025
1733902554273304000,5.540303955078125,-0.018016871064901352,-0.25902101397514343,0.05095714330673218
1733902554283330000,5.550330078125,-0.03282252326607704,-0.2712049186229706,0.0611712820827961
1733902554293356800,5.560356689453125,-0.06010500714182854,-0.2561018764972687,0.050869643688201904
1733902554303382800,5.5703828125,-0.09280107915401459,-0.19988180696964264,0.02383844181895256
1733902554313410000,5.58041015625,-0.11693491041660309,-0.11483483016490936,-0.016368631273508072
1733902554323436000,5.59043603515625,-0.12882140278816223,-0.05620293691754341,-0.0519922710955143
1733902554333463000,5.600463134765625,-0.13739599287509918,-0.03566250577569008,-0.07167782634496689
1733902554343489000,5.610489013671875,-0.13426075875759125,-0.03132229298353195,-0.07414022088050842
1733902554353515800,5.620515869140625,-0.13372918963432312,-0.04543464630842209,-0.06784716993570328
1733902554363543000,5.63054296875,-0.13003133237361908,-0.0827583521604538,-0.05817481875419617
1733902554373569000,5.640569091796875,-0.1200127974152565,-0.10443008691072464,-0.050089459866285324
1733902554383596000,5.650595947265625,-0.09707478433847427,-0.10509344935417175,-0.05220669135451317
1733902554393622000,5.6606220703125,-0.07476388663053513,-0.10339541733264923,-0.06495977193117142
1733902554403649000,5.67064892578125,-0.05525115877389908,-0.09680277109146118,-0.0721733421087265
1733902554413675000,5.680675048828125,-0.04129459708929062,-0.08699088543653488,-0.06870164722204208
1733902554423702000,5.690701904296875,-0.022019265219569206,-0.07930509001016617,-0.04977011680603027
1733902554433729000,5.70072900390625,-0.01030455157160759,-0.08447349071502686,-0.014664060436189175
1733902554443755000,5.710755126953125,-0.005587429739534855,-0.09600676596164703,0.029425736516714096
1733902554453782000,5.720781982421875,-0.00624949112534523,-0.11089304089546204,0.06502074748277664
1733902554463808000,5.73080810546875,-0.007613940630108118,-0.11961377412080765,0.07779869437217712
1733902554473835000,5.7408349609375,-0.015206079930067062,-0.1099691316485405,0.06474947184324265
1733902554483861000,5.750861083984375,-0.03099996969103813,-0.07767244428396225,0.0324539840221405
1733902554493888000,5.760887939453125,-0.04409553110599518,-0.008984990417957306,-0.0071496181190013885
1733902554503915000,5.7709150390625,-0.044573113322257996,0.057047732174396515,-0.04197971895337105
1733902554523341000,5.790341064453125,-0.04907240346074104,0.12083849310874939,-0.05871520936489105
1733902554533367000,5.800366943359375,-0.053899917751550674,0.12160202115774155,-0.04017188400030136
1733902554543394000,5.81039404296875,-0.059323396533727646,0.10187356919050217,-0.008147486485540867
1733902554553420000,5.820419921875,-0.06369977444410324,0.08128653466701508,0.029580717906355858
1733902554563447000,5.830447021484375,-0.07029777020215988,0.06119406223297119,0.06030414253473282
1733902554573473000,5.84047314453125,-0.07614047825336456,0.05533217638731003,0.0815172865986824
1733902554583500000,5.8505,-0.0743517205119133,0.05857408419251442,0.08847130089998245
1733902554593527000,5.860527099609375,-0.0649196058511734,0.06796546280384064,0.08452262729406357
1733902554603553000,5.870552978515625,-0.056806109845638275,0.08363793790340424,0.07353946566581726
1733902554613580000,5.880580078125,-0.05014847591519356,0.11222857236862183,0.06071794405579567
1733902554623606000,5.89060595703125,-0.04277332127094269,0.13347363471984863,0.05620923265814781
1733902554633633000,5.900633056640625,-0.03754740208387375,0.13217560946941376,0.06341388076543808
1733902554643658800,5.91065869140625,-0.03968197479844093,0.10150867700576782,0.08269841223955154
1733902554653686000,5.92068603515625,-0.042034346610307693,0.06792621314525604,0.10774490982294083
1733902554663713000,5.930713134765625,-0.04015658050775528,0.050836462527513504,0.126397967338562
1733902554673739000,5.940739013671875,-0.03384382277727127,0.03963760286569595,0.1338910311460495
1733902554683766000,5.95076611328125,-0.028238525614142418,0.039501577615737915,0.12842857837677002
1733902554693791700,5.960791748046875,-0.022634968161582947,0.04908948764204979,0.1163753792643547
1733902554703819000,5.970819091796875,-0.022452758625149727,0.058878712356090546,0.10183972865343094
1733902554713845000,5.980844970703125,-0.02313186414539814,0.06448307633399963,0.08896973729133606
1733902554723872000,5.9908720703125,-0.0269489549100399,0.06432313472032547,0.07661154121160507
1733902554733898800,6.000898681640625,-0.03339460492134094,0.07466951757669449,0.06243420019745827
1733902554743925000,6.010925048828125,-0.03483060747385025,0.10020232200622559,0.043249841779470444
1733902554753952000,6.020951904296875,-0.04161900654435158,0.12316249310970306,0.024036996066570282
1733902554763978000,6.03097802734375,-0.05095268785953522,0.13321557641029358,0.005775619298219681
1733902554774005000,6.0410048828125,-0.0643039122223854,0.1506081521511078,-0.007825677283108234
1733902554784031000,6.051031005859375,-0.0691116526722908,0.16193987429141998,-0.010477902367711067
1733902554794058000,6.06105810546875,-0.0727601870894432,0.14342477917671204,-0.009341797791421413
1733902554804085000,6.0710849609375,-0.07472265511751175,0.12103051692247391,-0.001383074326440692
1733902554814111000,6.081111083984375,-0.07067358493804932,0.10554397106170654,0.002969329943880439
1733902554824138000,6.091137939453125,-0.05558645725250244,0.10279382765293121,0.00021636998280882835
1733902554834164000,6.1011640625,-0.033998340368270874,0.09806671738624573,-0.006401052698493004
1733902554844191000,6.11119091796875,-0.011638707481324673,0.09311776608228683,-0.016694970428943634
1733902554854217000,6.121217041015625,0.008482540026307106,0.08376447856426239,-0.028088506311178207
1733902554864244000,6.131243896484375,0.01719680428504944,0.07668492197990417,-0.03916629031300545
1733902554874271000,6.14127099609375,0.022069323807954788,0.07178577780723572,-0.04849747195839882
1733902554884297000,6.151296875,0.02276444248855114,0.07385636866092682,-0.054852042347192764
1733902554894324000,6.161323974609375,0.01916304975748062,0.07625934481620789,-0.0673595741391182
1733902554904350000,6.171349853515625,0.015749521553516388,0.08856748044490814,-0.07600263506174088
1733902554914377000,6.181376953125,0.015116488561034203,0.10713930428028107,-0.08952510356903076
1733902554924403000,6.19140283203125,0.018446948379278183,0.11980374157428741,-0.10329019278287888
1733902554934430000,6.201429931640625,0.020525014027953148,0.12592236697673798,-0.11135105043649673
1733902554944457000,6.21145703125,0.021677834913134575,0.14356663823127747,-0.11266747117042542
1733902554954483000,6.22148291015625,0.026237698271870613,0.18357929587364197,-0.09926404803991318
1733902554964510000,6.231510009765625,0.03576333075761795,0.204656183719635,-0.08414708077907562
1733902554974536000,6.241535888671875,0.04778777062892914,0.15801171958446503,-0.06725677847862244
1733902554984563000,6.25156298828125,0.04642140120267868,0.0744045302271843,-0.04530717432498932
1733902554994589200,6.261589111328125,0.03317270427942276,0.010614634491503239,-0.01685848832130432
1733902555004616000,6.271615966796875,0.014325501397252083,-0.012632091529667377,0.009893365204334259
1733902555014643000,6.281642822265625,-0.0002872627228498459,-0.01538127288222313,0.02747954986989498
1733902555024669000,6.2916689453125,-0.010246168822050095,-0.012337272986769676,0.03605211526155472
1733902555034696000,6.301696044921875,-0.016702469438314438,-0.018507815897464752,0.043484997004270554
1733902555044722200,6.31172216796875,-0.024502580985426903,-0.015074347145855427,0.04894735664129257
1733902555054749000,6.3217490234375,-0.03441327065229416,-0.009263329207897186,0.0507495179772377
1733902555064775000,6.33177490234375,-0.048667747527360916,-0.009834357537329197,0.054180748760700226
1733902555074802000,6.341802001953125,-0.06476149708032608,-0.011016800999641418,0.06692077964544296
1733902555084829200,6.3518291015625,-0.08769656717777252,0.00029001454822719097,0.08799445629119873
1733902555094855200,6.361855224609375,-0.105218306183815,0.014003962278366089,0.12294737249612808
1733902555104882000,6.3718818359375,-0.12361603230237961,0.010039087384939194,0.16338972747325897
1733902555114908000,6.381907958984375,-0.14415405690670013,0.0024275064934045076,0.2171536237001419
1733902555124935000,6.391934814453125,-0.1666443943977356,-0.020102204754948616,0.2648594379425049
1733902555134961400,6.40196142578125,-0.19181792438030243,-0.06431174278259277,0.2956266701221466
1733902555144988400,6.411988525390625,-0.22434699535369873,-0.09568170458078384,0.294276624917984
1733902555155015400,6.422015380859375,-0.25575125217437744,-0.08022737503051758,0.25806349515914917
1733902555165041400,6.43204150390625,-0.2837207615375519,-0.0038956289645284414,0.19111576676368713
1733902555175068400,6.442068359375,-0.30338871479034424,0.09033393114805222,0.10978362709283829
1733902555185094400,6.452094482421875,-0.3088931441307068,0.1718459576368332,0.030679436400532722
1733902555195121400,6.462121337890625,-0.31222742795944214,0.24236299097537994,-0.02727600932121277
1733902555205147400,6.4721474609375,-0.3089960217475891,0.29474684596061707,-0.060845036059617996
1733902555215174400,6.48217431640625,-0.3002549707889557,0.33261221647262573,-0.06496813893318176
1733902555225201400,6.492201416015625,-0.27868539094924927,0.33807629346847534,-0.0345052070915699
1733902555235227400,6.502227294921875,-0.2481895387172699,0.2751391530036926,0.029188551008701324
1733902555245254400,6.51225439453125,-0.22516238689422607,0.19973964989185333,0.12730689346790314
1733902555255280400,6.5222802734375,-0.21387644112110138,0.13005004823207855,0.2502996623516083
1733902555265307400,6.532307373046875,-0.20664936304092407,0.046249136328697205,0.3786158263683319
1733902555275333400,6.54233349609375,-0.19962739944458008,-0.04602779820561409,0.4817453920841217
1733902555285360400,6.5523603515625,-0.204751655459404,-0.09956662356853485,0.5384110808372498
1733902555295387400,6.562387451171875,-0.21377310156822205,-0.11051168292760849,0.5564814209938049
1733902555305413000,6.5724130859375,-0.23025886714458466,-0.08455665409564972,0.5457391142845154
1733902555315440400,6.5824404296875,-0.2468080222606659,-0.026268312707543373,0.5124834179878235
1733902555325466400,6.59246630859375,-0.2641417682170868,0.04364567622542381,0.4660087823867798
1733902555335493400,6.602493408203125,-0.2795087397098541,0.11896732449531555,0.4114467203617096
1733902555345519400,6.612519287109375,-0.29118064045906067,0.18796320259571075,0.35578596591949463
1733902555355546400,6.62254638671875,-0.30081063508987427,0.2718016505241394,0.3077034056186676
1733902555365572400,6.632572265625,-0.3018561899662018,0.37515121698379517,0.2672356069087982
1733902555375599400,6.642599365234375,-0.2978878617286682,0.4481431543827057,0.2286931276321411
1733902555385626400,6.65262646484375,-0.29195332527160645,0.48384925723075867,0.20985259115695953
1733902555395652400,6.66265234375,-0.2837902009487152,0.4951642155647278,0.21550461649894714
1733902555405679400,6.672679443359375,-0.2807588577270508,0.5097987651824951,0.24769693613052368
1733902555415705300,6.682705322265625,-0.2740442454814911,0.5107553601264954,0.29488706588745117
1733902555425732400,6.692732421875,-0.2640385925769806,0.46082714200019836,0.34614259004592896
1733902555435758300,6.70275830078125,-0.2476564198732376,0.390283465385437,0.4001208543777466
1733902555445785300,6.712785400390625,-0.22618471086025238,0.33590877056121826,0.46382465958595276
1733902555455812400,6.722812255859375,-0.20315289497375488,0.30958741903305054,0.5325848460197449
1733902555465838300,6.73283837890625,-0.17031487822532654,0.2680497467517853,0.6035477519035339
1733902555475865300,6.742865234375,-0.14360018074512482,0.17841202020645142,0.6703384518623352
1733902555485891300,6.752891357421875,-0.12024927884340286,0.051955386996269226,0.7216874957084656
1733902555495918300,6.76291845703125,-0.10397230833768845,-0.03210143372416496,0.754155158996582
1733902555505944300,6.7729443359375,-0.0975213348865509,-0.027630914002656937,0.7620449662208557
1733902555515971300,6.782971435546875,-0.08581674098968506,0.032431356608867645,0.7468966245651245
1733902555525998300,6.792998291015625,-0.07108567655086517,0.0852426066994667,0.7124564051628113
1733902555536024300,6.8030244140625,-0.05566730350255966,0.11191576719284058,0.6612416505813599
1733902555546051300,6.81305126953125,-0.05563127249479294,0.15364347398281097,0.6089013814926147
1733902555556077300,6.823077392578125,-0.07499697804450989,0.21339628100395203,0.5627783536911011
1733902555566104300,6.833104248046875,-0.10414400696754456,0.282017320394516,0.5185846090316772
1733902555576130300,6.84313037109375,-0.1328856348991394,0.37904879450798035,0.4811091125011444
1733902555586157300,6.8531572265625,-0.15701881051063538,0.45032185316085815,0.44255271553993225
1733902555596184300,6.863184326171875,-0.1698906570672989,0.4721618890762329,0.41074684262275696
1733902555606210600,6.87321044921875,-0.18559931218624115,0.4929597079753876,0.39273807406425476
1733902555616237300,6.8832373046875,-0.1983148455619812,0.517547607421875,0.38706472516059875
1733902555626263300,6.89326318359375,-0.20068153738975525,0.5104058980941772,0.381075918674469
1733902555636290300,6.903290283203125,-0.19525881111621857,0.5258117318153381,0.38229644298553467
1733902555646316300,6.91331640625,-0.16355882585048676,0.5600189566612244,0.3915729224681854
1733902555656343600,6.923343505859375,-0.1118447557091713,0.5635346174240112,0.3988979458808899
1733902555666369500,6.93336962890625,-0.0481460765004158,0.4918586015701294,0.40940847992897034
1733902555676396300,6.943396240234375,-0.00166832166723907,0.39096102118492126,0.4333431124687195
1733902555686423300,6.95342333984375,0.018057996407151222,0.3191863000392914,0.46807998418807983
1733902555696449300,6.96344921875,0.023668210953474045,0.2914374768733978,0.503997802734375
1733902555706476500,6.9734765625,0.030164800584316254,0.29377543926239014,0.5348871350288391
1733902555716502500,6.98350244140625,0.05031853914260864,0.2569955885410309,0.5404779314994812
1733902555726529300,6.993529296875,0.061982251703739166,0.23300030827522278,0.5387871265411377
1733902555736555300,7.00355517578125,0.04817322641611099,0.26036134362220764,0.5397751927375793
1733902555746582300,7.013582275390625,0.021104250103235245,0.2966562807559967,0.5390085577964783
1733902555756609500,7.023609619140625,0.0042890515178442,0.28538978099823,0.5386698246002197
1733902555766635500,7.033635498046875,-0.016294991597533226,0.22153034806251526,0.5412033200263977
1733902555776662300,7.043662353515625,-0.054616279900074005,0.18264232575893402,0.5451285243034363
1733902555786688300,7.053688232421875,-0.08560966700315475,0.15379326045513153,0.5442771911621094
1733902555796715300,7.06371533203125,-0.10306376218795776,0.10587554425001144,0.5308247804641724
1733902555806741200,7.0737412109375,-0.11714868992567062,0.0786156952381134,0.5167737007141113
1733902555816768500,7.0837685546875,-0.12466785311698914,0.0646764412522316,0.5063074231147766
1733902555826795300,7.093795166015625,-0.11906517297029495,0.06466089189052582,0.4954477846622467
1733902555836821200,7.1038212890625,-0.09622962772846222,0.05908769741654396,0.4920820891857147
1733902555846848300,7.11384814453125,-0.04769476503133774,0.02789364941418171,0.4910207688808441
1733902555856874500,7.12387451171875,0.0032629568595439196,-0.009805260226130486,0.4978099465370178
1733902555866901500,7.133901611328125,0.043082114309072495,-0.005304836668074131,0.5196730494499207
1733902555876927500,7.143927490234375,0.07583420723676682,0.011571348644793034,0.5385196805000305
1733902555886954200,7.153954345703125,0.09751030802726746,0.018297510221600533,0.5476552248001099
1733902555896981200,7.163981201171875,0.11153504252433777,0.006488521583378315,0.5439004302024841
1733902555907007500,7.174007568359375,0.11985865980386734,-0.0028910846449434757,0.526931881904602
1733902555917034500,7.184034423828125,0.11231125891208649,0.028881225734949112,0.5084465742111206
1733902555927060500,7.194060546875,0.10769987106323242,0.09085345268249512,0.48292702436447144
1733902555937087200,7.204087158203125,0.09038373082876205,0.11631886661052704,0.4416203200817108
1733902555947113200,7.21411328125,0.07031567394733429,0.10133089125156403,0.3931221663951874
1733902555957140500,7.224140380859375,0.05286877229809761,0.07448862493038177,0.33568763732910156
1733902555967166500,7.23416650390625,0.04810888692736626,0.04168222099542618,0.26233547925949097
1733902555977193500,7.244193359375,0.05599797144532204,0.02315727062523365,0.18398717045783997
1733902555987220200,7.25422021484375,0.07169849425554276,0.04217231646180153,0.11312653869390488
1733902555997246200,7.26424609375,0.0987495556473732,0.08272373676300049,0.055415838956832886
1733902556007273500,7.2742734375,0.13540823757648468,0.11914751678705215,0.0161223653703928
1733902556017299500,7.284299560546875,0.17154520750045776,0.10941765457391739,-0.007619983050972223
1733902556027326500,7.294326416015625,0.18964019417762756,0.0517917163670063,-0.014995507895946503
1733902556037352400,7.3043525390625,0.18580684065818787,-0.035686466842889786,-0.01840542070567608
1733902556047379200,7.314379150390625,0.17218758165836334,-0.11338773369789124,-0.01757647469639778
1733902556057406500,7.324406494140625,0.1557987630367279,-0.1447906643152237,-0.01010684110224247
1733902556067432400,7.334432373046875,0.13110525906085968,-0.12923921644687653,0.001615228597074747
1733902556077459500,7.34445947265625,0.11360323429107666,-0.09075973182916641,0.004451495595276356
1733902556087485400,7.3544853515625,0.09797047823667526,-0.03856603056192398,-0.0008330153068527579
1733902556097512200,7.36451220703125,0.07678636908531189,-0.008370842784643173,-0.013632699847221375
1733902556107538400,7.374538330078125,0.05533483624458313,0.020058687776327133,-0.02934282273054123
1733902556117565400,7.3845654296875,0.03961153328418732,0.05072711780667305,-0.05494192615151405
1733902556127591400,7.39459130859375,0.03280400484800339,0.09142245352268219,-0.08019594848155975
1733902556137617400,7.404617431640625,0.04275517165660858,0.11753235757350922,-0.10740412771701813
1733902556147644200,7.41464404296875,0.05382617563009262,0.1288890242576599,-0.13019193708896637
1733902556157670100,7.424670166015625,0.05528745427727699,0.118443563580513,-0.14359164237976074
1733902556167697200,7.434697265625,0.05732574313879013,0.08724308758974075,-0.14060211181640625
1733902556177723100,7.44472314453125,0.06336898356676102,0.060419462621212006,-0.1254892200231552
1733902556187750400,7.45475048828125,0.07465151697397232,0.02296154387295246,-0.10644015669822693
1733902556197776400,7.4647763671875,0.08455608040094376,-0.020395783707499504,-0.09447696805000305
1733902556207803100,7.47480322265625,0.0958857387304306,-0.06359294056892395,-0.09468807280063629
1733902556217830100,7.484830078125,0.10019925981760025,-0.099835105240345,-0.1037561371922493
1733902556227856100,7.494856201171875,0.0953889936208725,-0.11771086603403091,-0.11420406401157379
1733902556237883400,7.50488330078125,0.09268321841955185,-0.11776786297559738,-0.12710627913475037
1733902556247909400,7.514909423828125,0.09303103387355804,-0.1326039433479309,-0.14249715209007263
1733902556257936100,7.52493603515625,0.09016414731740952,-0.1533805876970291,-0.15832218527793884
1733902556267962000,7.534962158203125,0.08467231690883636,-0.17294278740882874,-0.168851837515831
1733902556277989000,7.544989013671875,0.06819134205579758,-0.19517138600349426,-0.1881493628025055
1733902556288016400,7.555016357421875,0.037382692098617554,-0.22474917769432068,-0.2179657518863678
1733902556298042400,7.56504248046875,0.005868975073099136,-0.21408241987228394,-0.24563784897327423
1733902556308069000,7.575069091796875,-0.010570056736469269,-0.16485728323459625,-0.2713817358016968
1733902556318095000,7.58509521484375,-0.015036443248391151,-0.10935327410697937,-0.28951627016067505
1733902556328122000,7.5951220703125,-0.02316988632082939,-0.08475890755653381,-0.2893402874469757
1733902556338148000,7.605148193359375,-0.04048202931880951,-0.09662701934576035,-0.27247074246406555
1733902556348175400,7.61517529296875,-0.052995167672634125,-0.12354811280965805,-0.2535794675350189
1733902556358201300,7.625201416015625,-0.05975054204463959,-0.14410212635993958,-0.243149995803833
1733902556368228000,7.63522802734375,-0.07023392617702484,-0.18733808398246765,-0.25166434049606323
1733902556378255000,7.645255126953125,-0.08978366106748581,-0.24071314930915833,-0.28282439708709717
1733902556388281300,7.65528125,-0.11516638100147247,-0.27430954575538635,-0.33067697286605835
1733902556398308400,7.665308349609375,-0.1418917328119278,-0.2504361569881439,-0.37915316224098206
1733902556408334300,7.675334228515625,-0.15428242087364197,-0.18994268774986267,-0.4211653470993042
1733902556418361000,7.685361083984375,-0.1577213704586029,-0.12538260221481323,-0.45279598236083984
1733902556428387000,7.695386962890625,-0.1539255678653717,-0.07435603439807892,-0.4592740833759308
1733902556438414300,7.705414306640625,-0.15015186369419098,-0.05975072458386421,-0.4445507824420929
1733902556448441300,7.71544140625,-0.15554454922676086,-0.08668351918458939,-0.40426379442214966
1733902556458467300,7.72546728515625,-0.17104680836200714,-0.11452287435531616,-0.3550483286380768
1733902556468494000,7.735494140625,-0.18533070385456085,-0.11589611321687698,-0.3089711666107178
1733902556478520000,7.74552001953125,-0.1953710913658142,-0.10896044224500656,-0.28159254789352417
1733902556488547300,7.75554736328125,-0.20334623754024506,-0.11801557242870331,-0.2742004990577698
1733902556498573300,7.7655732421875,-0.2147749364376068,-0.11430232971906662,-0.28124427795410156
1733902556508600300,7.775600341796875,-0.2104073464870453,-0.055910512804985046,-0.28226181864738464
1733902556518626300,7.785626220703125,-0.17860974371433258,-0.03523559495806694,-0.2853897213935852
1733902556528653000,7.795653076171875,-0.1397954374551773,-0.11650079488754272,-0.29214102029800415
1733902556538680300,7.805680419921875,-0.11038801819086075,-0.2154068648815155,-0.30012330412864685
1733902556548706300,7.815706298828125,-0.10368450731039047,-0.26339054107666016,-0.30958354473114014
1733902556558733300,7.8257333984375,-0.10094518214464188,-0.2594684958457947,-0.33308595418930054
1733902556568759300,7.83575927734375,-0.09079659730195999,-0.26356902718544006,-0.37518611550331116
1733902556578786000,7.8457861328125,-0.07548661530017853,-0.2885928750038147,-0.43281400203704834
1733902556588812000,7.85581201171875,-0.06841910630464554,-0.2960072457790375,-0.4796253740787506
1733902556598839300,7.86583935546875,-0.06602439284324646,-0.2511862516403198,-0.5029842853546143
1733902556608866300,7.8758662109375,-0.06958327442407608,-0.2380693256855011,-0.5193111896514893
1733902556618892300,7.885892333984375,-0.08073153346776962,-0.318805456161499,-0.5374417304992676
1733902556628919000,7.8959189453125,-0.10878756642341614,-0.39971593022346497,-0.5377954244613647
1733902556638945300,7.9059453125,-0.14462706446647644,-0.4344121217727661,-0.5155044794082642
1733902556648972300,7.91597216796875,-0.16824470460414886,-0.44561848044395447,-0.47786521911621094
1733902556658998300,7.925998291015625,-0.18728578090667725,-0.4524824917316437,-0.4394504427909851
1733902556669025300,7.936025390625,-0.20728279650211334,-0.4134800136089325,-0.4089919924736023
1733902556679051300,7.94605126953125,-0.222309410572052,-0.36257317662239075,-0.39611029624938965
1733902556689078300,7.956078369140625,-0.2286253720521927,-0.35522711277008057,-0.4098551273345947
1733902556699105300,7.966105224609375,-0.2402828186750412,-0.37621814012527466,-0.4405618906021118
1733902556709131300,7.97613134765625,-0.24773506820201874,-0.4124719500541687,-0.47678664326667786
1733902556719158300,7.986158203125,-0.2466767281293869,-0.42702239751815796,-0.5093810558319092
1733902556729184300,7.996184326171875,-0.22937585413455963,-0.4300890862941742,-0.5354002714157104
1733902556739211300,8.006211181640625,-0.18988117575645447,-0.4352281987667084,-0.5599889755249023
1733902556749237200,8.0162373046875,-0.13247062265872955,-0.408438116312027,-0.5836163759231567
1733902556759264300,8.02626416015625,-0.06312457472085953,-0.3703834116458893,-0.6073054671287537
1733902556769290200,8.036290283203124,0.003978162072598934,-0.3220624327659607,-0.6250468492507935
1733902556779317200,8.046317138671874,0.06367211788892746,-0.27242937684059143,-0.6287485957145691
1733902556789344300,8.05634423828125,0.11587735265493393,-0.2774675786495209,-0.6166640520095825
1733902556799370200,8.066370361328126,0.15919660031795502,-0.31879958510398865,-0.5722973942756653
1733902556809397200,8.076397216796876,0.19194842875003815,-0.3904326260089874,-0.5040850043296814
1733902556819423200,8.08642333984375,0.20945365726947784,-0.5524665117263794,-0.42115873098373413
1733902556829450200,8.0964501953125,0.19913770258426666,-0.7148563861846924,-0.3242957293987274
1733902556839476200,8.106476318359375,0.1774609088897705,-0.8010836839675903,-0.2328246831893921
1733902556849503200,8.116503173828125,0.15776808559894562,-0.8427858352661133,-0.1571095585823059
1733902556859529200,8.126529296875,0.1443055421113968,-0.8630069494247437,-0.11405742913484573
1733902556869556200,8.13655615234375,0.14483655989170074,-0.8260995149612427,-0.10932831466197968
1733902556879583200,8.146583251953125,0.15647803246974945,-0.684848964214325,-0.14404341578483582
1733902556889609200,8.156609130859374,0.18015532195568085,-0.5720046162605286,-0.23047912120819092
1733902556899636200,8.16663623046875,0.19104258716106415,-0.48776909708976746,-0.34295853972435
1733902556909662200,8.176662109375,0.17650192975997925,-0.3750666081905365,-0.4454779326915741
1733902556919689200,8.186689208984374,0.15036647021770477,-0.22213326394557953,-0.5304402112960815
1733902556929715200,8.196715087890626,0.12768621742725372,-0.10031004250049591,-0.5866727828979492
1733902556939742200,8.2067421875,0.11047179996967316,-0.055138569325208664,-0.6099584102630615
1733902556949769200,8.216769287109376,0.09685804694890976,-0.04608478024601936,-0.5908535122871399
1733902556959795200,8.226795166015625,0.10485312342643738,-0.05275812745094299,-0.5365511178970337
1733902556969822200,8.236822265625,0.13504090905189514,-0.0560305193066597,-0.45533087849617004
1733902556979848200,8.24684814453125,0.18905994296073914,-0.10973049700260162,-0.3601101040840149
1733902556989875200,8.256875244140625,0.24405038356781006,-0.2365800142288208,-0.25990575551986694
1733902556999901200,8.266901123046875,0.29094254970550537,-0.3235127627849579,-0.16068674623966217
1733902557009928200,8.27692822265625,0.35132429003715515,-0.3213600814342499,-0.08059538900852203
1733902557019954200,8.2869541015625,0.41715285181999207,-0.3569292724132538,-0.04062347486615181
1733902557029981200,8.296981201171874,0.4677719175815582,-0.4133438766002655,-0.029742296785116196
1733902557040008200,8.30700830078125,0.5039597749710083,-0.4018922746181488,-0.03054603934288025
1733902557050034200,8.3170341796875,0.5281229019165039,-0.34807461500167847,-0.04220934957265854
1733902557060061200,8.327061279296874,0.5336356163024902,-0.2813113033771515,-0.06339346617460251
1733902557070087200,8.337087158203126,0.5240570902824402,-0.2328924834728241,-0.08514450490474701
1733902557080114200,8.3471142578125,0.49479928612709045,-0.19238607585430145,-0.09469326585531235
1733902557090140400,8.357140380859375,0.45737749338150024,-0.14454364776611328,-0.08666493743658066
1733902557100167200,8.367167236328125,0.41865673661231995,-0.13211414217948914,-0.07650098204612732
1733902557110193200,8.377193115234375,0.3918991982936859,-0.1431356519460678,-0.0702981948852539
1733902557120220200,8.38722021484375,0.38092243671417236,-0.12432068586349487,-0.07561732828617096
1733902557130247200,8.3972470703125,0.3924289643764496,-0.0663214772939682,-0.10211436450481415
1733902557140274000,8.40727392578125,0.4069799482822418,-0.037700485438108444,-0.15119321644306183
1733902557150301000,8.417301025390625,0.4133168160915375,-0.007056353613734245,-0.19952131807804108
1733902557160327000,8.427326904296875,0.40770235657691956,0.01758800633251667,-0.23237699270248413
1733902557170354000,8.43735400390625,0.39421382546424866,0.03235809877514839,-0.23745015263557434
1733902557180380000,8.4473798828125,0.37753230333328247,0.02729089930653572,-0.21571555733680725
1733902557190407000,8.457406982421874,0.36360964179039,-0.026974765583872795,-0.18467934429645538
1733902557200434000,8.467433837890624,0.34429559111595154,-0.10628636926412582,-0.14467599987983704
1733902557210460000,8.4774599609375,0.3247852623462677,-0.18606002628803253,-0.0974259153008461
1733902557220487000,8.48748681640625,0.2998732626438141,-0.25444626808166504,-0.0506962314248085
1733902557230513200,8.49751318359375,0.2791864573955536,-0.313650906085968,-0.020055679604411125
1733902557240540000,8.507539794921875,0.25505316257476807,-0.3744109272956848,-0.01700902357697487
1733902557250566000,8.51756591796875,0.2300070971250534,-0.42895349860191345,-0.03628820180892944
1733902557260593000,8.527593017578125,0.1961093246936798,-0.4684705436229706,-0.06973191350698471
1733902557270619000,8.537618896484375,0.16012954711914062,-0.4615114629268646,-0.11450056731700897
1733902557280646100,8.547646240234375,0.1361464560031891,-0.3928581178188324,-0.17997917532920837
1733902557290673000,8.5576728515625,0.13015708327293396,-0.2764175534248352,-0.2641600966453552
1733902557300699000,8.567698974609375,0.14748893678188324,-0.1586637645959854,-0.34847816824913025
1733902557310726000,8.577725830078125,0.1838257610797882,-0.08433139324188232,-0.3992502987384796
1733902557320751900,8.587751953125,0.23259863257408142,-0.04916941374540329,-0.40362027287483215
1733902557330779100,8.597779052734374,0.2767687737941742,-0.04531664028763771,-0.3629336655139923
1733902557340805000,8.60780517578125,0.3137473165988922,-0.08522038161754608,-0.28845757246017456
1733902557350831900,8.617831787109376,0.34481051564216614,-0.1389092355966568,-0.19582176208496094
1733902557360857900,8.62785791015625,0.36808815598487854,-0.202683687210083,-0.10081828385591507
1733902557370884900,8.637884765625,0.373012512922287,-0.2627214193344116,-0.014692754484713078
1733902557380912000,8.647912109375,0.36958184838294983,-0.29995933175086975,0.04988836869597435
1733902557390938000,8.657938232421875,0.35058459639549255,-0.3160417079925537,0.08892103284597397
1733902557400964900,8.66796484375,0.31911641359329224,-0.30282363295555115,0.09739947319030762
1733902557410990800,8.677990966796875,0.26944273710250854,-0.24854794144630432,0.07849026471376419
1733902557421017900,8.688017822265625,0.21125507354736328,-0.1717836558818817,0.0374634712934494
1733902557431043800,8.6980439453125,0.1408727616071701,-0.09104938805103302,-0.012408214621245861
1733902557441071000,8.708071044921875,0.07355471700429916,-0.0014404092216864228,-0.06116190552711487
1733902557451097000,8.71809716796875,0.02880135551095009,0.08391164243221283,-0.10632039606571198
1733902557461123800,8.728123779296874,0.0020645493641495705,0.139169842004776,-0.13795769214630127
1733902557471150800,8.73815087890625,-0.019437275826931,0.16899284720420837,-0.1443215012550354
1733902557481177000,8.748177001953126,-0.03471183776855469,0.1725311279296875,-0.12721122801303864
1733902557491204000,8.7582041015625,-0.038537777960300446,0.1534113734960556,-0.09496761858463287
1733902557501230000,8.76822998046875,-0.04247526451945305,0.1371740847826004,-0.06541478633880615
1733902557511256800,8.7782568359375,-0.04054075852036476,0.12889578938484192,-0.04474646598100662
1733902557521282800,8.78828271484375,-0.035448797047138214,0.1217270940542221,-0.02264462225139141
1733902557531310000,8.79831005859375,-0.02672034315764904,0.10493016242980957,0.003500745166093111
1733902557541336000,8.808336181640625,-0.025726716965436935,0.08241260796785355,0.04035037010908127
1733902557551363000,8.818363037109375,-0.03059384971857071,0.06044815108180046,0.07093200087547302
1733902557561389800,8.828389892578125,-0.03313024342060089,0.050671953707933426,0.085019052028656
1733902557571415800,8.838415771484375,-0.034228719770908356,0.0583355575799942,0.0847175344824791
1733902557581443000,8.848443115234375,-0.03892706707119942,0.08093434572219849,0.07595014572143555
1733902557591469000,8.858468994140624,-0.04929877072572708,0.08556453138589859,0.06851859390735626
1733902557601496000,8.86849609375,-0.06969644874334335,0.07221809774637222,0.07271280139684677
1733902557611522000,8.87852197265625,-0.08879651874303818,0.06410790979862213,0.08282725512981415
1733902557621548800,8.888548828125,-0.11018729209899902,0.06782674789428711,0.08306294679641724
1733902557631574800,8.89857470703125,-0.13693153858184814,0.0800987184047699,0.06914520263671875
1733902557641602000,8.90860205078125,-0.17057019472122192,0.09866867959499359,0.050045810639858246
1733902557651629000,8.918629150390625,-0.20910464227199554,0.12833952903747559,0.027069490402936935
1733902557661655000,8.928655029296875,-0.2470051497220993,0.16561420261859894,0.00696208979934454
1733902557671681800,8.938681884765625,-0.2786858081817627,0.19091714918613434,-0.005197622813284397
1733902557681708000,8.9487080078125,-0.3039482831954956,0.20915953814983368,-0.01318364404141903
1733902557691735000,8.958735107421875,-0.3276084065437317,0.22841127216815948,-0.01678371988236904
1733902557701761000,8.968760986328125,-0.34952300786972046,0.22688154876232147,-0.01809212937951088
1733902557711788000,8.9787880859375,-0.37376266717910767,0.19752198457717896,-0.00876768957823515
1733902557721814800,8.988814697265624,-0.3982642889022827,0.1747032254934311,0.00900837779045105
1733902557731841000,8.998841064453124,-0.4139750003814697,0.17427510023117065,0.03251978009939194
1733902557741868000,9.008867919921874,-0.4146687388420105,0.1691378653049469,0.04901246726512909
1733902557751894000,9.01889404296875,-0.41439080238342285,0.14380788803100586,0.05586802586913109
1733902557761921000,9.028921142578126,-0.420138955116272,0.11033595353364944,0.057289090007543564
1733902557771947000,9.038947021484375,-0.42459774017333984,0.11231634765863419,0.05653511732816696
1733902557781974000,9.04897412109375,-0.42061686515808105,0.1421607881784439,0.04623667523264885
1733902557792000000,9.059,-0.4064117670059204,0.1580611616373062,0.026400133967399597
1733902557802027000,9.069027099609375,-0.38614243268966675,0.1864192932844162,0.006631223950535059
1733902557812053000,9.079052978515625,-0.3576560616493225,0.21459907293319702,-0.0071896836161613464
1733902557822080000,9.089080078125,-0.32674822211265564,0.21605528891086578,-0.0173760075122118
1733902557832107000,9.09910693359375,-0.28909239172935486,0.20392417907714844,-0.012312592007219791
1733902557842133000,9.109133056640625,-0.2507964074611664,0.1833224892616272,0.007194263860583305
1733902557852160000,9.119159912109374,-0.21137775480747223,0.15721732378005981,0.03406692296266556
1733902557862186000,9.12918603515625,-0.17470203340053558,0.1258665919303894,0.07731346040964127
1733902557872213000,9.139212890625,-0.15044523775577545,0.09949120134115219,0.12574675679206848
1733902557882239000,9.149239013671876,-0.13000014424324036,0.107248455286026,0.16392211616039276
1733902557892266000,9.159265869140626,-0.10367005318403244,0.13051797449588776,0.17480823397636414
1733902557902293000,9.16929296875,-0.08226116746664047,0.14151284098625183,0.16978338360786438
1733902557912319000,9.179319091796875,-0.07463493943214417,0.17106567323207855,0.16080878674983978
1733902557922346000,9.189345947265625,-0.069893978536129,0.20931479334831238,0.1574004739522934
1733902557932372000,9.1993720703125,-0.07090970873832703,0.23042087256908417,0.16336995363235474
1733902557942399000,9.20939892578125,-0.08116379380226135,0.23375535011291504,0.18307311832904816
1733902557952425000,9.219425048828125,-0.09653432667255402,0.23503477871418,0.20906567573547363
1733902557962452000,9.229451904296875,-0.10644740611314774,0.24095897376537323,0.22679966688156128
1733902557972478000,9.23947802734375,-0.1108480915427208,0.26979345083236694,0.23731482028961182
1733902557982505000,9.2495048828125,-0.10839211940765381,0.3102625906467438,0.2420448660850525
1733902557992531000,9.259531005859374,-0.10691859573125839,0.3446115255355835,0.25356367230415344
1733902558002558000,9.269557861328124,-0.10717852413654327,0.3522215187549591,0.27105799317359924
1733902558012585000,9.2795849609375,-0.11765995621681213,0.33461400866508484,0.29526519775390625
1733902558022611000,9.28961083984375,-0.13650529086589813,0.32220980525016785,0.3234803080558777
1733902558032638000,9.299637939453126,-0.15926283597946167,0.321331650018692,0.342752069234848
1733902558042664000,9.309663818359375,-0.19379150867462158,0.3128947615623474,0.3509961664676666
1733902558052691000,9.31969091796875,-0.2298509031534195,0.31525081396102905,0.3383566737174988
1733902558062717000,9.329717041015625,-0.25510936975479126,0.3636753261089325,0.30693721771240234
1733902558072744000,9.339743896484375,-0.2748480439186096,0.448017418384552,0.26749300956726074
1733902558082771000,9.34977099609375,-0.2882162928581238,0.5277453064918518,0.21232695877552032
1733902558092797000,9.359796875,-0.2939815819263458,0.5906212329864502,0.1542721539735794
1733902558102824000,9.369823974609375,-0.2949056923389435,0.6429616808891296,0.09175390750169754
1733902558112850000,9.379849853515625,-0.29461950063705444,0.6823750734329224,0.040258944034576416
1733902558122877000,9.389876953125,-0.28559085726737976,0.7086268663406372,0.0011898369994014502
1733902558132903200,9.399903076171874,-0.27206167578697205,0.724332332611084,-0.015351573005318642
1733902558142930000,9.409929931640624,-0.26001831889152527,0.7484145164489746,-0.006830255966633558
1733902558152956000,9.419955810546876,-0.23956632614135742,0.7548361420631409,0.019984574988484383
1733902558162983000,9.42998291015625,-0.21125532686710358,0.7225309610366821,0.060203634202480316
1733902558177396000,9.44439599609375,-0.17229865491390228,0.6715867519378662,0.14030465483665466
1733902558187423000,9.454423095703126,-0.1476057469844818,0.651826798915863,0.20983794331550598
1733902558197450000,9.464449951171876,-0.12981583178043365,0.6151598691940308,0.2818857431411743
1733902558207476000,9.47447607421875,-0.12047761678695679,0.5704985857009888,0.35129109025001526
1733902558217503000,9.4845029296875,-0.1213252991437912,0.544845461845398,0.40619030594825745
1733902558227529000,9.494529052734375,-0.12473227083683014,0.5104622840881348,0.42679139971733093
1733902558237556000,9.504555908203125,-0.13150280714035034,0.48107004165649414,0.42089515924453735
1733902558247582000,9.51458203125,-0.13361717760562897,0.4858892261981964,0.39874929189682007
1733902558257609000,9.52460888671875,-0.11823102831840515,0.5123777985572815,0.37135547399520874
1733902558267635000,9.534635009765625,-0.09684303402900696,0.5409939289093018,0.352091908454895
1733902558277662000,9.544661865234374,-0.06828942149877548,0.5585468411445618,0.3401135504245758
1733902558287689000,9.55468896484375,-0.03990526124835014,0.556950569152832,0.3341639041900635
1733902558297715000,9.56471484375,-0.012957001104950905,0.5457000136375427,0.3420622944831848
1733902558307742000,9.574741943359374,0.007295828312635422,0.5441687107086182,0.3617417514324188
1733902558317768200,9.584768310546876,0.023198626935482025,0.535585880279541,0.39000585675239563
1733902558327795000,9.594794921875,0.03293898329138756,0.5158774852752686,0.422297865152359
1733902558337821000,9.604821044921875,0.04403051733970642,0.5016660690307617,0.44795316457748413
1733902558347848000,9.614847900390625,0.05524653568863869,0.5012145042419434,0.45859071612358093
1733902558357874000,9.6248740234375,0.07121964544057846,0.5179484486579895,0.4622328579425812
1733902558367901200,9.634901123046875,0.09007204324007034,0.525370717048645,0.46501198410987854
1733902558377928000,9.644927978515625,0.10924919694662094,0.5051663517951965,0.46624529361724854
1733902558387954000,9.654953857421875,0.11303894221782684,0.47358447313308716,0.47073128819465637
1733902558397981000,9.66498095703125,0.1021660566329956,0.4617815911769867,0.48089683055877686
1733902558408007000,9.6750068359375,0.08965299278497696,0.474983811378479,0.49306246638298035
1733902558418034200,9.6850341796875,0.08818532526493073,0.4749912619590759,0.5018314719200134
1733902558428060200,9.69506005859375,0.09488552063703537,0.44201695919036865,0.5005412101745605
1733902558438087000,9.7050869140625,0.09521335363388062,0.39808037877082825,0.4970298409461975
1733902558448113000,9.71511279296875,0.09690463542938232,0.3689042925834656,0.49104881286621094
1733902558458140000,9.725139892578126,0.09880160540342331,0.36610662937164307,0.4859746992588043
1733902558468167200,9.735167236328126,0.1181434914469719,0.38903066515922546,0.48252108693122864
1733902558478193200,9.745193115234375,0.15261784195899963,0.40169504284858704,0.4808238446712494
1733902558488220000,9.755219970703125,0.186191126704216,0.38936200737953186,0.4874873161315918
1733902558498246000,9.765245849609375,0.21387815475463867,0.36722344160079956,0.5066964626312256
1733902558508273000,9.77527294921875,0.22626233100891113,0.3281797766685486,0.5423170924186707
1733902558527699000,9.794698974609375,0.21193917095661163,0.2578172981739044,0.6406932473182678
1733902558537726000,9.804725830078125,0.1841658502817154,0.2131856381893158,0.6978409886360168
1733902558547752000,9.814751953125,0.1401478797197342,0.17386974394321442,0.7435302138328552
1733902558557779200,9.824779296875,0.0888010635972023,0.1220070868730545,0.7647886276245117
1733902558567805000,9.834804931640624,0.03871125355362892,0.04771554842591286,0.7571580410003662
1733902558577832000,9.84483203125,-0.025850696489214897,0.022293012589216232,0.7293543815612793
1733902558587859000,9.85485888671875,-0.09344404190778732,0.07426882535219193,0.6895650029182434
1733902558597885000,9.864885009765626,-0.13047876954078674,0.13449648022651672,0.6325704455375671
1733902558607912000,9.874911865234376,-0.13734613358974457,0.1695643812417984,0.5651150345802307
1733902558617938000,9.88493798828125,-0.12805090844631195,0.18723098933696747,0.5018742680549622
1733902558627965000,9.89496484375,-0.10705407708883286,0.15691640973091125,0.462904691696167
1733902558637991000,9.904990966796875,-0.07947704195976257,0.10948631167411804,0.45357510447502136
1733902558648018000,9.915017822265625,-0.05052168294787407,0.07200796902179718,0.4795081317424774
1733902558658045000,9.925044921875,-0.027463234961032867,0.03085813671350479,0.5185873508453369
1733902558668071000,9.93507080078125,-0.006948934867978096,-0.030672192573547363,0.5632773637771606
1733902558678098000,9.945097900390625,-0.0020058411173522472,-0.1145457848906517,0.5996926426887512
1733902558688124000,9.9551240234375,-0.02219189889729023,-0.20308664441108704,0.624462366104126
1733902558698151000,9.96515087890625,-0.053326915949583054,-0.2733970284461975,0.6315767168998718
1733902558708177200,9.97517724609375,-0.09305335581302643,-0.3238147795200348,0.6113499402999878
1733902558718204000,9.985203857421874,-0.13195574283599854,-0.349237859249115,0.5721335411071777
1733902558728230000,9.99522998046875,-0.1672370880842209,-0.33053135871887207,0.5196003913879395
1733902558738257000,10.0052568359375,-0.18244454264640808,-0.2886542081832886,0.4610004127025604
1733902558748284000,10.015283935546876,-0.18418341875076294,-0.22835008800029755,0.4035705327987671
1733902558758310100,10.02531005859375,-0.1776868999004364,-0.15734036266803741,0.35522136092185974
1733902558768337000,10.0353369140625,-0.17340783774852753,-0.10788087546825409,0.3162269592285156
1733902558778363000,10.04536279296875,-0.16198794543743134,-0.0934009999036789,0.2837321162223816
1733902558788390000,10.055389892578125,-0.15891753137111664,-0.13975641131401062,0.26518672704696655
1733902558798416000,10.065415771484375,-0.18163003027439117,-0.20051084458827972,0.27259698510169983
1733902558808443100,10.075443115234375,-0.20032118260860443,-0.2531004250049591,0.29499703645706177
1733902558818470000,10.085469970703125,-0.20972506701946259,-0.3091019093990326,0.3164101839065552
1733902558828496000,10.095495849609375,-0.21241137385368347,-0.3373820185661316,0.3301936388015747
1733902558838523000,10.10552294921875,-0.2040083110332489,-0.3284854590892792,0.3385903239250183
1733902558848548900,10.115548828125,-0.20275400578975677,-0.30057376623153687,0.3325769603252411
1733902558858576100,10.125576171875,-0.19789427518844604,-0.3001212775707245,0.29968345165252686
1733902558868602000,10.13560205078125,-0.20650433003902435,-0.3111880123615265,0.2506876587867737
1733902558878628900,10.14562890625,-0.211740642786026,-0.28683048486709595,0.20572231709957123
1733902558888654800,10.15565478515625,-0.2015988826751709,-0.23396123945713043,0.1531537026166916
1733902558898681900,10.165681884765625,-0.16404885053634644,-0.17893660068511963,0.08274691551923752
1733902558908709000,10.175709228515625,-0.10602282732725143,-0.12163136899471283,-0.012604438699781895
1733902558918735000,10.185735107421875,-0.05160032957792282,-0.09882193058729172,-0.11793592572212219
1733902558928761900,10.195761962890625,-0.024006588384509087,-0.08897019177675247,-0.1815759688615799
1733902558938787800,10.205787841796875,-0.005599617026746273,-0.09683503955602646,-0.21242763102054596
1733902558948814800,10.21581494140625,0.01615830324590206,-0.12291226536035538,-0.24677664041519165
1733902558958841000,10.225841064453125,0.04375584423542023,-0.13567280769348145,-0.2769204378128052
1733902558968868000,10.2358681640625,0.07627369463443756,-0.14890877902507782,-0.2960149943828583
1733902558978894800,10.245894775390624,0.10905800759792328,-0.16512955725193024,-0.29310840368270874
1733902558988920800,10.2559208984375,0.14136120676994324,-0.2029426395893097,-0.27445048093795776
1733902558998948000,10.265947998046874,0.16827644407749176,-0.2628811001777649,-0.25148576498031616
1733902559008974000,10.27597412109375,0.1842905431985855,-0.32970696687698364,-0.23867489397525787
1733902559019001000,10.2860009765625,0.18765464425086975,-0.3931594491004944,-0.23803600668907166
1733902559029027000,10.296027099609375,0.1875639408826828,-0.4618309736251831,-0.2515127956867218
1733902559039053800,10.3060537109375,0.17696508765220642,-0.49681612849235535,-0.26627230644226074
1733902559049079800,10.316079833984375,0.16140694916248322,-0.4842343032360077,-0.2801818549633026
1733902559059107000,10.326107177734375,0.14728288352489471,-0.4499804675579071,-0.2962534725666046
1733902559069134000,10.336134033203125,0.1303843855857849,-0.40505096316337585,-0.3200334310531616
1733902559079160000,10.34616015625,0.12578456103801727,-0.3626427948474884,-0.3442103862762451
1733902559089186800,10.356186767578125,0.12734930217266083,-0.3608042001724243,-0.37857940793037415
1733902559099212800,10.366212890625,0.12020351737737656,-0.39429664611816406,-0.4189513325691223
1733902559109240000,10.376239990234374,0.09699752926826477,-0.44955548644065857,-0.44968533515930176
1733902559119266000,10.38626611328125,0.0678979679942131,-0.5171939730644226,-0.4731706976890564
1733902559129293000,10.39629296875,0.0404772013425827,-0.5624603033065796,-0.48266133666038513
1733902559139319000,10.406319091796876,0.02102547138929367,-0.5661956667900085,-0.4861282408237457
1733902559149346000,10.416345947265626,0.002221571048721671,-0.5611053705215454,-0.4936617612838745
1733902559159373000,10.426373046875,-0.01953911781311035,-0.570698618888855,-0.5048590302467346
1733902559169399000,10.43639892578125,-0.04509283974766731,-0.5704241991043091,-0.4891777038574219
1733902559179426000,10.446426025390625,-0.05537717044353485,-0.5431896448135376,-0.42964887619018555
1733902559189452000,10.4564521484375,-0.034679051488637924,-0.5311587452888489,-0.34966954588890076
1733902559199479000,10.46647900390625,-0.0002907186280936003,-0.5623512864112854,-0.290142297744751
1733902559209505000,10.476505126953125,-0.00119800737593323,-0.5824880003929138,-0.26100611686706543
1733902559219532000,10.486531982421875,-0.03515064716339111,-0.5078901648521423,-0.237844318151474
1733902559229559000,10.49655908203125,-0.06594651937484741,-0.4415184259414673,-0.22093002498149872
1733902559239585000,10.5065849609375,-0.07874460518360138,-0.40063491463661194,-0.18731293082237244
1733902559249612000,10.516612060546874,-0.06668026000261307,-0.4210440218448639,-0.13869081437587738
1733902559259638000,10.526637939453124,-0.04817421734333038,-0.5292549133300781,-0.09350576251745224
1733902559269665000,10.5366650390625,-0.046659089624881744,-0.633091151714325,-0.07437286525964737
1733902559279691000,10.54669091796875,-0.0683974102139473,-0.6101493835449219,-0.10761923342943192
1733902559289718000,10.556718017578126,-0.0989132672548294,-0.5000333786010742,-0.19453555345535278
1733902559299744300,10.566744140625,-0.11093584448099136,-0.35849514603614807,-0.29686832427978516
1733902559309771000,10.57677099609375,-0.09110166132450104,-0.2899552583694458,-0.3898451328277588
1733902559319798000,10.586798095703125,-0.04049813747406006,-0.3471842110157013,-0.45298177003860474
1733902559329824000,10.596823974609375,0.014287644997239113,-0.39943158626556396,-0.46659231185913086
1733902559339851300,10.606851318359375,0.059787217527627945,-0.4158449172973633,-0.4350210726261139
1733902559349877000,10.616876953125,0.09806673228740692,-0.41649821400642395,-0.37478911876678467
1733902559359904000,10.626904052734375,0.13926157355308533,-0.42604562640190125,-0.31317824125289917
1733902559369930000,10.636929931640625,0.19116024672985077,-0.4654913544654846,-0.2729381322860718
1733902559379957000,10.64695703125,0.2433595359325409,-0.5427565574645996,-0.25216811895370483
1733902559389983000,10.65698291015625,0.27134138345718384,-0.6244443655014038,-0.2496095597743988
1733902559400010000,10.667010009765624,0.27798861265182495,-0.648777186870575,-0.2478787750005722
1733902559410037000,10.677037109375,0.2750060260295868,-0.6084126234054565,-0.2526547908782959
1733902559420063000,10.68706298828125,0.27671071887016296,-0.5589422583580017,-0.2686867415904999
1733902559430090000,10.697090087890626,0.29416534304618835,-0.5027928352355957,-0.2856048047542572
1733902559440116000,10.707115966796875,0.3393634557723999,-0.4661080539226532,-0.3016231954097748
1733902559450143000,10.71714306640625,0.39476338028907776,-0.49604055285453796,-0.3134155869483948
1733902559460169000,10.7271689453125,0.43884482979774475,-0.5788995027542114,-0.30542343854904175
1733902559470196000,10.737196044921875,0.4642830789089203,-0.623022198677063,-0.27077144384384155
1733902559480222000,10.747221923828125,0.4745069444179535,-0.6374067664146423,-0.21656733751296997
1733902559490249000,10.7572490234375,0.47715651988983154,-0.6218701004981995,-0.15395601093769073
1733902559500276000,10.76727587890625,0.47865214943885803,-0.6018590927124023,-0.10227898508310318
1733902559510302000,10.777302001953124,0.4629364311695099,-0.6919516324996948,-0.07681946456432343
1733902559520329000,10.787328857421874,0.41636866331100464,-0.7807621955871582,-0.06323334574699402
1733902559530355000,10.79735498046875,0.3634556829929352,-0.7704482078552246,-0.0592675618827343
1733902559540382000,10.8073818359375,0.328351765871048,-0.7237510085105896,-0.07609740644693375
1733902559550408200,10.817408203125,0.29994717240333557,-0.6648598313331604,-0.11436711996793747
1733902559560435000,10.82743505859375,0.2767869830131531,-0.6127122044563293,-0.1765972077846527
1733902559570462000,10.8374619140625,0.2524941861629486,-0.5454105138778687,-0.255646675825119
1733902559580488000,10.847488037109375,0.2292564958333969,-0.4578481912612915,-0.335372656583786
1733902559590515200,10.85751513671875,0.20109055936336517,-0.40236517786979675,-0.4094174802303314
1733902559600541200,10.867541259765625,0.1837208867073059,-0.359834223985672,-0.46219494938850403
1733902559610568000,10.87756787109375,0.18210197985172272,-0.33301395177841187,-0.4927096366882324
1733902559620594000,10.887593994140625,0.1864812821149826,-0.3121821880340576,-0.5114114284515381
1733902559630621000,10.897620849609375,0.1941431164741516,-0.2967427372932434,-0.5209779143333435
1733902559640647000,10.90764697265625,0.19046609103679657,-0.2748454213142395,-0.5129226446151733
1733902559650674200,10.917674072265624,0.17801696062088013,-0.21822012960910797,-0.48428666591644287
1733902559660701000,10.927700927734374,0.1763780415058136,-0.16807545721530914,-0.4455408453941345
1733902559670727000,10.937726806640624,0.18853963911533356,-0.1680442988872528,-0.40336543321609497
1733902559680754000,10.94775390625,0.21500080823898315,-0.18912935256958008,-0.3520151674747467
1733902559690780000,10.95777978515625,0.27263960242271423,-0.28666454553604126,-0.2917996048927307
1733902559700807200,10.96780712890625,0.33237215876579285,-0.402527779340744,-0.22077973186969757
1733902559710833200,10.977833251953125,0.3839707672595978,-0.45838767290115356,-0.13790225982666016
1733902559720860000,10.98785986328125,0.4240625202655792,-0.4877151846885681,-0.07408998906612396
1733902559730886000,10.997885986328125,0.4615063965320587,-0.5095536708831787,-0.024797653779387474
1733902559740913000,11.007912841796875,0.48823708295822144,-0.526113748550415,0.011747307144105434
1733902559750940200,11.017940185546875,0.5005431771278381,-0.5217686295509338,0.03982917591929436
1733902559760966100,11.027966064453125,0.5041653513908386,-0.5003980398178101,0.056189507246017456
1733902559770993000,11.037992919921875,0.49918147921562195,-0.47642961144447327,0.05613730475306511
1733902559781019000,11.048018798828124,0.4754129946231842,-0.45808708667755127,0.033921483904123306
1733902559791046000,11.0580458984375,0.4390108585357666,-0.42585262656211853,-0.0025446973741054535
1733902559801072000,11.068072021484374,0.41169002652168274,-0.3857097327709198,-0.05091675743460655
1733902559811099100,11.07809912109375,0.38267266750335693,-0.3350226879119873,-0.10082514584064484
1733902559821125000,11.088125,0.3655166029930115,-0.27763527631759644,-0.1378585249185562
1733902559831151900,11.09815185546875,0.3635690212249756,-0.22513850033283234,-0.15926474332809448
1733902559841179100,11.10817919921875,0.35842567682266235,-0.17139485478401184,-0.16332633793354034
1733902559851205000,11.118205078125,0.35910263657569885,-0.13179272413253784,-0.1529380828142166
1733902559861232000,11.128232177734375,0.36989644169807434,-0.12517715990543365,-0.13915196061134338
1733902559871258000,11.138258056640625,0.3835245668888092,-0.13286568224430084,-0.12535494565963745
1733902559881284900,11.148284912109375,0.3978497087955475,-0.12589192390441895,-0.11231263726949692
1733902559891310800,11.158310791015625,0.41528043150901794,-0.13287238776683807,-0.10852520912885666
1733902559901338000,11.168338134765625,0.44142946600914,-0.14562413096427917,-0.10702664405107498
1733902559911364000,11.178364013671874,0.4732159674167633,-0.15091824531555176,-0.10443231463432312
1733902559921391000,11.18839111328125,0.5021474957466125,-0.15498436987400055,-0.11040178686380386
1733902559931417900,11.19841796875,0.5191545486450195,-0.15394353866577148,-0.11770500987768173
1733902559941443800,11.20844384765625,0.5091005563735962,-0.17507332563400269,-0.10812588781118393
1733902559951471000,11.21847119140625,0.4819391369819641,-0.22388474643230438,-0.0819675475358963
1733902559961497000,11.2284970703125,0.44215551018714905,-0.27435219287872314,-0.03593374788761139
1733902559971524000,11.238524169921876,0.40011659264564514,-0.3310341536998749,0.029536237940192223
1733902559981550000,11.248550048828125,0.3639804422855377,-0.3894199728965759,0.10864809900522232
1733902559991576800,11.258576904296875,0.33792051672935486,-0.44364455342292786,0.19860008358955383
1733902560001603000,11.26860302734375,0.3227255642414093,-0.5166881084442139,0.28676000237464905
1733902560011630000,11.278630126953125,0.3116990625858307,-0.5875342488288879,0.35362502932548523
1733902560021657000,11.288656982421875,0.2835100293159485,-0.6119881868362427,0.38732412457466125
1733902560031683000,11.29868310546875,0.24439990520477295,-0.6090244650840759,0.37017276883125305
1733902560041710000,11.3087099609375,0.1937284618616104,-0.5628783106803894,0.30762043595314026
1733902560051736000,11.318736083984374,0.1453554481267929,-0.45083820819854736,0.21993649005889893
1733902560061763000,11.32876318359375,0.10118985921144485,-0.30302131175994873,0.12111590802669525
1733902560071789000,11.3387890625,0.06433146446943283,-0.16817723214626312,0.028090892359614372
1733902560081816000,11.348816162109374,0.028556954115629196,-0.08304422348737717,-0.02741071581840515
1733902560091842000,11.358842041015626,-0.012407185509800911,-0.04973238334059715,-0.0326913483440876
1733902560101869000,11.368869140625,-0.037523724138736725,-0.061415404081344604,0.008275793865323067
1733902560111896000,11.37889599609375,-0.04421360418200493,-0.10581454634666443,0.08625740557909012
1733902560121922000,11.388922119140625,-0.03547923266887665,-0.18220891058444977,0.17708265781402588
1733902560131949000,11.398948974609375,-0.016866406425833702,-0.25008997321128845,0.2538071274757385
1733902560141975000,11.40897509765625,-0.0023324713110923767,-0.28087395429611206,0.28089919686317444
1733902560152002000,11.419001953125,-0.002348425332456827,-0.2650388479232788,0.25489914417266846
1733902560162028000,11.429028076171875,-0.006447030231356621,-0.20399491488933563,0.20435743033885956
1733902560172055000,11.439054931640625,-0.015018371865153313,-0.12476310133934021,0.15576507151126862
1733902560182081300,11.449081298828125,-0.022378548979759216,-0.07931705564260483,0.12384095042943954
1733902560192108000,11.45910791015625,-0.03907403722405434,-0.07554089277982712,0.10835863649845123
1733902560202135000,11.469135009765624,-0.07269564270973206,-0.07416457682847977,0.10176171362400055
1733902560212161000,11.4791611328125,-0.11117783933877945,-0.053594429045915604,0.07755590230226517
1733902560222188000,11.48918798828125,-0.14533181488513947,-0.009878641925752163,0.04265011101961136
1733902560232214300,11.49921435546875,-0.16439346969127655,0.03336048126220703,0.0015730983577668667
1733902560242241000,11.509240966796876,-0.17756865918636322,0.06657648831605911,-0.04803786426782608
1733902560252267000,11.51926708984375,-0.18220855295658112,0.10512035340070724,-0.09383807331323624
1733902560262294000,11.5292939453125,-0.1842820793390274,0.15419736504554749,-0.13077852129936218
1733902560272320000,11.539320068359375,-0.1859251707792282,0.19700562953948975,-0.14807820320129395
1733902560282347300,11.54934716796875,-0.1932123899459839,0.19558696448802948,-0.12786826491355896
1733902560292374000,11.5593740234375,-0.21376220881938934,0.14676541090011597,-0.07499121874570847
1733902560302400000,11.56939990234375,-0.23580892384052277,0.07266455143690109,-0.015114305540919304
1733902560312427000,11.579427001953125,-0.24816519021987915,0.02047032117843628,0.023406190797686577
1733902560322453000,11.589452880859374,-0.2564138174057007,0.016656674444675446,0.020978985354304314
1733902560332480300,11.599480224609374,-0.2630661725997925,0.0653105229139328,-0.010451789945363998
1733902560342506200,11.60950634765625,-0.2720058560371399,0.12797576189041138,-0.04564280062913895
1733902560352533000,11.619532958984376,-0.2882644534111023,0.1666768193244934,-0.06502874940633774
1733902560362559000,11.62955908203125,-0.30291610956192017,0.15551204979419708,-0.06711666285991669
1733902560372586000,11.6395859375,-0.3202439844608307,0.13594941794872284,-0.05635117366909981
1733902560382613200,11.64961328125,-0.33597952127456665,0.14073777198791504,-0.033527348190546036
1733902560392639200,11.65963916015625,-0.3500334918498993,0.14891284704208374,-0.004484229721128941
1733902560402666000,11.669666015625,-0.3618725836277008,0.137721449136734,0.01625300571322441
1733902560412692000,11.67969189453125,-0.37377873063087463,0.11376508325338364,0.015789031982421875
1733902560422719000,11.689718994140625,-0.37424930930137634,0.10991574823856354,-0.008113104850053787
1733902560432745200,11.6997451171875,-0.36967793107032776,0.1446225792169571,-0.04788913577795029
1733902560442772200,11.709772216796875,-0.3551357388496399,0.19300316274166107,-0.09273836016654968
1733902560452798200,11.719798095703124,-0.3446807563304901,0.2346000224351883,-0.1370391994714737
1733902560462825000,11.729824951171874,-0.33603906631469727,0.2668546438217163,-0.1722288727760315
1733902560472852000,11.73985205078125,-0.3362495005130768,0.27263253927230835,-0.18919849395751953
1733902560482878200,11.749878173828124,-0.34140753746032715,0.25743094086647034,-0.17557083070278168
1733902560492905200,11.7599052734375,-0.3456900417804718,0.24080142378807068,-0.12689413130283356
1733902560502931200,11.76993115234375,-0.34828421473503113,0.20018528401851654,-0.061284761875867844
1733902560512958000,11.7799580078125,-0.3433665335178375,0.1495956927537918,0.01122682262212038
1733902560522984000,11.78998388671875,-0.3451117277145386,0.11672907322645187,0.06968001276254654
1733902560533011200,11.80001123046875,-0.34119468927383423,0.11894518882036209,0.10719045251607895
1733902560543037200,11.810037109375,-0.3350909650325775,0.17017962038516998,0.11557648330926895
1733902560553064200,11.820064208984375,-0.3308878540992737,0.2382507622241974,0.09194428473711014
1733902560563091000,11.830091064453125,-0.32369253039360046,0.2698558270931244,0.04220122843980789
1733902560573117000,11.840116943359375,-0.3234221339225769,0.3177816569805145,-0.01452575158327818
1733902560583144200,11.850144287109375,-0.333838552236557,0.39334484934806824,-0.056295305490493774
1733902560593170200,11.860170166015624,-0.35604551434516907,0.448405385017395,-0.0763828381896019
1733902560603197200,11.870197265625,-0.3800720274448395,0.475674033164978,-0.06553977727890015
1733902560613223200,11.88022314453125,-0.4000794589519501,0.5028071999549866,-0.03889330103993416
1733902560623250000,11.89025,-0.4171311557292938,0.5089604258537292,-0.005921502597630024
1733902560633276200,11.900276123046876,-0.4234364330768585,0.5066617131233215,0.020038403570652008
1733902560643303200,11.91030322265625,-0.41935300827026367,0.514470100402832,0.03334808349609375
1733902560653329200,11.9203291015625,-0.4120402932167053,0.5402742028236389,0.032712168991565704
1733902560663356200,11.930356201171875,-0.4020020365715027,0.5655875205993652,0.025505924597382545
1733902560673383000,11.9403828125,-0.39962929487228394,0.5968624353408813,0.026733078062534332
1733902560683409200,11.9504091796875,-0.3991749584674835,0.6310387849807739,0.03178615868091583
1733902560693436200,11.960436279296875,-0.4025810658931732,0.662310004234314,0.03636208176612854
1733902560703462100,11.970462158203125,-0.4015640318393707,0.6948947906494141,0.04387485980987549
1733902560713489200,11.9804892578125,-0.3943105638027191,0.7255016565322876,0.048026882112026215
1733902560723515100,11.99051513671875,-0.38443291187286377,0.7578127384185791,0.061813537031412125
1733902560733542100,12.000542236328124,-0.38177838921546936,0.7819503545761108,0.08038278669118881
1733902560743568100,12.010568115234374,-0.3805061876773834,0.7744684815406799,0.104166679084301
1733902560753595100,12.02059521484375,-0.38943442702293396,0.7567261457443237,0.12641599774360657
1733902560763622100,12.0306220703125,-0.4000953435897827,0.7403988242149353,0.14788879454135895
1733902560773648100,12.040648193359376,-0.4083285629749298,0.7419742345809937,0.15617327392101288
1733902560783675100,12.050675048828126,-0.41363757848739624,0.7508050203323364,0.15476791560649872
1733902560793701000,12.060701171875,-0.4126614034175873,0.7805188298225403,0.1431388556957245
1733902560803728100,12.07072802734375,-0.4129237234592438,0.8433185815811157,0.12447730451822281
1733902560813754000,12.080754150390625,-0.40458476543426514,0.8992784023284912,0.10553284734487534
1733902560823781000,12.090781005859375,-0.38987666368484497,0.9190278649330139,0.09313610196113586
1733902560833807000,12.10080712890625,-0.3717692196369171,0.915608286857605,0.09824566543102264
1733902560843834000,12.110834228515625,-0.3544570803642273,0.8973438143730164,0.1271103322505951
1733902560853861000,12.120861083984375,-0.3400194048881531,0.8629920482635498,0.16841194033622742
1733902560863887000,12.13088720703125,-0.3196480870246887,0.8241695165634155,0.2031044065952301
1733902560873914000,12.1409140625,-0.29048722982406616,0.7820245027542114,0.21272268891334534
1733902560883940000,12.150940185546874,-0.26977449655532837,0.7685499787330627,0.2058626413345337
1733902560893967000,12.160967041015626,-0.2502782344818115,0.7952844500541687,0.18856802582740784
1733902560903993000,12.1709931640625,-0.23078468441963196,0.835834264755249,0.1606309413909912
1733902560914020000,12.18102001953125,-0.21702691912651062,0.8765539526939392,0.1350254863500595
1733902560924046000,12.191046142578125,-0.20391565561294556,0.9090061783790588,0.12219836562871933
1733902560934073000,12.201072998046875,-0.2057550996541977,0.9372961521148682,0.13480150699615479
1733902560944100000,12.21110009765625,-0.21275122463703156,0.9605452418327332,0.17072275280952454
1733902560954126000,12.2211259765625,-0.2119825780391693,0.9544256925582886,0.21327176690101624
1733902560964153000,12.231153076171875,-0.2026820182800293,0.924139142036438,0.2514766752719879
1733902560974179000,12.241178955078125,-0.18022118508815765,0.8712050914764404,0.28882378339767456
1733902560984206000,12.2512060546875,-0.15266253054141998,0.7963686585426331,0.3262856602668762
1733902560994232000,12.261232177734374,-0.13359062373638153,0.7347507476806641,0.35891076922416687
1733902561004259000,12.271259033203124,-0.10910232365131378,0.6804866790771484,0.3850070834159851
1733902561014285000,12.28128515625,-0.09075061231851578,0.6342483758926392,0.3898932933807373
1733902561024312000,12.29131201171875,-0.08881103247404099,0.6104072332382202,0.3779468834400177
1733902561034338000,12.301338134765626,-0.10800270736217499,0.6220406889915466,0.36492234468460083
1733902561044365000,12.311364990234376,-0.13972921669483185,0.66856449842453,0.3561280369758606
1733902561054392000,12.32139208984375,-0.16611015796661377,0.7131003737449646,0.3554326295852661
1733902561064418000,12.33141796875,-0.18517813086509705,0.7148551344871521,0.3514557480812073
1733902561074445000,12.341445068359375,-0.2003292292356491,0.6856709718704224,0.351715087890625
1733902561084471000,12.351470947265625,-0.21220532059669495,0.6707258224487305,0.3627602756023407
1733902561094498000,12.361498046875,-0.22006312012672424,0.6759335994720459,0.3786191940307617
1733902561104524000,12.37152392578125,-0.218119278550148,0.6698451042175293,0.38100752234458923
1733902561114551000,12.381551025390625,-0.20871414244174957,0.6538665294647217,0.3672790825366974
1733902561124577000,12.391576904296874,-0.1932225227355957,0.6412410140037537,0.34159156680107117
1733902561134604300,12.401604248046874,-0.17048224806785583,0.6568601727485657,0.30982711911201477
