time,seconds_elapsed,z,y,x
1733851071672681200,0.01068115234375,0.1177624560713768,-0.07953472448587418,-0.26459946932718154
1733851071682650000,0.020650146484375,0.21749124280214308,-0.11009089853018522,-0.2557262809112668
1733851071692619300,0.030619384765625,0.24306524451971054,-0.10069061750024556,-0.20698928414061665
1733851071702587100,0.040587158203125,0.2386006663262844,-0.04284165512174368,-0.14832520598694682
1733851071712556000,0.05055615234375,0.222222947499156,0.01288023210018873,-0.05588190008923411
1733851071722524200,0.060524169921875,0.1528022052705288,0.06325169820487499,0.021299100877344608
1733851071732493000,0.0704931640625,0.006166121414303779,0.09981763405799865,0.040550183183699844
1733851071742462200,0.080462158203125,-0.11371814911663532,0.11574614781290292,0.009783581259101629
1733851071752430000,0.09043017578125,-0.13632453320026397,0.10444792420715093,-0.001159545298665762
1733851071762399200,0.100399169921875,-0.11618541601300239,0.08326163605451584,0.006688391722738742
1733851071772367400,0.110367431640625,-0.06375906320512294,0.0699938659414649,-0.03307400208413601
1733851071782336300,0.120336181640625,-0.03490121751129627,0.06036971302777529,-0.11310147852301597
1733851071792305200,0.13030517578125,-0.030058453655242918,0.024430092379450798,-0.20431188162490724
1733851071802273300,0.140273193359375,0.021460721179842948,-0.025189678575098514,-0.24402342202737926
1733851071812242200,0.1502421875,0.05729249753952026,-0.08413549627959728,-0.2836674501515925
1733851071822210300,0.160210205078125,0.06404080275595188,-0.10235971975624561,-0.2769179758913815
1733851071832179200,0.17017919921875,0.0733288555830717,-0.07188362521082163,-0.2553618315130472
1733851071842148400,0.1801484375,0.058006783288717265,-0.03728051386326551,-0.23821502800956368
1733851071852116200,0.1901162109375,0.02736263870000839,-0.009693418757617473,-0.15999109386131166
1733851071862085000,0.200085205078125,0.04916647422909736,0.048096214649081225,-0.0009754209034144878
1733851071872053200,0.21005322265625,0.055582771012187,0.12585253128558396,0.11428031304404139
1733851071882022100,0.220022216796875,0.051612113815546035,0.19386808289140461,0.18157763337790964
1733851071891991000,0.229990966796875,0.0022562544941902157,0.21736264798641203,0.30066125505045055
1733851071901959200,0.239959228515625,-0.06808394066691398,0.22635843986868856,0.38196255081743
1733851071911928000,0.249927978515625,-0.006698036333918571,0.14896744941323994,-0.20172376482784746
1733851071921896200,0.259896240234375,0.03967208517491817,0.11005465817302465,-0.4703101118341088
1733851071931865000,0.269864990234375,-0.06913257293701172,0.026430618546903133,-0.4069176899842918
1733851071941834200,0.279834228515625,-0.26203999410271644,0.07116232519894838,-0.48331806196719407
1733851071951802400,0.28980224609375,-0.49694005234539507,0.483267793084681,-0.7526704249098897
1733851071961771300,0.299771240234375,-0.6676257048308849,0.6961278689548372,-0.7883416038803756
1733851071971739400,0.309739501953125,-0.5999176117390393,0.39484365970045326,-0.6067190353821963
1733851071981708300,0.319708251953125,-0.29984979253709315,0.1287906305640936,-0.5139644715782254
1733851071991677200,0.32967724609375,-0.09510872571468353,0.005509995593130588,-0.4425969791959971
1733851072001645000,0.33964501953125,0.040427871978282924,-0.1314776776909828,-0.2714931743636727
1733851072011614200,0.3496142578125,0.13105448384284973,-0.16004472374469042,-0.18751096894964575
1733851072021582000,0.35958203125,0.19219664254784583,-0.1123638118982315,0.021819033098220825
1733851072031551200,0.36955126953125,0.3003659253656864,-0.04301145873069763,0.18795805513001979
1733851072041520000,0.37952001953125,0.39602936235368247,0.022848960667848587,0.36889640422370285
1733851072051488300,0.38948828125,0.47412324038147924,0.03809504511654377,0.4913796052066609
1733851072061457200,0.39945703125,0.5538555332660675,-0.024912907460331916,0.5421227541679516
1733851072071425300,0.40942529296875,0.5953028114199638,-0.05194178416132927,0.5252133761495351
1733851072081394200,0.419394287109375,0.5200841965675354,0.042788171368837356,0.5449405515350401
1733851072091363000,0.429363037109375,0.3604413316220045,0.09450403781980275,0.4675156953426078
1733851072101331200,0.439331298828125,0.16466449249982834,0.0797995129019022,0.2930858513601124
1733851072111300400,0.44930029296875,-0.03556114272475242,0.030559973436594008,0.03194412127137184
1733851072121268200,0.459268310546875,-0.12260931158065795,-0.01542787075638771,-0.1513940189730376
1733851072131237400,0.4692373046875,-0.1303933895856142,-0.02420563597381115,-0.24125560128185897
1733851072141206300,0.479206298828125,-0.059824646365642546,-0.007860065850615501,-0.26798491051439194
1733851072151174400,0.48917431640625,0.047290743485093115,0.012132044081389903,-0.2927003591738641
1733851072161143300,0.499143310546875,0.11485738227963446,-0.01872866586744785,-0.27082291041929274
1733851072171111200,0.509111083984375,0.14369769231677054,-0.050880876931548115,-0.22203447572235016
1733851072181080000,0.519080078125,0.11248773053884506,-0.0524807133436203,-0.18081939888913184
1733851072191049200,0.52904931640625,0.10157412233650684,-0.04593669852763414,-0.15492025687042624
1733851072201017000,0.53901708984375,0.03820902688503265,-0.040922377496957776,-0.14611786866839974
1733851072210986200,0.548986328125,-0.008849076887965202,-0.012435995464026928,-0.11929993130434303
1733851072220954000,0.5589541015625,-0.07525894686281681,-0.0031233927175402638,-0.08173789708595723
1733851072230923300,0.56892333984375,-0.12725567608177663,0.03923135567009449,-0.024736308784410355
1733851072240892200,0.57889208984375,-0.13849077132344245,0.062303895960748194,0.015330036405101418
1733851072250860300,0.5888603515625,-0.10246376465260981,0.0652054626211524,0.009468377830088137
1733851072260829200,0.5988291015625,-0.04143500319421291,0.06075725104063749,0.007185819850862026
1733851072270797300,0.60879736328125,0.042669513425230975,0.0621878683656454,0.010576960126496851
1733851072280766200,0.61876611328125,0.10018237571716308,0.04727320782840252,-0.0045815556365996594
1733851072290735400,0.6287353515625,0.11598258691728114,0.06087707802802324,-0.021436207793094218
1733851072300703200,0.638703125,0.06286532923579216,0.03483312071114778,-0.05638382172938436
1733851072310672400,0.64867236328125,0.003900514569878578,-0.0032297757014632224,-0.058727827572263774
1733851072320640000,0.658639892578125,-0.003471475502848625,-0.014575053319334983,-0.05325209957491606
1733851072330609400,0.668609375,0.030084172618389127,0.0029725860700011253,-0.0424799822025001
1733851072340578300,0.678578369140625,0.09376257180273533,0.03772854989171028,-0.04926840023361146
1733851072350546200,0.688546142578125,0.16003332556784153,0.08759849621504545,-0.07810728549864143
1733851072360515000,0.69851513671875,0.17040157484710217,0.13545271880179643,-0.09584259294718503
1733851072370483200,0.708483154296875,0.15896949572861194,0.19272884972840545,-0.1359749891102314
1733851072380452000,0.7184521484375,0.1408627611517906,0.2289908341988921,-0.16971768423616884
1733851072390421200,0.728421142578125,0.12545008796453475,0.2795806192293763,-0.20939517623856663
1733851072400389000,0.73838916015625,0.03578267652094364,0.3098196901485324,-0.2190732512965798
1733851072410358300,0.748358154296875,-0.09628829088807106,0.3035354953125119,-0.14231471352577207
1733851072420326100,0.758326171875,-0.18715338768363,0.2801025972768664,-0.08208250927254557
1733851072430295300,0.76829541015625,-0.1894914752423763,0.21633301267772911,-0.07614983128793537
1733851072440264200,0.77826416015625,-0.1204325520634651,0.15389263085573912,0.012594547026604412
1733851072450232300,0.788232421875,0.044949733316898347,0.09428279628455638,0.08540909641198813
1733851072460201200,0.798201171875,0.18546762655377386,0.06048632514476776,0.08784012295119464
1733851072470169300,0.80816943359375,0.2936737342506647,0.023391981503367423,0.07648395861312747
1733851072480138200,0.81813818359375,0.2820323962956667,-0.024670915398001668,0.007267725980654358
1733851072490107400,0.828107421875,0.16888941671848295,-0.05856149456202984,-0.12083645668923854
1733851072500075000,0.838074951171875,0.03782850313484668,-0.08646656957566738,-0.28385690830908716
1733851072510044200,0.848044189453125,-0.027218261793255805,-0.11468261023461818,-0.4295992581959814
1733851072520012000,0.858011962890625,0.06153788002431392,-0.11812398286014794,-0.5129506183605641
1733851072529981200,0.867981201171875,0.2524222709298134,-0.11907996841073036,-0.5541336926203221
1733851072539950000,0.8779501953125,0.45713820331096644,-0.11996142742037773,-0.5797518257405608
1733851072549918200,0.887918212890625,0.5315028316825628,-0.1822530484214425,-0.5730158685490488
1733851072559887000,0.89788720703125,0.4470364960134029,-0.26096418156474827,-0.5231754405811428
1733851072569855200,0.907855224609375,0.2521983990460634,-0.33135902952253815,-0.46026992546543477
1733851072579824000,0.91782421875,0.050829439005255696,-0.4025824372589588,-0.387280677100271
1733851072589793300,0.927793212890625,-0.06666939769387245,-0.4411147047489881,-0.3211615337003022
1733851072599761200,0.93776123046875,-0.05140285497903824,-0.35927900984436273,-0.19490714361555872
1733851072609730300,0.947730224609375,0.018579028263688086,-0.17035744344443082,-0.06534713611416518
1733851072619698200,0.9576982421875,0.031522096467018125,0.0467336941242218,-0.0062993924051523206
1733851072629667300,0.967667236328125,-0.05935059911310672,0.25279870302677154,-0.01494943958967924
1733851072639636200,0.97763623046875,-0.20287819555997846,0.39172669672369953,-0.030699089646339415
1733851072649604400,0.987604248046875,-0.2721200740903616,0.45209582522958514,-0.11608290548659861
1733851072659574300,0.99757421875,-0.2932552165776491,0.47770957443565126,-0.17699096317477522
1733851072669542400,1.00754248046875,-0.268012638771534,0.5003486917451023,-0.22800774144567548
1733851072679511300,1.01751123046875,-0.22016133879423141,0.5064087224364281,-0.2520341483950615
1733851072689480200,1.027480224609375,-0.13329437172412872,0.4783753448680043,-0.23744579720273612
1733851072699448300,1.0374482421875,-0.06921089887022971,0.40157647508680816,-0.14401311494149266
1733851072709417200,1.047417236328125,-0.03609305764436722,0.3419391679868102,-0.042837052011862393
1733851072719385300,1.05738525390625,-0.005219195953011513,0.3031464959949255,0.00809876997731626
1733851072729354500,1.0673544921875,0.024255320334434508,0.21997779892086983,0.0799021330261603
1733851072739323400,1.077323486328125,0.04290975192189216,0.10492840120047331,0.12502006251681597
1733851072749291300,1.087291259765625,0.06539806258380412,0.0020487492233514783,0.11834522439539431
1733851072759260200,1.09726025390625,0.07216682606637477,-0.12375818935483693,0.1007535632012412
1733851072769228300,1.107228271484375,0.06494038194417953,-0.25568302629142997,0.07822970630191266
1733851072779197200,1.117197265625,0.12444061866104603,-0.34974370425790546,0.0596062543746084
1733851072789166300,1.127166259765625,0.2419295184880495,-0.37977965382039547,0.08118837344441562
1733851072799134200,1.13713427734375,0.37477263931334015,-0.3043213849931955,0.09722126088924705
1733851072809103400,1.147103271484375,0.41692777347564697,-0.17137275796681642,0.14327990529611706
1733851072819071200,1.1570712890625,0.3784714938312769,-0.03730915543586016,0.1377633703643456
1733851072829040400,1.167040283203125,0.2380827799320221,0.0586173164024949,0.10087521681953221
1733851072839009300,1.17700927734375,-0.015458265894651413,0.06477203963994979,0.005598952518217265
1733851072848977400,1.186977294921875,-0.20311083527207374,0.026636077991127965,-0.11694204306658357
1733851072858946300,1.1969462890625,-0.2995592851579189,-0.012509645222127436,-0.20737072120625524
1733851072868914400,1.20691455078125,-0.30584231095016,-0.01952215433269739,-0.24952132532391696
1733851072878883300,1.21688330078125,-0.17587854495346544,0.02537497201412916,-0.21380963167995212
1733851072888852500,1.2268525390625,0.03146013714671135,0.09000497283488512,-0.14366039251368493
1733851072898820400,1.2368203125,0.17124620897769927,0.15296002618074417,-0.05856452676933258
1733851072908789500,1.24678955078125,0.21567571781277656,0.19002046755254268,0.007294687052816152
1733851072918757000,1.256757080078125,0.16309505122601986,0.18620207830816507,0.08111720790434629
1733851072928726300,1.266726318359375,0.05437982496321201,0.16751345219016073,0.1276619553277269
1733851072938694100,1.276694091796875,-0.01165244387090206,0.14840221674591303,0.1407310245309025
1733851072948663300,1.286663330078125,-0.019886603730916975,0.12221680513173341,0.15448825866132973
1733851072958632200,1.296632080078125,0.006174889242649078,0.11541443164050579,0.14463413291666655
1733851072968600300,1.306600341796875,0.028064064967632293,0.10133037670850753,0.10077011247724293
1733851072978569200,1.3165693359375,0.026826047605276106,0.08402209903299808,0.023153423507139087
1733851072988538400,1.326538330078125,-0.03577390869259834,0.0659068888887763,-0.0777580336695537
1733851072998506200,1.33650634765625,-0.08364449789226054,0.03153144881725311,-0.21691245653349905
1733851073008475400,1.346475341796875,-0.12675181821286677,-0.020479308927059174,-0.308364303708449
1733851073018443300,1.356443359375,-0.16083236699104309,-0.0572732083171606,-0.3215824625261128
1733851073028412400,1.366412353515625,-0.18181319569945334,-0.06461012707650661,-0.31571594511289147
1733851073038380300,1.37638037109375,-0.15758768598139286,-0.09706190560907126,-0.30314149102624505
1733851073048349400,1.386349365234375,-0.037028877189755435,-0.1641281936660409,-0.2848245112322271
1733851073058318300,1.396318359375,0.011956979775428771,-0.1775023467630148,-0.245279997959733
1733851073068286200,1.4062861328125,-0.025914777979254722,-0.15627660338282584,-0.17550382988955823
1733851073078255000,1.416255126953125,-0.029945640930533406,-0.1079743447676301,-0.11012569584893062
1733851073088223200,1.42622314453125,-0.00445814845263958,-0.0641638446137309,-0.036362942360620945
1733851073098192100,1.436192138671875,0.030621932756900786,-0.0752615772113204,0.05599759889077395
1733851073108161300,1.446161376953125,0.042300680112838746,-0.06714198364168406,0.15324631404252723
1733851073118129200,1.456129150390625,0.0324076471298933,-0.07667670470625161,0.20597621637424454
1733851073128098300,1.466098388671875,0.02397416530549526,-0.1621051634058356,0.22379587763799352
1733851073138066200,1.476066162109375,0.1749865645498037,-0.27837591961473224,0.1873347173335962
1733851073148035300,1.486035400390625,0.2899666964262724,-0.252146961119771,0.13236184011437
1733851073158004200,1.496004150390625,0.26542554488778114,-0.1595882121488452,0.0941522835063748
1733851073167972400,1.505972412109375,0.22665596151053904,-0.10314034873992205,0.0085972575513646
1733851073177941200,1.515941162109375,0.17647534180283544,-0.06094342126250267,-0.06791691353693605
1733851073187909400,1.525909423828125,0.06999941889941692,0.00033989947885274885,-0.08486315296702086
1733851073197878300,1.535878173828125,0.012664835783839225,0.04209814327806234,-0.08984769991394131
1733851073207847400,1.545847412109375,-0.013084522500634193,0.1148036062657833,-0.10650186106227337
1733851073217815300,1.555815185546875,-0.06647475190460682,0.1839016924113035,-0.11525880268737673
1733851073227784400,1.565784423828125,-0.0325514395147562,0.19173720834255217,-0.16457882351037115
1733851073237752300,1.57575244140625,0.052850715699791904,0.17058686828613281,-0.22950265617854892
1733851073247721200,1.58572119140625,0.0010550620108842848,0.17977029169499872,-0.23379892860036341
1733851073257690000,1.595690185546875,-0.1478209097266197,0.18690087422728538,-0.21737583626154808
1733851073267658200,1.605658203125,-0.2233499057024717,0.08758826708197594,-0.20520229112599045
1733851073277627100,1.615627197265625,-0.21295243032872677,-0.005716331820189952,-0.1531216099506244
1733851073287595300,1.62559521484375,-0.20552374163269996,-0.05637158330231905,-0.06519223781339824
1733851073297564200,1.635564208984375,-0.15259119286835193,-0.11192249787151813,0.000742233202047646
1733851073307533300,1.645533203125,-0.033928573086857795,-0.15302987654656172,0.06146744513660669
1733851073317501200,1.655501220703125,-0.0050362406015396115,-0.08723083194643258,0.12133936471007764
1733851073327470300,1.66547021484375,-0.01642740318775177,-0.005652034412324428,0.15164949157144875
1733851073337438500,1.6754384765625,0.002450315761566162,0.06070347502678632,0.08315083262380212
1733851073347407400,1.685407470703125,0.04499649506807327,0.15408464629650115,-0.018803813462890683
1733851073357376300,1.695376220703125,0.0031231004565954205,0.21997662987709043,-0.12470854888223111
1733851073367344400,1.705344482421875,-0.053769584110379215,0.2718319047987461,-0.17354652180932462
1733851073377313300,1.715313232421875,-0.08714753757715225,0.26131723278611896,-0.16391732739433645
1733851073387281200,1.72528125,-0.09308744902014732,0.20632278305590152,-0.12779950063489376
1733851073397250000,1.73525,-0.0616173750013113,0.14699381125271319,-0.07062277496214955
1733851073407219200,1.74521923828125,0.014600772282481193,0.07725012068003416,-0.03789046245515346
1733851073417187300,1.755187255859375,0.09892857626378536,0.01260579907298088,-0.04082841560319066
1733851073427156200,1.76515625,0.22628829724192617,-0.020692659416794774,-0.056847968642413614
1733851073437124400,1.775124267578125,0.2738216173112392,-0.018517068943381308,-0.08763415205031633
1733851073447093200,1.78509326171875,0.18827099353671073,-0.0064200961753726,-0.13925046711694447
1733851073457062100,1.795062255859375,0.20687515624165534,-0.01634644690603018,-0.1715190345697105
1733851073467030300,1.8050302734375,0.19271394442021847,-0.02020575268268585,-0.19613394546415655
1733851073476999200,1.814999267578125,0.20776713664531707,-0.016806757894158364,-0.16072634933330118
1733851073486967300,1.82496728515625,0.2861532756179571,-0.033277415701746936,-0.1482562689365819
1733851073496936400,1.8349365234375,0.3530424535423517,-0.052663668695092196,-0.14968191782552748
1733851073506905300,1.8449052734375,0.327802798345685,-0.06300386092364788,-0.127834243154712
1733851073516873500,1.85487353515625,0.24430910710096357,-0.06242050807774067,-0.13414189193155615
1733851073526842400,1.86484228515625,0.041643092986941334,-0.0482303624227643,-0.16678648962248116
1733851073536810500,1.874810546875,-0.1286111823439598,-0.06871142491549254,-0.20705464099440724
1733851073546779400,1.884779296875,-0.26326632102727887,-0.10589198553562164,-0.23348927812930195
1733851073556748300,1.894748291015625,-0.4346995770096779,-0.08192717258036136,-0.23155034595597535
1733851073566716200,1.904716064453125,-0.3044651773780584,-0.0756491152241826,-0.20833426900878546
1733851073576685300,1.914685302734375,-0.30909225265681745,-0.0884001679867506,-0.1279941464241594
1733851073586653200,1.924653076171875,-0.27226211290955543,-0.0799473969399929,0.015594678690657018
1733851073596622300,1.934622314453125,-0.16605039390027523,-0.07292962713241577,0.15396565955933184
1733851073606591200,1.94459130859375,-0.24419161820113658,-0.07559709277600049,0.3008994842531159
1733851073616559400,1.954559326171875,-0.3460755371391773,-0.057118017755448815,0.4023377052502706
1733851073626528300,1.9645283203125,-0.39163258869946,-0.06083206984251737,0.4581090941697359
1733851073636496400,1.974496337890625,-0.40910628606975075,-0.06047726505547762,0.478161044530198
1733851073646465300,1.98446533203125,-0.5545119513481855,-0.04894669399857521,0.48612347477674483
1733851073656432600,1.9944326171875,-0.43327451264262196,-0.04327712392956018,0.4225279681028798
1733851073666400800,2.00440087890625,-0.4196498919159174,-0.03253536516278982,0.3441656118646264
1733851073676369700,2.01436962890625,-0.363996978276968,-0.05848842932581901,0.2532864134784788
1733851073686337800,2.024337890625,-0.2166752502441406,-0.07669891653805971,0.13679655289249493
1733851073696306700,2.034306640625,-0.11132160936892031,-0.08425356970131397,0.01325158616323024
1733851073706275600,2.044275634765625,0.05829436805844307,-0.09676438396722077,-0.1917434188876301
1733851073716243700,2.05424365234375,0.25578853249251843,-0.11509148329645394,-0.3852912568487227
1733851073726212900,2.064212890625,0.2888239561319351,-0.12772533942013978,-0.5260070107452571
1733851073736180700,2.0741806640625,0.07950432934761047,-0.20354425825327632,-0.5664132554136216
1733851073746150000,2.08414990234375,0.007227613165974617,-0.263532863008976,-0.5800385702600702
1733851073756118800,2.094118896484375,-0.08339139991402626,-0.23011194718331096,-0.5599225782200694
1733851073766087000,2.1040869140625,-0.053314826080203055,-0.11556611507087945,-0.47572059257552024
1733851073776055800,2.114055908203125,0.1414817698329687,0.019703063857555388,-0.3716432552464306
1733851073786023700,2.124023681640625,0.19084113628566263,0.1438824012339115,-0.2202996512863785
1733851073795992600,2.13399267578125,0.15140344438850878,0.19333441440612076,-0.0528803801856935
1733851073805961700,2.143961669921875,0.19325112003684042,0.14743191040903328,0.015156360338628291
1733851073815929600,2.1539296875,0.06553484070599079,0.10063625696450472,0.03371332290098071
1733851073825898800,2.163898681640625,-0.020533669462800025,0.06305120719671249,-0.002644084767997265
1733851073835866600,2.17386669921875,0.14402444005310536,-0.011140987217426299,-0.08260613128785044
1733851073845835800,2.183835693359375,0.03483633558154106,-0.017194003646075724,-0.08483330581802874
1733851073855804700,2.1938046875,0.07460019069314003,0.011455752255022525,-0.08298139434102922
1733851073865772800,2.203772705078125,0.13097031269073486,0.04471095612496137,-0.06387176633197814
1733851073875741700,2.21374169921875,0.056098903840780256,0.03888590323328971,-0.022474172538705168
1733851073885709800,2.223709716796875,0.022281974434852598,0.010913900463283062,0.02594955703169107
1733851073895678700,2.2336787109375,0.013626958814263342,0.006530278551578521,0.038436223237030206
1733851073905647900,2.24364794921875,-0.01570142700076103,-0.006947334919869899,0.04147968258615583
1733851073915615700,2.25361572265625,-0.021102993783354757,-0.0007575403690338134,0.01403543001729995
1733851073925585000,2.2635849609375,-0.0014957915157079696,0.0433873063057661,0.005083733005076647
1733851073935552500,2.273552490234375,-0.060005848151445385,0.09216565800011157,-0.0014736162165179848
1733851073945521700,2.283521728515625,-0.15391104329526423,0.15309680430293082,0.0016217194503173231
1733851073955490600,2.293490478515625,-0.2665723768353462,0.18280483708530662,0.0010640490349382162
1733851073965458700,2.303458740234375,-0.4747212062746286,0.19444909764975307,-0.007336991824582219
1733851073975427600,2.313427490234375,-0.5920137067466974,0.18455548014491796,-0.0075087681949138636
1733851073985395700,2.323395751953125,-0.5722796632289886,0.15225976895689963,-0.0009792933609336614
1733851073995364600,2.333364501953125,-0.589705429804325,0.07070785942971707,0.03326108562145382
1733851074005333800,2.343333740234375,-0.3504898464500904,0.015264496888220309,0.06164046361595392
1733851074015301600,2.353301513671875,-0.19478548999726772,0.0029597265884280205,0.1423364869661629
1733851074025270800,2.363270751953125,-0.013613514810800552,0.03240677034705877,0.20455928051471708
1733851074035238700,2.37323876953125,0.1599549996346235,0.028361586609482764,0.22881368753369896
1733851074045207800,2.383207763671875,0.18906594330668447,0.026142156994342802,0.21936006888132542
1733851074055176700,2.3931767578125,0.1682820984750986,0.011247370201349258,0.1883518036879599
1733851074065144800,2.403144775390625,0.22012919009029863,0.02020049198567867,0.07724537143968045
1733851074075113700,2.41311376953125,0.03223053699731827,0.0004845686465501785,0.010617511332593858
1733851074085081900,2.423081787109375,0.06415069287121296,0.006877484554052352,-0.05591156457513571
1733851074095050800,2.43305078125,0.11742284885346889,0.024207389539480206,-0.11238258966393769
1733851074105020000,2.44302001953125,0.17520283764898775,0.10765051964074372,-0.18972952178195118
1733851074114987500,2.452987548828125,0.2932978866755962,0.19246698392182587,-0.2429948826972395
1733851074124956700,2.462956787109375,0.25053718783557416,0.29285598812699315,-0.2708738003563136
1733851074134924500,2.472924560546875,0.18028700904548167,0.35433015526533124,-0.33375827268399294
1733851074144893700,2.482893798828125,0.15746668995022772,0.3499380577862263,-0.38014680663235484
1733851074154862600,2.492862548828125,0.012503507742285728,0.3100879856958985,-0.3957350555822253
1733851074164830700,2.502830810546875,-0.1180371813595295,0.2545890935748815,-0.37200602414421735
1733851074174799600,2.512799560546875,-0.06968085446953773,0.19507804320305586,-0.3254771318770945
1733851074184767700,2.522767822265625,-0.07867197017669678,0.15032704732865093,-0.29739465446993707
1733851074194736600,2.532736572265625,-0.059548752033710475,0.11550707836002111,-0.2407522914022207
1733851074204705800,2.542705810546875,0.008253449082374572,0.12181377728879451,-0.19553857338689268
1733851074214673700,2.552673583984375,0.14894669888615608,0.13183482056558132,-0.16630772966220975
1733851074224642800,2.562642822265625,0.29034780469834803,0.13816811524033545,-0.15671075701639056
1733851074234610700,2.572610595703125,0.18559797493517396,0.1377756087914109,-0.13797485769055784
1733851074244579800,2.582579833984375,0.18438450749218463,0.17024959915578364,-0.1350731448996812
1733851074254548700,2.592548828125,0.1424094060719013,0.14907733952850102,-0.13143055061362682
1733851074264516600,2.6025166015625,0.024016250881552695,0.13037965332120657,-0.09363536522649228
1733851074274485500,2.612485595703125,-0.08550035489201545,0.13489566944092513,-0.06012435996457934
1733851074284453600,2.62245361328125,-0.15468436575531957,0.13752046498656273,-0.029849706275388597
1733851074294422500,2.632422607421875,-0.22620120348036288,0.12766513366550206,0.005272825836390257
1733851074304390700,2.642390625,-0.19244681791663168,0.11472411128878593,-0.008721797246485948
1733851074314359600,2.652359619140625,-0.07341244221329689,0.13768793050795794,-0.021705562786385416
1733851074324328700,2.66232861328125,0.08459668405055999,0.1437026607528329,-0.05872757184393704
1733851074334296600,2.672296630859375,0.16075053392648697,0.14083148923069239,-0.11332410829775034
1733851074344265700,2.682265625,0.26471359722614285,0.12183218972831963,-0.14119513491131364
1733851074354233900,2.69223388671875,0.23953765491545198,0.11813655008077621,-0.15312814928926527
1733851074364202800,2.70220263671875,0.23050562267601488,0.14759002358019352,-0.1846172933347523
1733851074374171600,2.712171630859375,0.33303134664893147,0.23121815485954283,-0.23953823943734168
1733851074384139800,2.722139892578125,0.2750169645756483,0.26509762810766696,-0.22890111008882522
1733851074394108700,2.732108642578125,0.26847967176139353,0.2445738955169916,-0.2034596487097442
1733851074404077800,2.742077880859375,0.2655436183094978,0.19074995087087154,-0.27962255867496133
1733851074414045700,2.752045654296875,0.12968845618665217,0.18585516456663606,-0.33869521762952204
1733851074424014800,2.762014892578125,0.05394552519917488,0.2046416981011629,-0.35954730539172886
1733851074433982700,2.771982666015625,0.017925532791018484,0.21387042195647954,-0.41779520395994185
1733851074443951600,2.78195166015625,-0.015422025537490844,0.1832157559737563,-0.4517308643747121
1733851074453919700,2.791919677734375,0.04862403791546821,0.16720160976201295,-0.4706353982657194
1733851074463888600,2.801888671875,0.1501648425042629,0.17420622782707212,-0.43838666802458465
1733851074473857500,2.811857421875,0.16996610603928564,0.16315701054632661,-0.38469310829248277
1733851074483825700,2.82182568359375,0.2481470778286457,0.1937511785134673,-0.3639098114501685
1733851074493794600,2.831794677734375,0.1844727702975273,0.15042992318123577,-0.28254257430750873
1733851074503762700,2.8417626953125,0.05840308912992477,0.0923784239679575,-0.2324608483970165
1733851074513731800,2.85173193359375,0.05402502017617225,0.06250672505646944,-0.231778272960335
1733851074523700700,2.86170068359375,-0.016219897916913032,0.012659867347776889,-0.2259191716685891
1733851074533668900,2.8716689453125,-0.07834346887469291,0.012589432460069655,-0.2383806669000536
1733851074543637800,2.8816376953125,-0.13587678943276404,0.0261401111677289,-0.22437026172615587
1733851074553606000,2.89160595703125,-0.32213176697194573,-0.02839344305247068,-0.22046686107944696
1733851074563574800,2.90157470703125,-0.38618309112191196,-0.039865854181349275,-0.20700057271961123
1733851074573543700,2.911543701171875,-0.452390716522932,-0.07296995914280414,-0.142914944441244
1733851074583511600,2.921511474609375,-0.45351416759490965,-0.10010814143717288,-0.059991143772657955
1733851074593480700,2.931480712890625,-0.3188011612445116,-0.11105126799494028,0.05508730651228688
1733851074603448600,2.941448486328125,-0.2239776822119951,-0.09604629882574081,0.20749522436875847
1733851074613417700,2.951417724609375,-0.10630115085840225,-0.07413023509383201,0.349921691173315
1733851074623386600,2.96138671875,0.019506664502620695,-0.04693447739332914,0.4344007767261937
1733851074633354800,2.971354736328125,-0.13386720317602158,-0.12927373790591953,0.5217588517814874
1733851074643323600,2.98132373046875,-0.17066870135068893,-0.1958756233215332,0.5430483080476523
1733851074653291800,2.991291748046875,-0.2852081037223339,-0.21784283271878957,0.47553752762619406
1733851074663261000,3.001260986328125,-0.25466800402998924,-0.18676555740982292,0.355960679076612
1733851074673229800,3.011229736328125,-0.13175123393535612,-0.17882687336504458,0.17549590231142936
1733851074683198000,3.021197998046875,0.03803951553702354,-0.15357845034003256,0.029266554358880967
1733851074693166800,3.031166748046875,0.20429507662057875,-0.10814882455170154,-0.0030864536740584296
1733851074703135000,3.041135009765625,0.31406361132860183,-0.08527648300826549,0.02800335003962973
1733851074713104100,3.051104248046875,0.4047732253015041,-0.1056844802647829,0.1253929509498179
1733851074723073000,3.061072998046875,0.5174690456330776,-0.056684887035191055,0.22658307893741875
1733851074733041200,3.071041259765625,0.5483008217483759,-0.04219985008686781,0.3026853630228899
1733851074743010000,3.081010009765625,0.6305009660512209,-0.022213585373759268,0.31394977569058535
1733851074752978200,3.090978271484375,0.7138286530792712,0.04031710508018732,0.23650367578072473
1733851074762947000,3.100947021484375,0.7640875987201928,0.05503039782643318,0.11581501179803162
1733851074772916000,3.110916015625,0.7769991027414799,0.12018003860712051,-0.06626306364899501
1733851074782884000,3.120884033203125,0.6307640009015798,0.1555000660523772,-0.31780783935822543
1733851074792853000,3.13085302734375,0.5147177010983228,0.14359510872513054,-0.5636448501462117
1733851074802820900,3.14082080078125,0.39683307995200157,0.14397943186759948,-0.7565557419106363
1733851074812790300,3.150790283203125,0.2501210082501173,0.10696545998603105,-0.8752972721472382
1733851074822759200,3.16075927734375,0.16869418640732764,0.10437310540527105,-0.8433611880518496
1733851074832727000,3.17072705078125,0.10257073215842247,0.09102437901049852,-0.7049285766564309
1733851074842696000,3.180696044921875,0.11707096667587756,0.08905161763280629,-0.5243648330288008
1733851074852664000,3.1906640625,0.17277590276300905,0.09905454073101282,-0.35351460109874605
1733851074862633000,3.200633056640625,0.2806862423837185,0.1210582827463746,-0.2194639676472172
1733851074872602000,3.21060205078125,0.32009704627394675,0.1403814073756337,-0.13250398853141815
1733851074882570000,3.220570068359375,0.4116045326262712,0.1467696471080184,-0.09455079957097769
1733851074892539100,3.2305390625,0.3246493027508259,0.14705693961679936,-0.11570373344328254
1733851074902507000,3.240507080078125,0.14763561628758906,0.10225129094570874,-0.12854600815325976
1733851074912476200,3.25047607421875,-0.04620061016082763,0.09453034130483866,-0.1468844691267237
1733851074922445000,3.260445068359375,-0.1708615935742855,0.06317454131543636,-0.16214383318210018
1733851074932413200,3.2704130859375,-0.2818307362437248,0.0198158765822649,-0.16170186156826094
1733851074942382000,3.280382080078125,-0.2906540941685438,0.010683306577801704,-0.13921524967309087
1733851074952350200,3.29035009765625,-0.2734089448571205,0.016708265955746173,-0.09797505666492506
1733851074962319000,3.300319091796875,-0.17655016060471534,-0.012389818234741687,-0.013201152883935719
1733851074972288300,3.310288330078125,-0.13688158256113528,-0.017118600322306155,0.0827769121443387
1733851074982255900,3.320255859375,-0.16750877601504324,-0.0274471021130681,0.18276843233136458
1733851074992225000,3.33022509765625,-0.14774258379340172,-0.05921995847076177,0.2503346692671068
1733851075002193000,3.34019287109375,-0.1355079561203718,-0.08912234478145838,0.27350444112084804
1733851075012162000,3.350162109375,-0.042265608799457545,-0.10646861637979745,0.2926519717211835
1733851075022131000,3.360130859375,0.13282149351537226,-0.08828384813070296,0.29035485549364237
1733851075032099000,3.37009912109375,0.33509470891952514,-0.05103782105892896,0.22630575983338055
1733851075042068000,3.38006787109375,0.4482920490324497,-0.015419687449932098,0.13423380799870938
1733851075052036000,3.3900361328125,0.4376899909973144,0.010587737248837947,0.003914287366904318
1733851075062005000,3.4000048828125,0.21572832478284834,0.034929859083890916,-0.1719022434673272
1733851075071974100,3.40997412109375,-0.04676116665303707,0.05238952792882919,-0.31768501669615506
1733851075081942000,3.41994189453125,-0.24950901383161544,0.09405921666175127,-0.427583826720342
1733851075091911200,3.4299111328125,-0.30942133848071096,0.116296182911098,-0.48724312645643947
1733851075101879000,3.439879150390625,-0.2316507010579109,0.14547931503653524,-0.43456842491067943
1733851075111848200,3.44984814453125,-0.06288052680492401,0.17421236530691384,-0.31084022883530704
1733851075121817000,3.459817138671875,0.10092530303895472,0.15248451762348414,-0.2150228616609238
1733851075131785200,3.46978515625,0.24914719478189945,0.127443307608366,-0.1538972704982385
1733851075141754000,3.479754150390625,0.42655251091122626,0.06889759513735771,-0.1732137096583843
1733851075151722000,3.489721923828125,0.445141476047039,-0.020507950499653815,-0.23942608429975806
1733851075161691000,3.49969091796875,0.397031817394495,-0.09800210906863212,-0.3072471727794036
1733851075171660000,3.509659912109375,0.18884148690104482,-0.13661942449361086,-0.42656723355632276
1733851075181628000,3.5196279296875,-0.037511692270636554,-0.1460249662205577,-0.5491732572013512
1733851075191597000,3.52959716796875,-0.22256781541407106,-0.09831628958433866,-0.6146319273985922
1733851075201565000,3.53956494140625,-0.2745668827205896,-0.012428104418516158,-0.5841175832020119
1733851075211534000,3.5495341796875,-0.2421954759478569,0.13873364016860723,-0.47338674280047416
1733851075221503000,3.5595029296875,-0.12273907544016838,0.2909808419048786,-0.26371883230144155
1733851075231471000,3.56947119140625,0.10179214900135994,0.37734395110607144,-0.08983449337249622
1733851075241440000,3.57943994140625,0.2496802787452936,0.36079204475581644,0.025227909959945827
1733851075251408100,3.589408203125,0.39762218450307846,0.2998994768977165,0.0424171826319769
1733851075261377000,3.599376953125,0.2748287485271692,0.06479512825459241,0.054541883657127616
1733851075271345200,3.60934521484375,0.06717033295333386,-0.06604483605474233,0.04827971798982471
1733851075281314000,3.61931396484375,-0.07989362092614173,-0.08280980063378811,-0.02069965541316196
1733851075291283200,3.629283203125,-0.1616588809430599,-0.059788406008481974,-0.10769024886293337
1733851075301250800,3.639250732421875,-0.22458733854293822,-0.0048345805495977395,-0.17404447966041042
1733851075311220000,3.649219970703125,-0.14938859743475913,-0.027169454215466973,-0.16668993391282855
1733851075321188900,3.65918896484375,-0.007135258707404136,-0.06861731689125299,-0.11701342780236154
1733851075331157000,3.669156982421875,0.0642184974104166,-0.09916764571666717,-0.06276617971025407
1733851075341126000,3.6791259765625,0.18967326155006883,-0.11844517763853073,0.020501922617666424
1733851075351094000,3.689093994140625,0.2811094362318516,-0.12474252421706915,0.07850454118791968
1733851075361063000,3.69906298828125,0.27918051399588584,-0.18829437441229818,0.1528097309898585
1733851075371032000,3.709031982421875,0.27054303403198715,-0.11088321795165539,0.20938443564884363
1733851075381000000,3.719,0.26958149552345273,0.025412673676013946,0.1954618183562532
1733851075390969000,3.728968994140625,0.2084276463806629,0.14007541016638278,0.14122125573325903
1733851075400937000,3.73893701171875,0.21037702688276766,0.25845892074555155,0.012235285260155796
1733851075410906000,3.748906005859375,0.18916005133092403,0.28728549451828,-0.11877126778773962
1733851075420875000,3.758875,0.07724339867830277,0.25909254247397184,-0.22890476335063575
1733851075430843100,3.768843017578125,0.12360416783690452,0.20025749166756868,-0.3092062344253063
1733851075440812000,3.77881201171875,0.11981646599173545,0.1446411106467247,-0.34858609518799927
1733851075450780200,3.7887802734375,0.14844342553913592,0.06805208422392606,-0.3635895299872383
1733851075460749000,3.7987490234375,0.18969371981620786,0.027263562239706513,-0.35170079314243047
1733851075470718200,3.80871826171875,0.2041185510098934,0.03455284246504307,-0.3389352369304746
1733851075480685800,3.818685791015625,0.1893091044127941,0.03380962288230657,-0.2958989725520834
1733851075490655000,3.828655029296875,0.10323182641565799,0.06847907746434212,-0.20897950810976326
1733851075500623000,3.838623046875,0.12007482466697691,0.1449699042096734,-0.12526329668816177
1733851075510592000,3.848592041015625,0.09578209493160247,0.20292086565792558,-0.002750979208573699
1733851075520560000,3.85856005859375,0.08044014889299869,0.21593027709573506,0.10126184151694179
1733851075530529000,3.868529052734375,0.05859130517840385,0.2030976835295558,0.24831826967708764
1733851075540498000,3.878497802734375,0.052045244535803795,0.19504647902101277,0.34220286042429504
1733851075550466000,3.888466064453125,0.10789864918291568,0.17043956876993177,0.4178725069798529
1733851075560435000,3.89843505859375,0.10936521460413932,0.08124883492738008,0.5044930980734527
1733851075570404000,3.908404052734375,0.16424188317358493,0.05484451986551284,0.5220378879185765
1733851075580372000,3.9183720703125,0.21872107685804365,0.009129062873125076,0.4235594665750861
1733851075590341000,3.928341064453125,0.24652444506287574,-0.0433940283074975,0.21982743066474794
1733851075600309200,3.938309326171875,0.18129472478330133,-0.056391164785623546,-0.09254230929277837
1733851075610278100,3.948278076171875,0.059655135017633434,-0.07606149541735649,-0.4313374801654368
1733851075620247000,3.9582470703125,-0.053881227791309355,-0.0646451983898878,-0.6726703479345888
1733851075630215000,3.96821484375,-0.1136053363919258,0.014262918630242347,-0.7572212200820445
1733851075640183800,3.978183837890625,-0.18881752150356768,0.08988602263033389,-0.6751226364575326
1733851075650152000,3.98815185546875,-0.2995201221913099,0.15409750577807427,-0.5020212280672043
1733851075660121900,3.998121826171875,-0.26588673265874385,0.20474925012886522,-0.3173660138748586
1733851075670089700,4.00808984375,-0.2246405300348997,0.19864684160053728,-0.16835187577567995
1733851075680058600,4.01805859375,-0.17391338236033915,0.1367804602742195,-0.1178104599315673
1733851075690027800,4.02802783203125,-0.13487901056706905,0.08726765682548283,-0.06816613905765116
1733851075699995600,4.03799560546875,-0.1364402685344219,0.02883884873241186,-0.04174947597086429
1733851075709964800,4.04796484375,-0.06286591375768184,-0.00913110869973898,-0.06522453264780342
1733851075719932700,4.0579326171875,-0.08663491187989711,-0.04029518550932407,-0.06974661318212746
1733851075729901800,4.06790185546875,-0.11938859596848488,-0.06248831261694431,-0.039249841174855825
1733851075739870700,4.07787060546875,-0.07658113537728786,-0.04872983637750149,0.03949716699942946
1733851075749838800,4.0878388671875,-0.08343933070898056,-0.02675619723945856,0.11103110198974608
1733851075759807700,4.097807861328125,-0.1024345385581255,-0.035085634167492386,0.20941716887466608
1733851075769775900,4.10777587890625,-0.07992167797684668,-0.06203209328204393,0.29709676750190556
1733851075779744800,4.117744873046875,-0.033333529803156854,-0.02954991961121559,0.29944807986840605
1733851075789714000,4.1277138671875,0.01642915675342083,0.0013303718209266662,0.2774756097741425
1733851075799681800,4.137681884765625,0.12789748111665247,-0.0016039280652999878,0.17377353549823163
1733851075809651000,4.14765087890625,0.1298784258008003,-0.028304303464293478,0.03110796270817518
1733851075819618800,4.157618896484375,0.10908581314086914,-0.05737725321352481,-0.10341178609244525
1733851075829588000,4.167587890625,0.09828384861946106,-0.06501052457094192,-0.1613908045914024
1733851075839556900,4.177556884765625,0.07279460257589816,-0.0037926702812314033,-0.17117584715522824
1733851075849524700,4.187524658203125,0.0717734428346157,0.0292988674595952,-0.12769888980463145
1733851075859493600,4.19749365234375,0.08290800031125545,0.03225713274329901,-0.10698328790366649
1733851075869461800,4.207461669921875,0.08312193532288074,0.0398430578276515,-0.08042692408524453
1733851075879430700,4.2174306640625,0.09825462252497673,0.025829145522415636,-0.05598557965941727
1733851075889399800,4.22739990234375,0.14986439825296402,0.044730537608265876,-0.022404212575033305
1733851075899368000,4.237367919921875,0.2104489230751991,0.03663374039232731,-0.040985359730571505
1733851075909336800,4.2473369140625,0.323890008816123,0.008965981265902518,-0.09489340246357023
1733851075919305000,4.257304931640625,0.396464831161499,-0.008273907348513602,-0.16962722947373984
1733851075929273900,4.26727392578125,0.42900282667279244,-0.0031485271587967873,-0.24761494371332227
1733851075939242800,4.27724267578125,0.3617997604936361,0.014023556916415691,-0.33137978004962204
1733851075949211000,4.2872109375,0.26341245149970055,0.03945113590061664,-0.4071612164165824
1733851075959179800,4.2971796875,0.18049217622876165,0.06382131478637457,-0.4476948137916624
1733851075969148000,4.30714794921875,0.18253800284266472,0.10802022973597049,-0.4422467775188386
1733851075979116800,4.31711669921875,0.13839783234298228,0.13609569288045167,-0.3538114651534706
1733851075989086000,4.3270859375,0.05094225172996521,0.1332739134579897,-0.23677425461672244
1733851075999053800,4.3370537109375,0.023826281267404555,0.13001315809637307,-0.15677059744484723
1733851076009022700,4.347022705078125,0.05626081640422344,0.06350304261744022,-0.054321518904715774
1733851076018990800,4.356990966796875,0.10633856025934219,0.035602643778920175,0.04904372463226318
1733851076028959700,4.366959716796875,0.1732277381837368,0.004328092332184314,0.1353512311886996
1733851076038928600,4.3769287109375,0.24845804347395894,-0.032660160586237906,0.20600494927838445
1733851076048896800,4.386896728515625,0.2609960380077362,-0.046513037110865116,0.2062010563723743
1733851076058865700,4.39686572265625,0.2531079151064157,-0.09615209728777407,0.15135186033174394
1733851076068833800,4.406833740234375,0.10841770462095737,-0.14383797757029532,0.058383726842328905
1733851076078803000,4.416802978515625,0.039946810463070866,-0.1361067987963557,-0.018871800665184853
1733851076088771800,4.426771728515625,-0.030407413223385808,-0.10278203682154416,-0.09731712247915565
1733851076098740000,4.436739990234375,-0.08887246167361736,-0.07363105340003967,-0.13589922046028077
1733851076108708900,4.446708984375,-0.07734335192143917,-0.05503332043588161,-0.1449327870696783
1733851076118677000,4.456677001953125,-0.04353460582196712,-0.07368892106711863,-0.15130948249474166
1733851076128646000,4.46664599609375,-0.0037380174845457075,-0.03641279111802578,-0.1343799019385129
1733851076138614800,4.47661474609375,0.012077391284704208,-0.012679448831081389,-0.06335691214501857
1733851076148583000,4.4865830078125,-0.036307577177882196,0.00691986239105463,0.006573094779998063
1733851076158551800,4.4965517578125,-0.0224736976146698,0.04538929377794265,0.05561009741052985
1733851076168519700,4.506519775390625,0.02026245130598545,0.03345248000770807,0.04023505281992256
1733851076178488800,4.51648876953125,-0.0005851064115762711,-0.02575841837376356,-0.004375219409540295
1733851076188457700,4.526457763671875,0.002565466573834419,-0.04098492133915424,-0.04231887335665524
1733851076198425900,4.53642578125,0.06371873119473458,-0.030329964073002338,-0.11181677247472106
1733851076208394800,4.546394775390625,0.06827683289051055,0.0035991935357451437,-0.17866203819215296
1733851076218363000,4.55636279296875,0.027177345260977745,0.030365619908273217,-0.1986840318057686
1733851076228331800,4.566331787109375,0.005469371321797371,0.03568593814820051,-0.19728563624992965
1733851076238301000,4.576301025390625,0.01749006398320198,0.07151099250614643,-0.1907525081541389
1733851076248268800,4.586268798828125,0.09313479529321193,0.0998179263189435,-0.13671272880025206
1733851076258238000,4.596238037109375,0.1474246038854122,0.13456629135608672,-0.09752696583755313
1733851076268205800,4.606205810546875,0.16030805085599423,0.13992401899695395,-0.07221103053428232
1733851076278175000,4.616175048828125,0.16681904018521307,0.11435206310600042,-0.07505399887524544
1733851076288144000,4.626143798828125,0.13844284052848815,0.1043383263528347,-0.12846293297968803
1733851076298112000,4.636112060546875,0.10395604903697966,0.09628156888633965,-0.18885251975171266
1733851076308081000,4.646080810546875,0.0651683454811573,0.0855985545694828,-0.25494696710184217
1733851076318048800,4.656048828125,0.015572832185029983,0.11826894428879021,-0.26763116517327723
1733851076328017700,4.666017578125,-0.03761749073266983,0.09763590610474347,-0.20662965704798697
1733851076337987000,4.675987060546875,-0.05665536867976188,0.08230272789448499,-0.14808043744564056
1733851076347954700,4.68595458984375,-0.031160861939191816,0.05871610060185194,-0.07487126271948218
1733851076357923800,4.695923828125,0.012859481573104858,0.05238426723182201,-0.006841974849253893
1733851076367891700,4.7058916015625,0.025696751314401627,0.053282092854380604,0.04929316934868693
1733851076377860900,4.71586083984375,0.05090250424146652,0.045069852565228934,0.06987462347596883
1733851076387829800,4.725829833984375,0.004105681753158569,0.009870236629247665,0.04236760786920785
1733851076397798000,4.7357978515625,-0.001419219148159027,-0.017603461229801175,-0.04752206802293658
1733851076407766800,4.745766845703125,-0.07316986562907696,-0.03158288674354553,-0.1192591243699193
1733851076417735000,4.75573486328125,-0.17204641944468022,-0.04577040205001831,-0.16170754239037632
1733851076427703800,4.765703857421875,-0.13218553369939326,-0.05034750070720911,-0.15396394252628087
1733851076437673000,4.7756728515625,-0.08726619552075862,-0.008005904062092303,-0.1285720193773508
1733851076447640800,4.785640869140625,-0.03641805181503296,0.014690788653492926,-0.1061542897336185
1733851076457610000,4.79560986328125,-0.037112463819980616,0.018096505443751812,-0.08573314073458313
1733851076467577900,4.805577880859375,-0.059604866135120387,0.02053162363618612,-0.03900470730736851
1733851076477547000,4.815547119140625,0.00003565583527088165,0.05815612863153219,-0.017797084105759857
1733851076487516000,4.825515869140625,0.06498363656401634,0.08647124575078487,0.0070674541682004925
1733851076497483800,4.83548388671875,0.11786533192396163,0.08539747903943061,-0.014348551087081432
1733851076507452700,4.84545263671875,0.18826456379592418,0.07228139235675335,-0.0642806028611958
1733851076517420800,4.8554208984375,0.1465221020877361,0.07406418412029743,-0.12386764107868074
1733851076527389700,4.8653896484375,0.13817863663434982,0.09043138155341147,-0.19697291703894734
1733851076537358800,4.87535888671875,0.17235738508999346,0.05364098929464817,-0.24868498409762976
1733851076547326700,4.88532666015625,0.21884850262999533,0.02103665054887533,-0.28997473360225556
1733851076557295900,4.8952958984375,0.2480547233700752,-0.01793050122708082,-0.3236377876207232
1733851076567263700,4.905263671875,0.25583470972180367,-0.02994593319147825,-0.3416949839673936
1733851076577233000,4.91523291015625,0.2923275803387165,-0.012139935126900672,-0.3542584052033722
1733851076587201800,4.925201904296875,0.2632669055491686,0.00925561186224222,-0.3065495824366808
1733851076597170000,4.935169921875,0.16043255401849746,0.018028993165493012,-0.22353373783677816
1733851076607138800,4.945138916015625,0.0645318011432886,0.04154050939530134,-0.15538549976199864
1733851076617107000,4.95510693359375,0.03186813342571258,0.0876616245791316,-0.09799261058792472
1733851076627075800,4.965075927734375,-0.0006172551155090331,0.07271861473023891,-0.0267936066403985
1733851076637045000,4.975044921875,0.011992635610699652,0.020863047547638416,0.01254910044968128
1733851076647012900,4.985012939453125,-0.015281155762076377,-0.03341682417243719,0.06856734026968479
1733851076656982000,4.99498193359375,-0.08355389699935913,-0.040377310834825035,0.08618892167806624
1733851076666949000,5.00494921875,-0.13875614426136015,-0.06795797619968652,0.050696460275352
1733851076676918000,5.01491796875,-0.1969645876020193,-0.08560352300554513,-0.00832329944819212
1733851076686887000,5.024886962890625,-0.2211556105285883,-0.10421236188560723,-0.0440562916085124
1733851076696855000,5.03485498046875,-0.15969722548127174,-0.10154694206863642,-0.05914353223368525
1733851076706824200,5.04482421875,-0.12048165190219878,-0.05991670856326818,-0.039272564463317394
1733851076716792000,5.0547919921875,-0.11082008958756923,-0.023875673367083072,-0.060214376335591076
1733851076726761200,5.06476123046875,-0.11734861457347869,0.016489362508058547,-0.07327303374260663
1733851076736730000,5.074730224609375,-0.178839148324728,0.005768646529316902,-0.09336626596152782
1733851076746698200,5.0846982421875,-0.2051777046740055,0.032244857783615584,-0.12614800710082053
1733851076756667100,5.094667236328125,-0.16750351531803606,0.05399608634263277,-0.16327040779292581
1733851076766635000,5.104635009765625,-0.1345493402212858,0.0795855778902769,-0.2004439541503787
1733851076776604000,5.11460400390625,-0.08396189327836036,0.10189093320071696,-0.22413068081662058
1733851076786573000,5.124572998046875,-0.036571196550130844,0.12343582553267478,-0.21006489219367502
1733851076796541000,5.134541015625,-0.04396130680143833,0.13314005794525147,-0.18500176260769366
1733851076806510000,5.144510009765625,-0.03396422892212868,0.11122925491034984,-0.17122253584116695
1733851076816478000,5.15447802734375,-0.009931611427664756,0.10149141248911618,-0.11086699746921658
1733851076826447000,5.164447021484375,-0.03901157543957233,0.05045651403963566,-0.05632014537602663
1733851076836416000,5.174416015625,-0.04076923276185989,0.013628127858042717,0.017162147203087806
1733851076846384000,5.184384033203125,0.010795534780621528,-0.02411445055902004,0.08497764619216322
1733851076856353000,5.19435302734375,0.05759411083459854,-0.04706687160134315,0.11043138253092766
1733851076866321200,5.204321044921875,0.09224164584577083,-0.028778642977774143,0.10339432350099086
1733851076876290000,5.2142900390625,0.09133096074163913,0.014202420614659785,0.06365268022119999
1733851076886259200,5.22425927734375,0.05456511840224266,0.07816431291550398,0.01869534811973572
1733851076896227000,5.23422705078125,-0.00594341857433319,0.13061843051314354,-0.014371931962668895
1733851076906196200,5.2441962890625,-0.004200374299287796,0.19835048900246618,-0.034337738409638406
1733851076916163800,5.254163818359375,0.0684796619862318,0.23380174161195755,-0.035848727494478226
1733851076926133200,5.26413330078125,0.10600187565088272,0.21557430326491592,-0.045267420963943004
1733851076936102100,5.27410205078125,0.13228256433308125,0.1766977523818612,-0.0923433526545763
1733851076946070000,5.284070068359375,0.12072305944263935,0.12220920634716749,-0.11536562406271696
1733851076956039000,5.294038818359375,0.13514730611443518,0.10124474425166845,-0.17789441482052207
1733851076966007000,5.304007080078125,0.1427636263370514,0.07661036147177219,-0.20278744853660463
1733851076975976000,5.313975830078125,0.16808920625150203,0.058337914939224716,-0.2486789927482605
1733851076985945000,5.323945068359375,0.08669336406886577,0.06918021147102117,-0.27996918015554545
1733851076995913000,5.333912841796875,0.019423077872395514,0.050994858700037,-0.29054391179233785
1733851077005882000,5.343882080078125,0.016261983492970467,0.0352571913421154,-0.2653901813134551
1733851077015850000,5.35385009765625,0.02272153489589691,0.06463876864910126,-0.25047961242944
1733851077025819100,5.363819091796875,0.04929448452293873,0.07350333536714315,-0.22427827259376643
1733851077035788000,5.3737880859375,0.05607610748708248,0.043265141230821605,-0.20047522607147691
1733851077045756200,5.383756103515625,0.006043956339359283,0.03326806335151195,-0.19126666822135446
1733851077055725000,5.39372509765625,-0.04912964935004711,0.011752104853093623,-0.16593918861076234
1733851077065693200,5.403693115234375,-0.059470426100492475,0.024727614021301268,-0.13615882124453782
1733851077075662000,5.413662109375,-0.024186346751451492,0.03814151460677385,-0.12349793098345398
1733851077085631200,5.42363134765625,0.05831073467135429,0.03580225800424814,-0.11288608220666646
1733851077095598800,5.433598876953125,0.011864040794968604,0.0016445523366332053,-0.08339651448056101
1733851077105568000,5.443568115234375,-0.03558510812222957,-0.06606441753804683,-0.030795828019082545
1733851077115536000,5.453535888671875,-0.08831716587841511,-0.11616291192024945,0.0015032441698014736
1733851077125505000,5.463505126953125,-0.022158055794239042,-0.11254442916214466,0.015650573596358297
1733851077135474000,5.473473876953125,0.06622574557960033,-0.08925561577230691,-0.00041691023781895636
1733851077145442000,5.483442138671875,0.10619827500581741,-0.08286971412748098,-0.016879238608479497
1733851077155411000,5.493410888671875,0.09599719898700713,-0.06048077218681574,-0.017960457973927257
1733851077165379000,5.503379150390625,0.057086161312460894,-0.0400894338041544,0.04464139802008867
1733851077175348000,5.513347900390625,0.06902326734364032,0.01970657098889351,0.06769114195704459
1733851077185317000,5.523317138671875,0.05663549493551254,0.06074526834189892,0.05804638464674353
1733851077195285000,5.533284912109375,0.020605565655231476,0.050151101352274415,0.07786664514318108
1733851077205254100,5.543254150390625,0.03854629601538181,0.031199732644855975,0.1145659981176257
1733851077215222000,5.553221923828125,0.13805764060318468,0.04753799624443054,0.11899901212900876
1733851077225191200,5.563191162109375,0.2210854679018259,0.04404050951749086,0.09160612442120909
1733851077235160000,5.57316015625,0.2641939572662115,0.034866146197915074,-0.008838701624423266
1733851077245128200,5.583128173828125,0.1838409021347761,0.013448679637908936,-0.13717428189739583
1733851077255097000,5.59309716796875,0.0842260971724987,0.015055530312657356,-0.24020824765339494
1733851077265065000,5.60306494140625,-0.0030821839243173597,0.05157090502232313,-0.3176712804317474
1733851077275033900,5.613033935546875,0.020003508108854293,0.09245558085739612,-0.3520908519059419
1733851077285003000,5.6230029296875,0.04923194068074226,0.10687953526824712,-0.34571620230749245
1733851077294971000,5.632970947265625,0.08724924438595771,0.09229805220812559,-0.28350203045681116
1733851077304940000,5.64293994140625,0.11099369258880615,0.10341916568130254,-0.17206980032026767
1733851077314908000,5.652907958984375,0.142997435092926,0.11310673922002315,-0.09005304976031184
1733851077324877000,5.662876953125,0.15092062930762767,0.11614479174166917,-0.06038505672737956
1733851077334846000,5.672845947265625,0.08211889576017856,0.09443184936642646,-0.09210954389870166
1733851077344814000,5.68281396484375,0.01888940938711166,0.06006576164513826,-0.14333295065760612
1733851077354783000,5.692782958984375,0.003584872749447822,0.05258972667604685,-0.17006357506439088
1733851077364751000,5.702751220703125,-0.02923836944401264,0.03383183471411466,-0.18569646687358618
1733851077374720000,5.712719970703125,-0.06776303814947605,0.002601122409105301,-0.17945567278787491
1733851077384689200,5.722689208984375,-0.09112871616780757,-0.03189619047641754,-0.1136558975353837
1733851077394657000,5.732656982421875,-0.057602878662943835,-0.04146247572302818,-0.03050955842360854
1733851077404626200,5.742626220703125,0.05893266596198082,-0.01703939760625362,0.047614568611979484
1733851077414594000,5.752593994140625,0.17839958786368368,0.020851649370789527,0.12466244471818208
1733851077424563000,5.76256298828125,0.18675415923297403,0.010434592513740062,0.1713908781453967
1733851077434531800,5.77253173828125,0.08912672869563103,0.0017816227197647093,0.19837430826947092
1733851077444500000,5.7825,0.03201660198569298,0.02241787577420473,0.18663900842070577
1733851077454468900,5.79246875,0.017117723539471625,0.05070815071314573,0.09326850467547773
1733851077464437000,5.80243701171875,-0.020282325050234792,0.05972147825211286,-0.04854381228610873
1733851077474406000,5.812406005859375,-0.005894318735599518,0.023027532105147838,-0.17083982013389468
1733851077484375000,5.822375,-0.003201426389813423,0.0017827917635440825,-0.21929610026702284
1733851077494343200,5.83234326171875,0.03490940081775188,0.03558773847073316,-0.192699915894866
1733851077504312000,5.84231201171875,0.09702829560041427,0.06821136643886566,-0.13190043314769864
1733851077514280200,5.8522802734375,0.15688158353865145,0.0800298145264387,-0.05202595531344414
1733851077524249000,5.8622490234375,0.20989538084566592,0.09358926106244325,-0.002481587682664394
1733851077534218000,5.872218017578125,0.2241968779206276,0.08184972342997789,0.011100070685148239
1733851077544186000,5.88218603515625,0.1769300998330116,0.08101414938867092,-0.03905556071177125
1733851077554155000,5.892155029296875,0.11474807668626308,0.08126637058407067,-0.12375132122263312
1733851077564123100,5.902123046875,0.07908698071837425,0.0932426395818591,-0.2310647178635001
1733851077574092000,5.912092041015625,0.06657528966963291,0.09597001871913671,-0.3163799254469573
1733851077584061200,5.922061279296875,0.044401451784372326,0.10620879639983176,-0.37384514920488
1733851077594029000,5.932029052734375,0.09140461049973964,0.09156798436790704,-0.36276407548114653
1733851077603998000,5.941998046875,0.17642390387654303,0.059145724190771576,-0.28298545923680063
1733851077613966000,5.951966064453125,0.23479776691198348,0.01320055009573698,-0.17610183231532572
1733851077623935000,5.96193505859375,0.25520751773416994,-0.02633914087116718,-0.1051342990361154
1733851077633903900,5.97190380859375,0.2079495074748993,0.0020969722792506217,-0.050085196509212254
1733851077643872000,5.9818720703125,0.18769640851914882,0.0333791225105524,-0.01324760410785675
1733851077653841000,5.9918408203125,0.17172727049291134,0.048265433736145495,-0.018778496358543634
1733851077663809000,6.00180908203125,0.12031389411985874,0.06506985354274511,-0.0803470637820661
1733851077673778200,6.011778076171875,0.0703314273327589,0.04741904603987932,-0.13188655075281858
1733851077683747000,6.0217470703125,0.010361819538474083,0.010525485667586326,-0.17918021684736013
1733851077693715200,6.031715087890625,-0.049531215888261794,-0.026468027947843073,-0.1835384120568633
1733851077703684000,6.04168408203125,-0.08755845646560191,-0.0550292287826538,-0.13818097472190857
1733851077713652200,6.05165234375,-0.08856675672531128,-0.046532618594169614,-0.08030731629356741
1733851077723621000,6.06162109375,-0.07649111900627613,-0.032015432941913606,-0.042831133727729315
1733851077733590000,6.071590087890625,-0.06730594203174114,-0.011717618061602115,0.001989858642965555
1733851077743558000,6.081557861328125,-0.06067454119324684,0.01539601431339979,0.0028387305572628975
1733851077753527000,6.091527099609375,-0.11612287217080593,0.02770370722264051,-0.04626096204593778
1733851077763495000,6.101494873046875,-0.14814239676594734,0.052551732753217215,-0.1080884726665914
1733851077773464000,6.111464111328125,-0.15347382092177866,0.08001841634958982,-0.16495149274766444
1733851077783433000,6.121432861328125,-0.12383797659277915,0.12903174584358929,-0.21554230069145558
1733851077793401000,6.131401123046875,-0.05947510227560997,0.1457698224157095,-0.23040479265004396
1733851077803370000,6.141369873046875,-0.03011982845366001,0.13187544483691452,-0.22264263421595096
1733851077813338000,6.151338134765625,-0.014258826977014541,0.1029132619857788,-0.1856048430673778
1733851077823307000,6.16130712890625,-0.01894143183529377,0.09960106869786978,-0.13959054925888775
1733851077833276200,6.171276123046875,-0.029465163937211034,0.07810761429220438,-0.07410729260966181
1733851077843244000,6.181244140625,0.0045019875943660735,0.05958119299858808,-0.017087328401207923
1733851077853213200,6.191213134765625,0.013032500052452087,0.10228519321531057,0.026670272521674632
1733851077863181000,6.20118115234375,0.018392565780878067,0.11046966871470212,0.025028204403072594
1733851077873150200,6.211150146484375,0.05951251167654991,0.11278116052746773,0.005649696324765682
1733851077883119000,6.221119140625,0.06757014592587947,0.10926643040478229,-0.04383168907240033
1733851077893087200,6.231087158203125,0.04930559043884277,0.07676876690387725,-0.06968392320945858
1733851077903056100,6.24105615234375,0.054254152756929394,0.053558863969147205,-0.08732640127539634
1733851077913024000,6.25102392578125,0.007336334237456321,0.020773323437571524,-0.10375950355157255
1733851077922993000,6.260992919921875,-0.00623275690972805,0.005632160668075085,-0.05606821644157171
1733851077932962000,6.270962158203125,-0.008809329399466515,-0.0007993336841464042,-0.023939824644476172
1733851077942930000,6.280929931640625,-0.005543605601787567,-0.006795943750441074,-0.05612812993526459
1733851077952899000,6.290899169921875,-0.011480009913444519,0.0014735796838998795,-0.08435527651011944
1733851077962867000,6.300866943359375,-0.005964461362361908,-0.015015782824158668,-0.10995280523374676
1733851077972836000,6.310836181640625,-0.002703413739800453,-0.03079816610664129,-0.14647826294600963
1733851077982805000,6.320804931640625,-0.028236498925089833,-0.05093114581406116,-0.18561346476525067
1733851077992773000,6.330773193359375,-0.01271861179769039,-0.06357873820215464,-0.17745368531569838
1733851078002742000,6.340741943359375,0.018310148194432257,-0.05937222642302513,-0.16513181775063276
1733851078012710100,6.350710205078125,0.015681553256511688,-0.051070554284751414,-0.12162307702228427
1733851078022679000,6.360678955078125,0.04881809918284416,-0.020273557221889494,-0.08856734124720096
1733851078032648200,6.370648193359375,0.07390519416630267,-0.0018888824865221977,-0.06376447003260255
1733851078042616000,6.380615966796875,0.05429682285487652,0.006364566595852375,-0.06157777364328503
1733851078052585200,6.390585205078125,0.04662321948707104,0.03755523915141821,-0.06858356075212359
1733851078062552800,6.400552734375,0.027862989437580105,0.05899754789173603,-0.11123670756444334
1733851078072522000,6.41052197265625,0.03972527666687965,0.10546060838103294,-0.15989976231604813
1733851078082491000,6.420490966796875,0.08087386413514613,0.15242606543451548,-0.18452552339807152
1733851078092459000,6.430458984375,0.0421194783270359,0.16965104874074458,-0.19914953042566774
1733851078102428000,6.440427978515625,-0.014751578930020331,0.15868424904644488,-0.18707564627230167
1733851078112396000,6.45039599609375,-0.07134265020191669,0.12246581145673989,-0.12895984965115784
1733851078122365000,6.460364990234375,-0.04557517173886299,0.06012713644355535,-0.06489493536725639
1733851078132334000,6.470333984375,0.007048164945840835,-0.00013999299257993697,-0.02393514846935868
1733851078142302000,6.480302001953125,0.007443886265158653,-0.04529840062409639,0.0015093816496431827
1733851078152271000,6.49027099609375,0.03641571372747421,-0.05784107133299112,0.02912117280513048
1733851078162239000,6.500239013671875,0.05952887828946113,-0.06375146442055701,0.05367255347669124
1733851078172208000,6.5102080078125,0.02678571559488773,-0.04085603426247835,0.06764423407539726
1733851078182177000,6.520177001953125,-0.009852700972557067,0.02362783608585596,0.008277122218906878
1733851078192145200,6.530145263671875,-0.0301420402854681,0.07254851886034011,-0.07728504586294294
1733851078202114000,6.540114013671875,-0.07391513103842735,0.10321107588857412,-0.13531535615772008
1733851078212082200,6.550082275390625,-0.10800912382006644,0.10889029056876898,-0.12190043265894054
1733851078222051000,6.560051025390625,-0.10779518880844116,0.11737784066796302,-0.05107932211309671
1733851078232020200,6.570020263671875,-0.07829261547029018,0.11234247684925794,0.0201196818344295
1733851078241987800,6.57998779296875,0.000602057546377182,0.08919570227861404,0.09538608135133982
1733851078251957000,6.58995703125,0.10735036765038966,0.055209261524677276,0.1589434845045209
1733851078261924900,6.5999248046875,0.1827478462010622,0.02945785741358995,0.15885609848201274
1733851078271894000,6.60989404296875,0.1555763461589813,-0.003397533483803272,0.10144552752077579
1733851078281863000,6.61986279296875,0.06709317606389523,-0.013054419623315333,-0.01317746148109436
1733851078291831000,6.6298310546875,0.02082534588575363,-0.030091186881065365,-0.1476224645450711
1733851078301800000,6.639800048828125,0.027333412605524063,-0.058984980671107766,-0.22515578608065842
1733851078311768000,6.64976806640625,0.0774029731541872,-0.08708411695212125,-0.2642795897230506
1733851078321737000,6.659737060546875,0.12437865934073924,-0.09289835618883371,-0.22156170711144804
1733851078331706000,6.6697060546875,0.16466215441226958,-0.057490065938234323,-0.15990604592636226
1733851078341674000,6.679674072265625,0.17521628165245054,0.00009615385085344313,-0.07542612012326717
1733851078351643100,6.68964306640625,0.1581564257800579,0.019100714050233364,-0.03338306803330779
1733851078361611000,6.699611083984375,0.1273790102005005,0.014324293428659438,-0.03351253963187337
1733851078371580200,6.709580078125,0.1380354287713766,0.01857405982762575,-0.07458820799440145
1733851078381548000,6.719548095703125,0.13181553134322166,0.01890431469529867,-0.15797522399425507
1733851078391517000,6.729516845703125,0.08401566929221153,0.012453238859772682,-0.22129881839156149
1733851078401485800,6.73948583984375,0.04874035777151584,-0.003356324690580368,-0.2110125483073294
1733851078411454000,6.749453857421875,0.04875438629686832,-0.012876724968850612,-0.17534604551196098
1733851078421422800,6.7594228515625,0.10386252553462981,-0.011915770982205868,-0.154802000785619
1733851078431392000,6.76939208984375,0.13782032471597194,-0.023556524415314195,-0.1160707035921514
1733851078441360000,6.77935986328125,0.11262684674859046,-0.03421265072524547,-0.08014978764429688
1733851078451329000,6.7893291015625,0.10027414565384388,-0.046833355106413364,-0.05573416218161582
1733851078461297200,6.799297119140625,0.08998422230780125,-0.02012479640096426,-0.04799596914499998
1733851078471266000,6.80926611328125,0.08786065428256988,0.03114332628250122,-0.04804550737515092
1733851078481234200,6.819234130859375,0.07113222232162952,0.11303338172286748,-0.08006868523210287
1733851078491203000,6.829203125,-0.029428923580050465,0.1626364938035607,-0.11361512713357806
1733851078501172000,6.839171875,-0.193570853510499,0.15486498301923274,-0.15311390156820415
1733851078511140000,6.84914013671875,-0.2800011827290058,0.1266454352289438,-0.14111366717293858
1733851078521109000,6.85910888671875,-0.2555395261675119,0.06393412751108407,-0.10453735605627298
1733851078531078100,6.869078125,-0.15379355439543724,0.004438566969335079,-0.05576558023318648
1733851078541046000,6.8790458984375,-0.10055413163900374,-0.05901975972354412,0.019175532852113247
1733851078551015200,6.88901513671875,-0.08652735985219479,-0.10020254172235726,0.09235168209150434
1733851078560983000,6.898983154296875,-0.06838555396199227,-0.1271414020523429,0.13310688632801174
1733851078570952000,6.908951904296875,-0.030423779836297033,-0.13340513862222433,0.11368950754404067
1733851078580920000,6.918920166015625,0.038946693509817124,-0.12427402992248535,0.0828401957720518
1733851078590889000,6.928888916015625,0.033869536375999446,-0.08424509413391351,0.04159063214734197
1733851078600857900,6.93885791015625,-0.049046062719821926,-0.01889817721545696,-0.014369155483692884
1733851078610826000,6.948825927734375,-0.13974223268926142,0.04154781591892242,-0.08957154985368251
1733851078620795100,6.958795166015625,-0.15576514672935007,0.06491437072008847,-0.1557262760236859
1733851078630763000,6.968762939453125,-0.09630173489153385,0.09638356795608997,-0.17189429762288927
1733851078640732200,6.978732177734375,-0.033225393253564835,0.12230389889329671,-0.13653963725566864
1733851078650701000,6.988701171875,0.036654783180356025,0.12517419363260268,-0.12959800142422317
1733851078660669200,6.998669189453125,0.07114274371564387,0.07338730777204036,-0.10994652162343263
1733851078670637800,7.008637939453125,0.07479483648240566,0.028463293418288228,-0.119226098883152
1733851078680606000,7.01860595703125,0.09591711948812007,-0.006499298891425132,-0.07670286206081509
1733851078690574800,7.028574951171875,0.12657529260218142,-0.031444647316634655,-0.0014298866726458071
1733851078700544000,7.0385439453125,0.17775252213180065,-0.0289721197232604,0.05354045152962208
1733851078710511600,7.04851171875,0.22388415870964526,-0.02782324194908142,0.07625409538000821
1733851078720480800,7.058480712890625,0.229149531891942,-0.011055939282476902,0.07743190698772669
1733851078730448600,7.06844873046875,0.26470073774456976,0.050827393178641794,0.027798253638297316
1733851078740417800,7.078417724609375,0.22857260878682134,0.12917583048939704,-0.04961772512793541
1733851078750386700,7.08838671875,0.15598083530664444,0.18585750265419482,-0.1312993985146284
1733851078760354800,7.098354736328125,0.050994274178147316,0.1992187962695956,-0.16995383107960224
1733851078770323700,7.10832373046875,-0.04617430667579174,0.18429945955723523,-0.16822306176424026
1733851078780291800,7.118291748046875,-0.06260872412621975,0.13231179042756558,-0.10915595576763153
1733851078790260700,7.1282607421875,-0.042297172981500625,0.07082651737332343,-0.031146395022422075
1733851078800230000,7.13822998046875,-0.010512626186013221,0.01020809028148651,0.040292847421765324
1733851078810197800,7.14819775390625,0.004914075526595115,-0.046674657413363456,0.06403977984264493
1733851078820167000,7.1581669921875,-0.03281330532133579,-0.0647565498098731,0.06280804609060286
1733851078830134800,7.168134765625,-0.02612520585954189,-0.0721373077109456,0.041065731490403413
1733851078840104000,7.17810400390625,-0.09679039519131183,-0.06846797154843806,0.01191240998134017
1733851078850072800,7.18807275390625,-0.14832885924875736,-0.04843202247470617,0.016437778451293707
1733851078860041000,7.198041015625,-0.13769640607535838,-0.05058832372575998,-0.0026677579045295712
1733851078870009900,7.208009765625,-0.07872048549354076,-0.0816074391067028,-0.021786153741925954
1733851078879977700,7.217977783203125,-0.040566988188028334,-0.07482990779578685,-0.059016983244568104
1733851078889946600,7.227946533203125,-0.05542202749252319,-0.0315057298541069,-0.08884016683921217
1733851078899915800,7.237915771484375,-0.10468085618019103,0.027033552876114843,-0.12333704133331774
1733851078909883600,7.247883544921875,-0.09597849428653717,0.10409925689995288,-0.16438903655931353
1733851078919852800,7.257852783203125,-0.12205576935112476,0.15894816067963838,-0.2199338136486709
1733851078929820700,7.267820556640625,-0.11975216858386993,0.15983488038629293,-0.2737425607256591
1733851078939789800,7.277789794921875,-0.07332301036417484,0.12300006446391343,-0.25317455060184
1733851078949758700,7.2877587890625,-0.00609247165620327,0.0839972568526864,-0.17708879752606152
1733851078959726800,7.297726806640625,0.07854045275151729,0.045294601231813426,-0.07118629059642553
1733851078969695700,7.30769580078125,0.2189502094388008,0.03597206161320209,-0.018113018187135458
1733851078979664000,7.317663818359375,0.2792997564613819,0.002311491812765598,0.02312339369505644
1733851078989632800,7.3276328125,0.24470833555161953,-0.025084464634954926,0.05655819191560149
1733851078999602000,7.337601806640625,0.20815058300495146,-0.02061287217885256,0.02014554692804813
1733851079009569800,7.34756982421875,0.18567279373705387,0.0162844875857234,-0.0609760083578527
1733851079019539000,7.3575390625,0.1939274118632078,0.06669891604930162,-0.1464240485407412
1733851079029506600,7.367506591796875,0.184063020452857,0.11992957097738981,-0.20391279930472372
1733851079039475700,7.377475830078125,0.1626660121589899,0.15050532650500534,-0.21661767483800648
1733851079049444600,7.387444580078125,0.16108078879415988,0.16760931378006935,-0.19381693722605703
1733851079059412700,7.397412841796875,0.11130348919034004,0.1389110425621271,-0.17495251614972948
1733851079069381600,7.407381591796875,0.13532207815945146,0.10156243189871311,-0.15016016632914542
1733851079079349800,7.417349853515625,0.18165069861412048,0.10066606758087873,-0.10929711780399083
1733851079089318700,7.427318603515625,0.2177215444266796,0.062054012852907174,-0.08256634726673365
1733851079099287800,7.437287841796875,0.16330723267197608,0.03280453749299049,-0.11075199278742075
1733851079109255700,7.447255615234375,0.07376373986899852,0.0024751579418778417,-0.19072423190772533
1733851079119224800,7.457224853515625,0.03269464737772941,-0.0064417234852910035,-0.26125030502974983
1733851079129192700,7.467192626953125,0.034524200892448426,0.0196916656807065,-0.32297903145104645
1733851079139161900,7.477161865234375,0.00015080664753913878,0.04230652533173561,-0.32807328585013745
1733851079149130800,7.487130859375,-0.03673603172302246,0.07709317655265331,-0.2676397138059139
1733851079159099000,7.497098876953125,-0.05875555582940578,0.08100567382127045,-0.2317857256144285
1733851079169067800,7.50706787109375,0.013493687823414802,0.05788315690904856,-0.22735563421249388
1733851079179036000,7.517035888671875,0.04417407276928425,0.04597264662384987,-0.2905387972258031
1733851079189004800,7.5270048828125,0.07239362055957317,0.05300619852244853,-0.2861354477003217
1733851079198974000,7.536973876953125,0.07961305041909217,0.06759118871390819,-0.3069417966246605
1733851079208941800,7.54694189453125,0.06845511206686496,0.06025953065156936,-0.3153979286722839
1733851079218910700,7.55691064453125,0.049209144327044485,0.03240530904233455,-0.3147070237986743
1733851079228878800,7.56687890625,0.13153320727050305,0.0124938631311059,-0.28408903656452894
1733851079238847700,7.57684765625,0.23977438628077505,-0.01857376756668091,-0.2227319199346006
1733851079248816600,7.586816650390625,0.20998890434801576,-0.060929684998095035,-0.13827537500709294
1733851079258784800,7.59678466796875,0.14531564890742302,-0.10506459480077028,-0.06223112298548221
1733851079268753700,7.606753662109375,0.09456395131349563,-0.09506897822618483,0.0058862815596163265
1733851079278721800,7.6167216796875,0.04007949693202972,-0.029139585244655607,0.043223201785236594
1733851079288690700,7.626690673828125,0.022439795345067976,0.005735036520659923,0.061736909727752205
1733851079298659800,7.636659912109375,-0.006817863321304321,0.057686465293169016,0.048375616112351416
1733851079308628000,7.6466279296875,-0.055688569474220274,0.1352101422175765,-0.039099692114442586
1733851079318596900,7.656596923828125,-0.12621581164002418,0.12773323046565055,-0.1444178232848644
1733851079328565000,7.66656494140625,-0.23356325668096542,0.09725976626873016,-0.20487740655317901
1733851079338534000,7.676533935546875,-0.31903204739093777,0.07323913147300481,-0.2037614081352949
1733851079348502800,7.686502685546875,-0.36545945204496383,0.04596592462211847,-0.13979410900697112
1733851079358470700,7.696470703125,-0.31803543756902214,0.03347732218801975,-0.06121332424506545
1733851079368439600,7.706439453125,-0.26961656683683394,0.009438274952769278,0.04617737541571259
1733851079378407700,7.71640771484375,-0.20290391452312467,-0.004369885647296905,0.13022475502043962
1733851079388376800,7.726376953125,-0.1815712036371231,-0.03237783651351928,0.16641718138605355
1733851079398345700,7.736345703125,-0.17901684297919274,-0.02178396178483963,0.17252178187146783
1733851079408313900,7.74631396484375,-0.1708259377390146,0.014709493353962898,0.14927373888343573
1733851079418282800,7.75628271484375,-0.1662117219418287,0.06058978551924228,0.07692220389991998
1733851079428251000,7.7662509765625,-0.1409200442969799,0.10494330650866031,-0.019163842414319513
1733851079438219800,7.7762197265625,-0.14483867904543876,0.1528860841616988,-0.08080693637877702
1733851079448188700,7.786188720703125,-0.09218144009113312,0.1659510251790285,-0.10127776973843573
1733851079458156800,7.79615673828125,-0.049745735421776766,0.16359715552926063,-0.07571136680543422
1733851079468125700,7.806125732421875,-0.03288987768888473,0.15904636035710573,-0.07171776712462305
1733851079478093800,7.81609375,0.03931611134409904,0.11682429843842983,-0.04705182016268372
1733851079488063000,7.82606298828125,0.11464344726800918,0.0791588769108057,-0.033994185668975115
1733851079498031900,7.836031982421875,0.16169161416888236,0.06755524061769247,-0.07430047709420323
1733851079508000000,7.846,0.17405775926709174,0.06459492950737476,-0.12592179712951182
1733851079517969000,7.855968994140625,0.17767478072047233,0.05197480964809656,-0.1820377982355654
1733851079527936800,7.865936767578125,0.1598468630850315,0.05081862535029649,-0.2579154615186155
1733851079537905700,7.87590576171875,0.17154022348821163,0.06429799238741397,-0.30315584834516046
1733851079547874800,7.885874755859375,0.1573988854110241,0.07340718151628971,-0.35513197316750883
1733851079557842700,7.8958427734375,0.1694803683489561,0.06701426560878754,-0.3571491582088172
1733851079567811800,7.905811767578125,0.1893570352077484,0.07360533443689346,-0.3040701867111027
1733851079577779700,7.91577978515625,0.18877660497128962,0.10522650736421346,-0.2476988956697285
1733851079587748900,7.925748779296875,0.17778817796707153,0.14152327088713645,-0.19649083261042832
1733851079597717800,7.9357177734375,0.15274141499400137,0.1323281570404768,-0.16694368947818874
1733851079607686000,7.945685791015625,0.06663491090238094,0.12310440162122249,-0.18684549077823756
1733851079617654800,7.95565478515625,-0.013890578186511992,0.10184095657914877,-0.2228165294781327
1733851079627623000,7.965622802734375,-0.09259411254525184,0.05350859508663416,-0.27199294057935475
1733851079637591800,7.975591796875,-0.13193360476493834,0.0023196751192212104,-0.30959596439525483
1733851079647561000,7.98556103515625,-0.17563538384735583,0.035872985152900216,-0.29833237371146676
1733851079657528800,7.99552880859375,-0.21587094812393187,0.04052314904630184,-0.2492246439322829
1733851079667498000,8.005498046875,-0.2254687975525856,0.015563479834794997,-0.14916063389778136
1733851079677465900,8.0154658203125,-0.2053472160220146,-0.0010986088916659354,-0.03803761584088206
1733851079687435000,8.02543505859375,-0.13620645977854728,-0.009402326856553555,0.0711240390151739
1733851079697404000,8.03540380859375,-0.05356266336143017,0.003925941272079944,0.15662585521191358
1733851079707372000,8.0453720703125,-0.010512041664123534,-0.03304506825059652,0.21353227604329586
1733851079717341000,8.0553408203125,-0.017304770544171334,-0.08521656951457261,0.28932386847808955
1733851079727309000,8.06530908203125,-0.014708324310183525,-0.07603606871515511,0.31351898305788634
1733851079737278000,8.07527783203125,0.023283844953775404,-0.05426642771661281,0.2562830380111933
1733851079747247000,8.0852470703125,0.06878653597831726,-0.019106267008185386,0.08714023105353116
1733851079757215000,8.095215087890624,0.06405424675941467,0.006160568456351757,-0.09475172897055745
1733851079767184100,8.10518408203125,0.029693127474188803,-0.013171616262197493,-0.22566417399421332
1733851079777151700,8.11515185546875,0.018959552013874052,0.002434241409599781,-0.2946440405875444
1733851079787121000,8.125120849609376,0.046340895414352413,-0.00443242948949337,-0.28888430801704523
1733851079797089800,8.13508984375,0.08011924637556075,-0.0032069793477654453,-0.23426965138465164
1733851079807058000,8.145057861328125,0.13137246375083922,0.016337679077684877,-0.17849559558406472
1733851079817026800,8.15502685546875,0.21874036608040331,0.03416179732084274,-0.12233064076974988
1733851079826995000,8.164994873046876,0.24200667537748813,0.019661855064332483,-0.09036094666570424
1733851079836963800,8.1749638671875,0.2203928094625473,0.009205050718784332,-0.08374766600579023
1733851079846933000,8.18493310546875,0.16745032382607458,0.020498013627529142,-0.1023285939656198
1733851079856900900,8.19490087890625,0.11301906093657016,0.04234422699362039,-0.134298141939193
1733851079866870000,8.2048701171875,0.12977847255766392,0.06069353815466165,-0.16848901922404766
1733851079876838000,8.214837890625,0.17465923229157923,0.061818450531363485,-0.20316008124127982
1733851079886807000,8.22480712890625,0.1966109518587589,0.04935089088529348,-0.2194775943137705
1733851079896776000,8.23477587890625,0.1906599344998598,0.03014730098247528,-0.19439006093889474
1733851079906744000,8.244744140625,0.18511048367917537,0.003949614408612251,-0.1633193615011871
1733851079916713000,8.254712890625,0.1614233186215162,0.0019131401449441908,-0.1828625586219132
1733851079926680800,8.264680908203125,0.2135293534338474,0.013265139764547348,-0.21040859106481075
1733851079936649700,8.274649658203124,0.22285130853056906,0.007549684727191925,-0.2101296279929578
1733851079946619000,8.284618896484375,0.1597206063568592,-0.0018558569997549055,-0.18364888669401405
1733851079956586800,8.294586669921875,0.13612111958265305,-0.018369184905290603,-0.1698179297402501
1733851079966556000,8.304555908203126,0.06607610797584057,-0.007812719577550888,-0.15507248829007148
1733851079976523800,8.314523681640624,0.02246843691766262,0.012360592140257358,-0.12294000483974814
1733851079986493000,8.324492919921875,-0.030910102048516273,0.03050765872746706,-0.09345467489734291
1733851079996461800,8.3344619140625,-0.05408171879947185,0.04147708877027034,-0.015970014809072015
1733851080006430000,8.344429931640626,-0.05143675724864006,-0.010749065290391444,0.042055765441060065
1733851080016398800,8.35439892578125,-0.045920039653778076,-0.03607026129066944,0.08209989879876375
1733851080026367000,8.364366943359375,-0.07269231124520302,-0.06539484771341085,0.11114479149729013
1733851080036335900,8.3743359375,-0.08357377074360847,-0.08131284007430076,0.1150344924122095
1733851080046305000,8.384304931640624,-0.08829203143715858,-0.05955693534016609,0.08493804483413696
1733851080056273000,8.39427294921875,-0.07919336370229721,-0.03148556384891271,0.018396072912216184
1733851080066242000,8.404241943359375,-0.07079612223505974,-0.009044891721010207,-0.012549684971570968
1733851080076210000,8.4142099609375,-0.058690089377760886,0.009081424339115619,-0.03663578621894121
1733851080086179000,8.424178955078125,-0.05068330853283405,0.01439005214124918,0.0003688333123922348
1733851080096148000,8.43414794921875,-0.016474164938926696,0.017860943122208116,0.088847034971416
1733851080106115800,8.44411572265625,0.005159574720263481,0.044429508835077285,0.17611235370934009
1733851080116084700,8.454084716796874,0.036159693139791484,0.053397535927593706,0.18038287063539027
1733851080126052900,8.464052978515625,0.003595394143462181,0.05418459465205669,0.10599135425686836
1733851080136021800,8.474021728515625,-0.021577625557780266,0.04586626363992691,0.0017547347128391265
1733851080145991000,8.483990966796876,-0.0532516977161169,0.04544745370596647,-0.09773761291354895
1733851080155958800,8.493958740234374,-0.09272738353610038,0.06704758335649967,-0.18483751195669174
1733851080165928000,8.503927978515625,-0.16266075146198272,0.08582388775795698,-0.22451281200200318
1733851080175895800,8.513895751953125,-0.13288462187945843,0.08106792540252208,-0.19327099378108978
1733851080185865000,8.523864990234374,-0.07193944705128669,0.07066197446137666,-0.11907646127939224
1733851080195833900,8.533833740234375,-0.03469254319667816,0.04334083681553602,-0.025243746849894524
1733851080205802000,8.543802001953125,0.05253565840125084,0.016881284435093402,0.009558394201099872
1733851080215771000,8.55377099609375,0.0791109461158514,-0.03653291036635637,0.05358984362930059
1733851080225739000,8.563739013671874,0.11493746177852153,-0.05489332744330167,0.07572568759173154
1733851080235708000,8.5737080078125,0.14363690204024315,-0.06286737506240606,0.0730155518501997
1733851080245677000,8.583677001953125,0.13846446783840655,-0.06986234851628542,0.04362228410542011
1733851080255644700,8.593644775390626,0.11597031195759773,-0.053987903036177155,-0.007590016737580299
1733851080265614000,8.603614013671875,0.09088730862736702,-0.05415419951379299,-0.06472936954200267
1733851080275582000,8.61358203125,0.051257309028506275,-0.042106618845462795,-0.09161591516286134
1733851080285550800,8.62355078125,0.045349546289443966,-0.011708850233256816,-0.08557751178145408
1733851080295519700,8.633519775390624,0.05337736992239952,0.022490064227581024,-0.05470832626521587
1733851080305488000,8.64348779296875,0.02903320226073265,0.05189209980070591,-0.026294132685661314
1733851080315456800,8.653456787109375,-0.0006698620855808258,0.06169482415169477,0.015443652847409247
1733851080325425000,8.6634248046875,0.001474164205789566,0.035467911483347415,0.0165916538387537
1733851080335393800,8.673393798828124,0.015524901390075682,0.012498247045278549,-0.0072936641395092
1733851080345363000,8.683363037109375,-0.026389994275569914,-0.012933131331205367,-0.08826602021306752
1733851080355331000,8.6933310546875,-0.0713818131685257,-0.03707914607226848,-0.16226123075038193
1733851080365300000,8.703300048828124,-0.09026011663973331,-0.026603637026250362,-0.18442250141501426
1733851080375268000,8.71326806640625,-0.06325812794566155,0.0038680736050009726,-0.17912965570390224
1733851080385237000,8.723237060546875,0.03159983787834644,0.04190086714029312,-0.12783259918689727
1733851080395206000,8.733205810546876,0.05075637376904487,0.10094020834714174,-0.09012801469266414
1733851080405174000,8.743174072265624,0.06488835949599743,0.13722645047605037,-0.05276303741633892
1733851080415143000,8.753142822265625,0.005385200169682502,0.16573241399228572,-0.06167056649327278
1733851080425110800,8.76311083984375,-0.05797171197533607,0.1408092773988843,-0.11125555839538574
1733851080435080000,8.773079833984376,-0.07924947780370711,0.09796265384107827,-0.19743191285282372
1733851080445048800,8.783048828125,-0.06410802277326584,0.04593348365724086,-0.3025447307094931
1733851080455017000,8.793016845703125,-0.04840542672872543,0.008250818733870983,-0.3496864211127162
1733851080464985900,8.80298583984375,0.005203413861989975,-0.017619243320822715,-0.3309758754238486
1733851080474954000,8.8129541015625,0.029047230786085128,-0.015604104106128214,-0.2754983183518052
1733851080484923000,8.8229228515625,0.08676759834885597,-0.003966857804358005,-0.17871055350899695
1733851080494891800,8.832891845703125,0.04808101707994938,-0.02682809343189001,-0.06949293068200349
1733851080504860000,8.84285986328125,0.05995557926893234,-0.029193945780396458,0.030181495513021944
1733851080514828800,8.852828857421875,0.09161620742380619,-0.0014388006314635276,0.0819058375313878
1733851080524798000,8.8627978515625,0.12237316473722457,0.052009296439588064,0.06691986532360315
1733851080534766000,8.87276611328125,0.06564063916802405,0.0622641484722495,-0.026729893754422664
1733851080544735000,8.88273486328125,0.07308920160830021,0.05559095431864261,-0.12135697343200444
1733851080554703000,8.892703125,0.020593290695548057,0.08131225555241108,-0.22203560823351143
1733851080564672000,8.902672119140625,-0.0443371543765068,0.09149871852397919,-0.2788543507814407
1733851080574641000,8.912640869140626,-0.08087211056947707,0.062919689771533,-0.2740460737168789
1733851080584609000,8.922609130859374,-0.13978373374342917,0.018606500792503356,-0.2014715436324477
1733851080594578000,8.932577880859375,-0.03307634017169475,-0.0597723316565156,-0.08607727799713612
1733851080604545800,8.9425458984375,0.10213993952572345,-0.09588438626229763,-0.006601005700230598
1733851080614515000,8.952514892578124,0.29061376215815543,-0.08675444660633802,0.018296411930024622
1733851080624483800,8.96248388671875,0.356456645900011,-0.011269874294102191,-0.03830196586549282
1733851080634452000,8.972451904296875,0.29268296964764595,0.0555456538721919,-0.1634375810533762
1733851080644420900,8.9824208984375,0.12663023765981196,0.10556932945251464,-0.30042496207654473
1733851080654389000,8.992388916015624,0.06811608937084675,0.1328749772682786,-0.40194910779148335
1733851080664358700,9.002358642578125,0.05138415027856826,0.14641601136475801,-0.43476825833171606
1733851080674327600,9.01232763671875,0.04185644347667694,0.15381868883669375,-0.40409225730001924
1733851080684295700,9.022295654296874,0.03534662319123745,0.11904080544412135,-0.2709483999624848
1733851080694264600,9.0322646484375,0.09704816934466362,0.044321956807374954,-0.1286746029689908
1733851080704232700,9.042232666015625,0.15260697495937348,-0.023353110797703264,-0.015462942069768905
1733851080714201600,9.05220166015625,0.21568916181623934,-0.02357026067972183,0.053502457606792446
1733851080724170800,9.062170654296875,0.2174871511489153,-0.03148381028324365,0.08274053478986024
1733851080734138400,9.072138427734375,0.23987609308958052,-0.027874972136318683,0.07478577639311551
1733851080744107500,9.082107421875,0.22644611815214155,-0.0549096940562129,0.029459026457369326
1733851080754075600,9.09207568359375,0.11062485927641391,-0.06705225953161716,-0.01967997524291277
1733851080764044500,9.10204443359375,0.01267243456840515,-0.045454175707697865,-0.06850187381803989
1733851080774013400,9.112013427734375,-0.06001987667679786,-0.04439209943413734,-0.10436287627220153
1733851080783981600,9.121981689453126,-0.06168576406240463,-0.0540448939204216,-0.08275719366371631
1733851080793950500,9.131950439453124,-0.05431728112101555,-0.07772796732485295,-0.042831718249619004
1733851080803918600,9.141918701171875,-0.02152034241259098,-0.08380524141192436,0.008881517852842807
1733851080813887500,9.151887451171875,0.063164019921422,-0.09683277302831411,0.0318324775904417
1733851080823856600,9.161856689453124,0.14833061281442642,-0.07152998946756124,0.02038052472770214
1733851080833824500,9.171824462890624,0.20877017620801924,-0.020813363187015054,-0.035277065086364745
1733851080843793700,9.181793701171875,0.20748130544126034,0.06045008478760719,-0.10137187776267528
1733851080853761800,9.19176171875,0.15315291840434073,0.11736088953316211,-0.17800298976153134
1733851080863730700,9.201730712890624,0.030824177330732342,0.16807839259654284,-0.26803163573294875
1733851080873699600,9.211699462890625,-0.04419979173243046,0.20176351231634615,-0.31395459799617526
1733851080883667500,9.22166748046875,-0.03154664638638496,0.1686743126630783,-0.29082097516804933
1733851080893636400,9.23163623046875,0.015385200658440588,0.150675714635849,-0.23161124583035705
1733851080903604500,9.2416044921875,0.06408873355090618,0.12738807028979063,-0.1478863761782646
1733851080913573400,9.251573486328125,0.08837503354549407,0.09013590573817491,-0.057441842882335184
1733851080923542500,9.26154248046875,0.12981120578348637,0.07051321364045143,0.02713613646775484
1733851080933510700,9.2715107421875,0.1398211431443691,0.049045478197932244,0.0641685207888484
1733851080943479600,9.2814794921875,0.23746552481651304,-0.015107260499894618,0.10196867461204528
1733851080953447700,9.29144775390625,0.2048994722545147,-0.10657178449332713,0.13446984524428843
1733851080963416600,9.30141650390625,0.11682780556976795,-0.12052958269715308,0.09970715942084789
1733851080973385500,9.311385498046874,0.08672317468523978,-0.11838701771050691,0.013247311846911906
1733851080983353600,9.321353515625,-0.027214170140028,-0.10245967299938201,-0.10223755468130111
1733851080993322500,9.331322509765625,-0.1514595584899187,-0.05998305179774761,-0.14884119268506765
1733851081003290600,9.34129052734375,-0.23534487940073012,-0.01787730973511934,-0.11592501151114702
1733851081013259800,9.351259765625,-0.28624153842329975,-0.014148060078918933,-0.046242403475940226
1733851081023228700,9.361228759765625,-0.22150866174995898,-0.003952244757115841,0.03045008332133293
1733851081033196800,9.37119677734375,-0.16615034714341162,0.008605331259965897,0.09876695596128701
1733851081043165700,9.381165771484374,-0.08406827626228332,0.0316650120690465,0.14358575637489557
1733851081053133600,9.391133544921875,-0.056908466657996176,0.04552782546579837,0.15722235980033875
1733851081063102500,9.4011025390625,-0.02821487161517143,0.07999094382077455,0.11964140168577432
1733851081073071400,9.4110712890625,-0.02371931376159191,0.07728373068869114,0.07780366290956735
1733851081083039500,9.42103955078125,-0.014413140755891798,0.07076046639978885,-0.010055530068278312
1733851081093008600,9.431008544921875,0.020749358040094375,0.06678308720141649,-0.09160130211561918
1733851081102976500,9.4409765625,0.06783551886379718,0.061686933106184005,-0.1557274450674653
1733851081112945700,9.450945556640624,0.11150281115472316,0.06582037964910269,-0.16687895367890596
1733851081122914600,9.46091455078125,0.19921499687731264,0.07247603814601898,-0.17301672578155994
1733851081132882700,9.470882568359375,0.3118634709358215,0.09043839581608772,-0.1584367040261626
1733851081142851600,9.4808515625,0.40869244457185266,0.09764847332537174,-0.15201806915551422
1733851081152819700,9.49081982421875,0.38526889888644217,0.12333090385347605,-0.16943272981494664
1733851081162788600,9.50078857421875,0.3607330080449581,0.1465530817478895,-0.1790627279475331
1733851081172757500,9.510757568359375,0.27556699967384335,0.1092117776080966,-0.19656594367325306
1733851081182725600,9.5207255859375,0.2549959208101034,0.08521130881756543,-0.16760989830195902
1733851081192694800,9.53069482421875,0.3074509151905775,0.042677988992631435,-0.17343875058591365
1733851081202662400,9.540662353515625,0.2889934674799442,0.030211598390340804,-0.2092214271068573
1733851081212631600,9.550631591796876,0.23348317718207834,0.04645838431417942,-0.2517170452699065
1733851081222600700,9.5606005859375,0.17340835544764996,0.041351416563987727,-0.2803594946473837
1733851081232568600,9.570568603515625,0.1375163733333349,0.05032265852689743,-0.3131955963224172
1733851081242537500,9.580537353515625,0.03441664886474609,0.029914076748490333,-0.3527887710422277
1733851081252505600,9.590505615234376,-0.11545359460711478,0.019044015426933764,-0.366736632373929
1733851081262474500,9.600474609375,-0.18322364701926708,0.012581541414558887,-0.34484716438800095
1733851081272443600,9.610443603515625,-0.224561619579792,-0.006316051279008388,-0.2704439575716853
1733851081282411500,9.62041162109375,-0.19834230569601058,-0.006677578067779541,-0.21835107450187205
1733851081292380700,9.630380615234374,-0.1960883892893791,-0.0200075997620821,-0.16872195119708774
1733851081302348500,9.6403486328125,-0.19392332020998,-0.08823357924818992,-0.05872720651775598
1733851081312317700,9.650317626953125,-0.16905892806649206,-0.0940884427562356,0.016564473570883274
1733851081322286600,9.66028662109375,-0.1724076539725065,-0.16603753441870212,0.07098550732731819
1733851081332254700,9.670254638671874,-0.1188385608702898,-0.21925299177765845,0.15263386296629905
1733851081342223600,9.6802236328125,-0.021772271347045898,-0.21008242785036563,0.19958003079742193
1733851081352191700,9.690191650390625,0.06318856984078884,-0.08133475964516401,0.2059197552129626
1733851081362160600,9.70016064453125,0.09414134198725223,0.014166180257499217,0.1810121084496379
1733851081372129800,9.7101298828125,0.06428221029639243,0.08338204756379126,0.14829495697915554
1733851081382097400,9.720097412109375,0.023675474619865414,0.14448007486611603,0.131928636328876
1733851081392066600,9.730066650390626,-0.05938040972948074,0.13894056091755627,0.12328648018985985
1733851081402034400,9.740034423828124,-0.09701426707506179,0.1193549859598279,0.14259557629376649
1733851081412003600,9.750003662109375,-0.08611527191996574,0.09053396514505148,0.16116817481666804
1733851081421972500,9.759972412109375,-0.03386778281033039,0.08695815248489379,0.12262860080301762
1733851081431940600,9.769940673828126,-0.00750935271680355,0.06242167712152004,0.024640520259737966
1733851081441909500,9.779909423828125,-0.00038344635963439937,0.05315203673392534,-0.06794570124000311
1733851081451877600,9.789877685546875,0.005063128608465194,0.02659194658845663,-0.09928338105082511
1733851081461846500,9.799846435546876,0.019040216034650802,0.015195815566182136,-0.11559183403402566
1733851081471815700,9.809815673828124,0.05898001223504543,0.01614507911503315,-0.10464256999641657
1733851081481783600,9.819783447265625,0.08468845398724079,0.06544774694442748,-0.09115677321851252
1733851081491752700,9.829752685546875,0.03048573915660381,0.0714224374398589,-0.051264323291182516
1733851081501720600,9.839720458984376,0.0023240590333938596,0.10208967064321041,-0.037382220672070976
1733851081511689700,9.849689697265624,0.016503391033411027,0.10324410137534142,-0.031500469157099725
1733851081521658600,9.85965869140625,0.03903846344649792,0.08190028457343577,-0.06799918499290943
1733851081531626500,9.86962646484375,0.07648585830926895,0.08571107503324747,-0.09749766667783259
1733851081541595600,9.879595703125,0.03916588921844959,0.09668693481683731,-0.1418354055762291
1733851081551564800,9.889564697265625,0.012673019090294836,0.07551321388483047,-0.1535597456395626
1733851081561532400,9.899532470703125,0.03442424764931202,0.04103197535127401,-0.18459405858963726
1733851081571501600,9.90950146484375,0.03540741346776485,-0.02191372564435005,-0.17189269018769263
1733851081581469400,9.919469482421874,0.028840310037136076,-0.03347644540518522,-0.1422393102020025
1733851081591438600,9.9294384765625,0.051856443965435026,-0.04643178856819868,-0.12514905919134617
1733851081601406500,9.939406494140625,0.06860065801739693,-0.07490238851010798,-0.08716770358234643
1733851081611375600,9.949375732421874,0.07263093644678592,-0.07608341498821973,-0.08306815930902957
1733851081621344500,9.959344482421875,0.09698504098057746,-0.05863368301540613,-0.08928396508395671
1733851081631312600,9.969312744140625,0.11773673710823059,-0.029944764147698876,-0.10650982517302035
1733851081641281500,9.979281494140626,0.11620587427914142,-0.026808219687640664,-0.0869034996882081
1733851081651250700,9.989250732421874,0.11517360862195491,0.05014057995826006,-0.09840922856479882
1733851081661218600,9.999218505859375,0.08385083411931991,0.07028057392835617,-0.1358636376902461
1733851081671187200,10.009187255859375,0.015680384212732313,0.06223229202926159,-0.14398060091137885
1733851081681155300,10.0191552734375,-0.02896656676530838,0.0499032640710473,-0.12631897975355386
1733851081691124200,10.029124267578124,-0.11468903997540474,0.049052784721553326,-0.1311056295081973
1733851081701093000,10.039093017578125,-0.14018822289109228,0.04252396747469902,-0.12811112386733292
1733851081711061200,10.049061279296875,-0.10296937608718872,0.057950961448252195,-0.13492431101351976
1733851081721030100,10.059030029296874,-0.05718494551181793,0.044863808599114416,-0.10581249055862427
1733851081730998300,10.068998291015625,0.015699088913202285,0.01561871715337038,-0.07872720749527215
1733851081740967200,10.07896728515625,0.05889759464859962,-0.03610270225554704,-0.04954524441361427
1733851081750936300,10.088936279296876,0.0535001195192337,-0.06783084268867969,-0.03500146301537752
1733851081760904200,10.098904296875,0.021356676283478735,-0.07357815416902304,-0.045617257314920424
1733851081770873000,10.108873046875,0.004435352098941803,-0.016915186704695225,-0.09837152690291404
1733851081780841200,10.11884130859375,0.006819032365083694,0.044318157415091985,-0.13996201291978358
1733851081790810000,10.12881005859375,0.02713175255358219,0.0792675979822874,-0.16048369968384504
1733851081800779000,10.138779052734375,0.0730284113317728,0.08576894270032644,-0.15255407572835683
1733851081810747100,10.1487470703125,0.09474281501173973,0.11555910080820321,-0.14453560444563626
1733851081820716000,10.158716064453126,0.10424012667536735,0.10341185915768146,-0.11402765345722436
1733851081830684200,10.16868408203125,0.14869652351737023,0.11885755783170461,-0.11621844149976968
1733851081840653000,10.178653076171875,0.18631284520626068,0.09133271430730819,-0.14334376431256532
1733851081850622200,10.188622314453125,0.20314590658545492,0.0631599282681942,-0.15017331807166337
1733851081860590300,10.19859033203125,0.17243746458888054,0.05593903710395098,-0.14731588281393052
1733851081870559200,10.208559326171875,0.0731634358882904,0.032339550329744816,-0.1599649365067482
1733851081880527400,10.21852734375,-0.016160861206054686,0.019904139387607572,-0.14141834920793772
1733851081890496300,10.228496337890626,-0.06195932030677795,0.02756751362234354,-0.09834054724276066
1733851081900465200,10.238465087890624,-0.020011691415309906,-0.007210077509284019,-0.05408464140892028
1733851081910433000,10.24843310546875,0.04271685969829559,-0.03834755857288837,-0.03869564135819673
1733851081920402200,10.258402099609375,0.12031857029497622,-0.024452888733148572,-0.06074351477622986
1733851081930370000,10.2683701171875,0.1712368566274643,0.00772416451126337,-0.1341474814221263
1733851081940339200,10.278339111328124,0.10737784017920493,-0.003525836038589477,-0.19350714062452315
1733851081950308000,10.28830810546875,0.002052256354689598,-0.028626375025510787,-0.2048772604227066
1733851081960276200,10.298276123046875,-0.009710077631473541,-0.04706424125283956,-0.19642273581027983
1733851081970245000,10.3082451171875,-0.03134732442200184,-0.031221359954774378,-0.17706424760669467
1733851081980213200,10.318213134765625,-0.049829906573891636,0.018560031302273274,-0.13451631473451853
1733851081990182100,10.32818212890625,-0.036684009274840355,0.03465805640518665,-0.09645078797340392
1733851082000151000,10.338151123046876,-0.07408814951777458,0.020638298881053924,-0.0568614126458764
1733851082010119200,10.348119140625,-0.07199439210891723,0.013734803102910517,-0.023179215535521505
1733851082020088300,10.35808837890625,-0.016073767444491384,0.048285015219449993,-0.017651976546645163
1733851082030056200,10.36805615234375,0.033275077614188193,0.04763268879055976,-0.05136252296864986
1733851082040025300,10.378025390625,0.05880231758058071,0.04045154511481523,-0.09781798467338085
1733851082049994200,10.387994140625,0.12291501652896404,0.02319032145142555,-0.12790274181365965
1733851082059962400,10.39796240234375,0.09225275176167487,-0.02348053656965494,-0.1275762863382697
1733851082069931300,10.40793115234375,0.05314239212274551,-0.0051566521108150475,-0.07906652245223522
1733851082079899100,10.417899169921874,-0.00504500842988491,0.008417115211486815,-0.000301028773188591
1733851082089868000,10.427867919921875,-0.025390461844205854,-0.013053542840480804,0.07195581366419791
1733851082099837200,10.437837158203125,-0.028910452663898467,0.00009761515557765961,0.1095817799642682
1733851082109805000,10.44780517578125,-0.00025251345634460447,0.04473199891299009,0.10396657043099403
1733851082119774200,10.457774169921874,0.03048398559093475,0.04706716386228799,0.06457067184895277
1733851082129742000,10.4677421875,0.04228314445614814,0.04889759415984153,0.00003799392282962799
1733851082139711200,10.477711181640625,0.03539630755186081,0.06169891580492258,-0.058572308216989034
1733851082149680000,10.48768017578125,0.048366848284006114,0.05473375296741724,-0.12831512200683354
1733851082159648300,10.497648193359375,0.019506664502620695,0.02929623711109161,-0.17042466346174479
1733851082169617200,10.5076171875,0.020073066213726995,0.03399550084322691,-0.17901830428391693
1733851082179585300,10.517585205078126,0.013289105162024497,0.023936171382665634,-0.15849369491040705
1733851082189554200,10.52755419921875,0.010181202274560928,0.020323533843457697,-0.15649141517728565
1733851082199523300,10.5375234375,0.024686112967133522,0.011670271788537502,-0.14089783246517182
1733851082209491200,10.5474912109375,0.04443652309775352,0.007374328160285949,-0.1259957391485572
1733851082219460400,10.55746044921875,0.08553191907405852,0.020547113466262815,-0.15115209997594356
1733851082229428000,10.567427978515624,0.08289397178590298,0.045619010880589485,-0.1972217772334814
1733851082239397000,10.577397216796875,0.07804711627662181,0.020469664315879342,-0.21437281852066514
1733851082249366000,10.587365966796876,0.0798643948316574,-0.011621464210748672,-0.21769787129014728
1733851082259334100,10.597334228515624,0.05438157852888107,0.031900574390590186,-0.18358137441575526
1733851082269303000,10.607302978515625,0.08749415905773639,0.047428398390114306,-0.18314707465171812
1733851082279271200,10.617271240234375,0.08416822950541973,0.037629473431408406,-0.20975655689686534
1733851082289240000,10.627239990234376,0.11012567758262157,0.04865472531467676,-0.22008944260179994
1733851082299209200,10.637209228515625,0.11271277146637439,0.06332300987541675,-0.2330550148978829
1733851082309177000,10.647177001953125,0.11024725813567637,0.08591624221652745,-0.2394113981872797
1733851082319146200,10.657146240234376,0.15667758539915083,0.09604396073818207,-0.25176322249919175
1733851082329114000,10.667114013671876,0.1040589248895645,0.06804945387542248,-0.26142186220437286
1733851082339083300,10.677083251953125,0.05513268915712833,0.03545622104555368,-0.24733722275048492
1733851082349052200,10.68705224609375,-0.01865560063123703,0.0029401451051235196,-0.22898791158944368
1733851082359020300,10.697020263671876,-0.08637596868276595,-0.00379325480312109,-0.17369564795643092
1733851082368989200,10.7069892578125,-0.08613339209854602,0.01907294926047325,-0.13248393212407827
1733851082378958300,10.716958251953125,-0.01986906807422638,0.0212646140858531,-0.06985533425360918
1733851082388926200,10.72692626953125,0.05191606519818306,0.026150340300798415,0.005524024118483066
1733851082398895400,10.736895263671874,0.10650982517302035,0.025560265453159807,0.04735767124146223
1733851082408863000,10.746863037109375,0.14057809899151325,-0.0057183776468038554,0.08227320953905581
1733851082418832100,10.75683203125,0.14490297645330427,-0.10172726707160472,0.09722820208668709
1733851082428801000,10.766801025390626,0.128176298058033,-0.16055062744021414,0.1360243812099099
1733851082438769200,10.77676904296875,0.11817746661305427,-0.1305824824169278,0.11658639802932738
1733851082448738000,10.786738037109375,0.03594225099682808,-0.09749649763405323,0.05094809694886207
1733851082458706200,10.7967060546875,-0.030639468413591383,-0.04412848006188869,-0.04540127647668123
1733851082468675000,10.806675048828126,-0.05707563991844654,0.002939560583233833,-0.1131806812390685
1733851082478644200,10.816644287109375,-0.03513911792039871,0.03347615314424038,-0.1551651350095868
1733851082488612000,10.826612060546875,-0.02966448590159416,0.03372311364263296,-0.1345797353595495
1733851082498581200,10.836581298828126,-0.027865327525138855,0.036548984718322755,-0.09232873960733413
1733851082508549000,10.846549072265624,0.008726911813020705,0.042341888906061644,-0.03730827865302563
1733851082518518300,10.856518310546875,0.005645312410593032,0.05902618946433067,-0.029838088902831076
1733851082528487200,10.866487060546875,-0.06017711306512356,0.07065466793775559,-0.019737258388102055
1733851082538455300,10.876455322265626,-0.16068915912806986,0.08411503801345825,0.0023465631261467934
1733851082548424200,10.886424072265624,-0.206366622197628,0.0988175171047449,0.026223990058898923
1733851082558392000,10.89639208984375,-0.27700901517570015,0.11064619432538747,0.04001198465377092
1733851082568361200,10.906361328125,-0.2254951010376215,0.07711217351406813,0.06748480572998523
1733851082578330400,10.916330322265624,-0.13998597831726073,0.05702390973120927,0.08137129226326942
1733851082588298000,10.926298095703125,-0.04808335516750812,0.024492343960702417,0.07651508440375328
1733851082598267100,10.93626708984375,0.02887596587240696,-0.026133389165997504,0.07523644277006387
1733851082608235000,10.946235107421876,0.09563479541540146,-0.07994242850393056,0.06565320638865232
1733851082618204200,10.9562041015625,0.150118080753088,-0.09374591292887925,0.036951135778427124
1733851082628173000,10.966173095703125,0.09876023395955562,-0.09210311415791511,0.01482435190528631
1733851082638141200,10.97614111328125,0.05473404522836208,-0.06780804633498191,-0.015062836836278438
1733851082648110000,10.986110107421876,0.01037935519516468,0.02549918291568756,-0.046259354610741134
1733851082658078200,10.996078125,-0.04415127641558647,0.08908435085862874,-0.06014116496890783
1733851082668046800,11.006046875,-0.029670915642380714,0.15849106456190346,-0.03833119195997715
1733851082678016000,11.01601611328125,-0.04500935454964637,0.18828560658395288,-0.013008534654974936
1733851082687983900,11.02598388671875,0.008589549168944359,0.16818945175558328,0.00879296278655529
1733851082697953000,11.035953125,0.13848083445131779,0.14524258367121218,0.014752747973799704
1733851082707921200,11.045921142578125,0.21171616653203962,0.11088380247354507,-0.021239771905541417
1733851082717890000,11.05589013671875,0.25434125629365445,0.05069032279551029,-0.07103782203644514
1733851082727859000,11.06585888671875,0.2435369536846876,0.009580021511018276,-0.12592735008746384
1733851082737827000,11.0758271484375,0.14555881001353263,-0.001901157446205616,-0.1787155219450593
1733851082747796000,11.0857958984375,0.11051789177060127,-0.02773088749051094,-0.22436025178879498
1733851082757764000,11.09576416015625,0.09194061707258223,0.004402618873119354,-0.23446546621769665
1733851082767733000,11.10573291015625,0.08159984032213688,0.023694763842225075,-0.23027181392014026
1733851082777702100,11.1157021484375,0.049719431936740874,0.05434913756400347,-0.20414105510264635
1733851082787670000,11.125669921875,0.03677636373341083,0.05145487742722034,-0.14573124397099016
1733851082797639200,11.13563916015625,0.024660978525876998,0.06768383543342352,-0.05138210445195436
1733851082807607000,11.14560693359375,0.06085632750093937,0.1034951535269618,0.018852876769006252
1733851082817576000,11.155575927734375,0.12851298266649244,0.11271627859771251,0.05022241302281618
1733851082827544800,11.165544921875,0.18773790957331657,0.1199146656692028,0.051852644573152064
1733851082837513000,11.175512939453125,0.21409984679818153,0.1451332780778408,-0.015852818170189856
1733851082847481900,11.18548193359375,0.16108955662250518,0.17044073781371116,-0.11775894894003867
1733851082857450000,11.195449951171875,0.11740765128433704,0.17309066780060528,-0.2030573515191674
1733851082867419000,11.2054189453125,0.04249474138021469,0.1689794330894947,-0.2924450692385435
1733851082877388000,11.215387939453125,-0.023030162453651425,0.12410334953069686,-0.3177975371599197
1733851082887356200,11.225356201171875,-0.13024784363508224,0.05305471383929252,-0.3239224497810006
1733851082897325000,11.235324951171876,-0.13049918804764746,-0.009784896433353424,-0.28466011445075273
1733851082907293200,11.245293212890624,-0.06040566112399101,-0.04193272358328104,-0.24333967754691838
1733851082917262000,11.255261962890625,0.05340659601688385,-0.04295242201983929,-0.21660130822509527
1733851082927231000,11.26523095703125,0.1798848579853773,-0.042915597140789026,-0.20856150189340114
1733851082937199000,11.27519921875,0.20287293486297128,-0.04840951838195324,-0.19319296010881662
1733851082947168000,11.28516796875,0.17728899627327918,-0.02452186231613159,-0.1694426666870713
1733851082957136100,11.29513623046875,0.12274550518095492,0.006997311541438103,-0.13886398855000734
1733851082967105000,11.30510498046875,0.09530337150394916,0.015019874477386473,-0.1296466628715396
1733851082977074200,11.31507421875,0.04622165294885635,0.03901303674429655,-0.1315741238027811
1733851082987042000,11.3250419921875,0.026160861694812774,0.05312982490211725,-0.15525076746642588
1733851082997011000,11.335010986328125,0.04499824863374233,0.06014964053630829,-0.18201982418745755
1733851083006979000,11.34497900390625,0.06763268976807595,0.06865618759691715,-0.253252876535058
1733851083016948000,11.354947998046875,-0.043135377371311186,0.05383417377918959,-0.28321926799267527
1733851083026916900,11.364916748046875,-0.047297757747769356,0.04468845203220844,-0.3091691172853112
1733851083036885000,11.374885009765626,-0.049070612639188764,0.04069733656942844,-0.33261165993213654
1733851083046854100,11.384854248046874,-0.011461305212974547,0.03488981933444738,-0.3083218528062105
1733851083056822000,11.394822021484375,0.012761281895637511,0.05007774385511875,-0.2613485047072172
1733851083066791200,11.404791259765625,-0.009796586871147156,0.036728725199401374,-0.2017173350870609
1733851083076760000,11.414760009765626,0.011822539740800856,0.04654869294613599,-0.12785568780153989
1733851083086728200,11.424728271484375,0.014468085813522338,0.02015782188773155,-0.057739072263240813
1733851083096697000,11.434697021484375,0.07667816601097584,0.03099164285212755,-0.007613105352222919
1733851083106665200,11.444665283203125,0.1555202320575714,0.04711743274480104,0.0015367080479860304
1733851083116634000,11.454634033203124,0.2163490870296955,0.02887333552390337,0.0023725743502378462
1733851083126603000,11.46460302734375,0.22387948253452777,0.07982406282126903,-0.05897387475520372
1733851083136571000,11.47457080078125,0.23196517383456228,0.13694471092522142,-0.16004969218075274
1733851083146540000,11.4845400390625,0.16940964120030402,0.17260288428366183,-0.2870315197572112
1733851083156508000,11.4945078125,0.14303192188441752,0.2366232287734747,-0.4393289903759956
1733851083166477000,11.50447705078125,0.07627601495087147,0.2949389318808913,-0.5985086217239499
1733851083176446000,11.514446044921876,0.1243757367312908,0.23654870223253963,-0.7224310617297888
1733851083186414000,11.5244140625,0.0854372265279293,0.10224252311736344,-0.7216743981435895
1733851083196383000,11.534383056640625,-0.03199263658821583,-0.02961041762679815,-0.6111264034956694
1733851083206351000,11.54435107421875,-0.10429799434244633,-0.11581979757100343,-0.48422027150392527
1733851083216320000,11.554320068359376,-0.1932785925656557,-0.1334656366378069,-0.31024872921556235
1733851083226289200,11.5642890625,-0.23470365888774394,-0.16453092924803495,-0.09625117374807596
1733851083236257000,11.574257080078125,-0.21216215673387048,-0.20044220058470963,0.14583996504247188
1733851083246226200,11.58422607421875,-0.14646891059577463,-0.21591829439699647,0.3911106106519699
1733851083256194000,11.594194091796876,-0.03598433657288551,-0.17755670729875564,0.5706789500340819
1733851083266163200,11.6041630859375,0.09828852479457854,-0.1504591492757201,0.6168383514016866
1733851083276132000,11.614132080078125,0.07999591225683689,-0.14738251830935478,0.5650570184990763
1733851083286100200,11.624100341796876,0.022444471520185468,-0.12798515940010546,0.43971419030129905
1733851083296069000,11.634069091796874,-0.04069324491620063,-0.09486118069440126,0.3124333797782659
1733851083306037000,11.644037109375,-0.08893734360337256,-0.07356617147028446,0.23442338064163923
1733851083316006000,11.654005859375,-0.11112345644831657,-0.06828676976263523,0.18364537956267593
1733851083325975000,11.66397509765625,-0.15684592770338057,-0.03572363981008529,0.16492138987034557
1733851083335943000,11.67394287109375,-0.09965922862589359,-0.014646364989876747,0.15524638355225323
1733851083345912000,11.683912109375,-0.004257657444477081,-0.008710252939164638,0.1086710948601365
1733851083355880000,11.6938798828125,0.1255956339150667,-0.002206277872622013,0.003804652979969978
1733851083365849000,11.70384912109375,0.24816285991966722,0.017135259196162222,-0.12519260607212782
1733851083375818000,11.71381787109375,0.24250761063694953,0.044912031655013555,-0.2407952537611127
1733851083385786000,11.7237861328125,0.2836795789808035,0.06866232507675886,-0.34123891076296564
1733851083395755000,11.733755126953126,0.26179449490904805,0.08170826913267373,-0.3935214711859822
1733851083405723100,11.74372314453125,0.2048462807625532,0.10858517014235257,-0.39018765058815474
1733851083415692000,11.753692138671875,0.12980243795514107,0.11779869642853737,-0.3452782492816448
1733851083425661200,11.7636611328125,0.07976911776363849,0.12237287247627973,-0.2656155145019293
1733851083435629000,11.773629150390626,0.007663081973791122,0.1505725465223193,-0.1854942222997546
1733851083445598200,11.78359814453125,-0.06114917296767235,0.16123714839965103,-0.08306406765580177
1733851083455567000,11.793567138671875,-0.08218553125560284,0.13305968618541955,-0.0011678747355937957
1733851083465535000,11.803534912109376,-0.08883622131645678,0.12139233700633048,0.060517012543976303
1733851083475503900,11.81350390625,-0.08111877880692482,0.13111761220693588,0.06675152301937341
1733851083485472000,11.823471923828125,-0.029141338810324668,0.11058189691752195,0.04441051187366247
1733851083495441000,11.83344091796875,-0.037571898025274275,0.05240823262929916,0.036600130383670326
1733851083505410000,11.84341015625,-0.056225160568952555,0.03434884432554245,0.03515694583803415
1733851083515378000,11.8533779296875,-0.09011573973298072,0.010462649564445018,0.05823913073986768
1733851083525347000,11.86334716796875,-0.06871873143911361,-0.006385317122936249,0.10127923104315996
1733851083535315000,11.87331494140625,-0.07279694066345692,0.01714022763222456,0.15251432823985814
1733851083545284000,11.8832841796875,-0.11596329769492149,0.001768178716301918,0.20194237601459025
1733851083555252000,11.893251953125,-0.1494645852804184,-0.036245617857575414,0.24285130950808523
1733851083565221000,11.90322119140625,-0.12073884153366088,-0.07422989607602358,0.24266250893771646
1733851083575190000,11.91318994140625,-0.05376490793526172,-0.10322861154526472,0.23799802425801753
1733851083585158100,11.923158203125,0.008501286363601684,-0.1244634150147438,0.15722703597545623
1733851083595127000,11.933126953125,0.08917875114381313,-0.14980477702021597,0.031707682166993614
1733851083605095200,11.94309521484375,0.14567629891335962,-0.15702449914067984,-0.0884352393001318
1733851083615064000,11.95306396484375,0.11832184351980686,-0.14982348172068596,-0.16161328823566437
1733851083625033200,11.963033203125,0.0658218409538269,-0.1180237373560667,-0.22206658789366482
1733851083635000800,11.973000732421875,0.016368950998783112,-0.07923428023457527,-0.22633213638365268
1733851083644970000,11.982969970703126,0.0035223289072513577,-0.020216566337645053,-0.16764496961534023
1733851083654939000,11.99293896484375,0.04233107525110245,0.0067556117400527,-0.11839900040924549
1733851083664907000,12.002906982421875,0.10516016412973403,0.03801379657387733,-0.038728666844964024
1733851083674876400,12.01287646484375,0.15501929679811,0.0585085953310132,0.004311141197383403
1733851083684844500,12.022844482421876,0.18731237763762473,0.06559358515590429,0.0003907528832554817
1733851083694813400,12.0328134765625,0.17374445553421974,0.057119479060173034,-0.05481090985685587
1733851083704782600,12.042782470703125,0.19448329218029975,0.06444879903495311,-0.12120558226257562
1733851083714750500,12.05275048828125,0.11325579230189323,0.07929507051110267,-0.18281185134798286
1733851083724719600,12.0627197265625,0.00020399813950061797,0.09732026428431272,-0.21057284171581267
1733851083734687500,12.0726875,-0.0828577314287424,0.09206570475697518,-0.21030659199506044
1733851083744656600,12.08265673828125,-0.11211889722645282,0.05650397751033306,-0.17249416321218014
1733851083754625500,12.09262548828125,-0.061114101654291146,0.03516162201315164,-0.1293301442682743
1733851083764593400,12.102593505859375,-0.006389408776164054,0.02135726080536842,-0.08718933089226484
1733851083774562300,12.112562255859375,0.027608137893676755,0.03865998552292585,-0.04447714736908674
