time,seconds_elapsed,z,y,x
1733851071672681200,0.01068115234375,0.043092429637908936,0.19601918756961823,0.04917781427502632
1733851071682650000,0.020650146484375,0.03787989541888237,0.2070266157388687,0.034066326916217804
1733851071692619300,0.030619384765625,0.0243275985121727,0.1944948434829712,0.02165013737976551
1733851071702587100,0.040587158203125,0.01133644673973322,0.1469355672597885,0.002917396603152156
1733851071712556000,0.05055615234375,0.0006622308865189552,0.0697033554315567,-0.021280352026224136
1733851071722524200,0.060524169921875,-0.00012724092812277377,0.014103395864367485,-0.03671339154243469
1733851071732493000,0.0704931640625,0.0039503248408436775,0.002062978455796838,-0.03983621299266815
1733851071742462200,0.080462158203125,0.012719778344035149,0.003059739712625742,-0.03309078514575958
1733851071752430000,0.09043017578125,0.016289744526147842,0.0056693716906011105,-0.022439468652009964
1733851071762399200,0.100399169921875,0.022424615919589996,0.01854155957698822,-0.003312842221930623
1733851071772367400,0.110367431640625,0.030612770467996597,0.04489300400018692,0.012657868675887585
1733851071782336300,0.120336181640625,0.036733515560626984,0.1022668108344078,0.028922060504555702
1733851071792305200,0.13030517578125,0.04110322892665863,0.16096635162830353,0.042471155524253845
1733851071802273300,0.140273193359375,0.04945940524339676,0.19984383881092072,0.04573711380362511
1733851071812242200,0.1502421875,0.05637749657034874,0.22968082129955292,0.040008123964071274
1733851071822210300,0.160210205078125,0.0626845434308052,0.2546390891075134,0.037195008248090744
1733851071832179200,0.17017919921875,0.07065245509147644,0.2825474143028259,0.036668770015239716
1733851071842148400,0.1801484375,0.07160448282957077,0.29928797483444214,0.03534768149256706
1733851071852116200,0.1901162109375,0.04321997985243797,0.28333646059036255,0.04549965262413025
1733851071862085000,0.200085205078125,0.017683882266283035,0.25546443462371826,0.06099962443113327
1733851071872053200,0.21005322265625,0.01503376942127943,0.23807665705680847,0.06733342260122299
1733851071882022100,0.220022216796875,0.03704195097088814,0.24582870304584503,0.06492980569601059
1733851071891991000,0.229990966796875,0.08631416410207748,0.31975752115249634,0.06677377969026566
1733851071901959200,0.239959228515625,0.16015246510505676,0.3836178481578827,0.07072252035140991
1733851071911928000,0.249927978515625,0.14565102756023407,0.34170767664909363,0.058406732976436615
1733851071921896200,0.259896240234375,0.12608781456947327,0.2598172426223755,0.056084152311086655
1733851071931865000,0.269864990234375,0.13663899898529053,0.28170204162597656,0.06927639245986938
1733851071941834200,0.279834228515625,0.11325240880250931,0.4444410502910614,0.11268790066242218
1733851071951802400,0.28980224609375,0.029224619269371033,0.7112833261489868,0.21291756629943848
1733851071961771300,0.299771240234375,-0.045142076909542084,1.0242393016815186,0.34161576628685
1733851071971739400,0.309739501953125,-0.07679854333400726,1.2691377401351929,0.43017837405204773
1733851071981708300,0.319708251953125,-0.07637699693441391,1.4299880266189575,0.4578531086444855
1733851071991677200,0.32967724609375,-0.05447089299559593,1.4391416311264038,0.43865570425987244
1733851072001645000,0.33964501953125,-0.026561805978417397,1.3056236505508423,0.3765237033367157
1733851072011614200,0.3496142578125,-0.02236173488199711,1.1150680780410767,0.2993479371070862
1733851072021582000,0.35958203125,-0.032214198261499405,0.8961966037750244,0.23010806739330292
1733851072031551200,0.36955126953125,-0.05605801194906235,0.6818776726722717,0.17840147018432617
1733851072041520000,0.37952001953125,-0.083823062479496,0.49081218242645264,0.14330248534679413
1733851072051488300,0.38948828125,-0.09971680492162704,0.31796184182167053,0.10912693291902542
1733851072061457200,0.39945703125,-0.09028936922550201,0.15631240606307983,0.06392499804496765
1733851072071425300,0.40942529296875,-0.056218221783638,0.01801365055143833,0.0053346543572843075
1733851072081394200,0.419394287109375,-0.013537153601646423,-0.08595406264066696,-0.053628284484148026
1733851072091363000,0.429363037109375,0.02354363538324833,-0.15475869178771973,-0.08951704204082489
1733851072101331200,0.439331298828125,0.04136759787797928,-0.18680045008659363,-0.09020327776670456
1733851072111300400,0.44930029296875,0.04244165122509003,-0.17996758222579956,-0.06210160627961159
1733851072121268200,0.459268310546875,0.03633582219481468,-0.14092883467674255,-0.02733750268816948
1733851072131237400,0.4692373046875,0.02825126238167286,-0.09089655429124832,0.0024938962887972593
1733851072141206300,0.479206298828125,0.028743457049131393,-0.04911704361438751,0.018725935369729996
1733851072151174400,0.48917431640625,0.030238553881645203,-0.02947835996747017,0.023298315703868866
1733851072161143300,0.499143310546875,0.03237369284033775,-0.026603437960147858,0.022760378196835518
1733851072171111200,0.509111083984375,0.032633885741233826,-0.0325755774974823,0.022363834083080292
1733851072181080000,0.519080078125,0.03410053253173828,-0.03737706318497658,0.016698434948921204
1733851072191049200,0.52904931640625,0.036458227783441544,-0.03830410912632942,0.008225588127970695
1733851072201017000,0.53901708984375,0.035121895372867584,-0.03978010267019272,0.0005729408003389835
1733851072210986200,0.548986328125,0.037835922092199326,-0.035359520465135574,-0.005797873251140118
1733851072220954000,0.5589541015625,0.047302182763814926,-0.02502894587814808,-0.0074030812829732895
1733851072230923300,0.56892333984375,0.05597982928156853,-0.010864656418561935,0.0012932049576193094
1733851072240892200,0.57889208984375,0.05521615967154503,0.001761709339916706,0.012543831020593643
1733851072250860300,0.5888603515625,0.049057602882385254,0.0032975543290376663,0.0320592075586319
1733851072260829200,0.5988291015625,0.04313858598470688,-0.009811089374125004,0.043092384934425354
1733851072270797300,0.60879736328125,0.04234736040234566,-0.04175970330834389,0.03993067890405655
1733851072280766200,0.61876611328125,0.046017084270715714,-0.08115627616643906,0.024769408628344536
1733851072290735400,0.6287353515625,0.047285281121730804,-0.11520559340715408,0.01321129035204649
1733851072300703200,0.638703125,0.04369461163878441,-0.13086766004562378,0.006632697768509388
1733851072310672400,0.64867236328125,0.043672241270542145,-0.1265011578798294,0.01083037257194519
1733851072320640000,0.658639892578125,0.04913190007209778,-0.11958238482475281,0.0157991424202919
1733851072330609400,0.668609375,0.05999014154076576,-0.11010685563087463,0.015542146749794483
1733851072340578300,0.678578369140625,0.07369515299797058,-0.11275182664394379,0.009518252685666084
1733851072350546200,0.688546142578125,0.08395764231681824,-0.12200871109962463,0.0025437006261199713
1733851072360515000,0.69851513671875,0.09222657233476639,-0.13315115869045258,-0.003940158523619175
1733851072370483200,0.708483154296875,0.0943155586719513,-0.14209724962711334,-0.003213914344087243
1733851072380452000,0.7184521484375,0.08646582067012787,-0.14204883575439453,-0.003076579887419939
1733851072390421200,0.728421142578125,0.0709715485572815,-0.12719905376434326,-0.0011215535923838615
1733851072400389000,0.73838916015625,0.0560249499976635,-0.09389518946409225,0.01203709002584219
1733851072410358300,0.748358154296875,0.04356827959418297,-0.04721583425998688,0.03316980600357056
1733851072420326100,0.758326171875,0.02880086936056614,0.003126906929537654,0.05172088369727135
1733851072430295300,0.76829541015625,0.015957508236169815,0.03430160507559776,0.0782499685883522
1733851072440264200,0.77826416015625,0.010606938041746616,0.03713718429207802,0.10291462391614914
1733851072450232300,0.788232421875,0.0074982293881475925,0.014848657883703709,0.11162608861923218
1733851072460201200,0.798201171875,0.011040542274713516,-0.02030593901872635,0.10660757124423981
1733851072470169300,0.80816943359375,0.0179746150970459,-0.06086614727973938,0.09016494452953339
1733851072480138200,0.81813818359375,0.023776941001415253,-0.10193837434053421,0.0775725394487381
1733851072490107400,0.828107421875,0.025603070855140686,-0.1341269463300705,0.0726957619190216
1733851072500075000,0.838074951171875,0.02026311121881008,-0.15067900717258453,0.08109322190284729
1733851072510044200,0.848044189453125,0.007974752224981785,-0.1510486602783203,0.10322782397270203
1733851072520012000,0.858011962890625,-0.005842512007802725,-0.13200433552265167,0.12349189072847366
1733851072529981200,0.867981201171875,-0.01611645519733429,-0.10022535920143127,0.13300016522407532
1733851072539950000,0.8779501953125,-0.028341401368379593,-0.045461319386959076,0.1279594898223877
1733851072549918200,0.887918212890625,-0.039063822478055954,0.017362914979457855,0.1216198280453682
1733851072559887000,0.89788720703125,-0.0482957661151886,0.05556851997971535,0.11896669119596481
1733851072569855200,0.907855224609375,-0.059816066175699234,0.060306817293167114,0.11791953444480896
1733851072579824000,0.91782421875,-0.07060212641954422,0.03384038805961609,0.11430144309997559
1733851072589793300,0.927793212890625,-0.0756797045469284,-0.015038205310702324,0.10648506134748459
1733851072599761200,0.93776123046875,-0.05802354961633682,-0.06561480462551117,0.08842062950134277
1733851072609730300,0.947730224609375,-0.021547831594944,-0.0929713249206543,0.054548416286706924
1733851072619698200,0.9576982421875,0.02119811810553074,-0.08036468178033829,0.015579196624457836
1733851072629667300,0.967667236328125,0.05791938304901123,-0.025658294558525085,-0.009803658351302147
1733851072639636200,0.97763623046875,0.07929704338312149,0.05739498510956764,-0.008250590413808823
1733851072649604400,0.987604248046875,0.07792391628026962,0.14481991529464722,0.015820391476154327
1733851072659574300,0.99757421875,0.05639299750328064,0.21195483207702637,0.05121232569217682
1733851072669542400,1.00754248046875,0.024230802431702614,0.23896194994449615,0.08326826244592667
1733851072679511300,1.01751123046875,-0.009734174236655235,0.23184087872505188,0.10397033393383026
1733851072689480200,1.027480224609375,-0.03581983596086502,0.20554429292678833,0.11158457398414612
1733851072699448300,1.0374482421875,-0.053824473172426224,0.1749301254749298,0.11562103778123856
1733851072709417200,1.047417236328125,-0.06549578160047531,0.15669280290603638,0.11529666185379028
1733851072719385300,1.05738525390625,-0.06728564202785492,0.14288823306560516,0.11650648713111877
1733851072729354500,1.0673544921875,-0.05684365704655647,0.1476190686225891,0.1204194724559784
1733851072739323400,1.077323486328125,-0.04803052917122841,0.1744953840970993,0.11430183053016663
1733851072749291300,1.087291259765625,-0.04508720338344574,0.20597846806049347,0.11062347143888474
1733851072759260200,1.09726025390625,-0.05473259463906288,0.23191013932228088,0.10694079846143723
1733851072769228300,1.107228271484375,-0.07660141587257385,0.2449476420879364,0.1069735512137413
1733851072779197200,1.117197265625,-0.10448266565799713,0.23030278086662292,0.10598324239253998
1733851072789166300,1.127166259765625,-0.13003648817539215,0.17806993424892426,0.09122506529092789
1733851072799134200,1.13713427734375,-0.1427767276763916,0.0886799544095993,0.059407103806734085
1733851072809103400,1.147103271484375,-0.1370253562927246,-0.01647069677710533,0.02021363191306591
1733851072819071200,1.1570712890625,-0.1156991645693779,-0.10554870218038559,-0.018235333263874054
1733851072829040400,1.167040283203125,-0.0894867405295372,-0.1398765742778778,-0.041526809334754944
1733851072839009300,1.17700927734375,-0.06652574986219406,-0.10416094213724136,-0.04299161210656166
1733851072848977400,1.186977294921875,-0.05712665244936943,-0.023258104920387268,-0.01976351998746395
1733851072858946300,1.1969462890625,-0.059052709490060806,0.06978537887334824,0.016000457108020782
1733851072868914400,1.20691455078125,-0.07007420063018799,0.1401285082101822,0.049477458000183105
1733851072878883300,1.21688330078125,-0.07996386289596558,0.1684836596250534,0.06406804919242859
1733851072888852500,1.2268525390625,-0.08648568391799927,0.15581554174423218,0.05709642544388771
1733851072898820400,1.2368203125,-0.09291864186525345,0.12307532876729965,0.037996407598257065
1733851072908789500,1.24678955078125,-0.09414422512054443,0.07795525342226028,0.019655218347907066
1733851072918757000,1.256757080078125,-0.09325306117534637,0.03699296712875366,0.007581332698464394
1733851072928726300,1.266726318359375,-0.08864712715148926,0.009170390665531158,0.0065664020366966724
1733851072938694100,1.276694091796875,-0.08143779635429382,-0.006594180129468441,0.00916215218603611
1733851072948663300,1.286663330078125,-0.06596057116985321,-0.005910280626267195,0.013962499797344208
1733851072958632200,1.296632080078125,-0.04696858674287796,0.00850670225918293,0.009153077378869057
1733851072968600300,1.306600341796875,-0.024445433169603348,0.02354344353079796,-0.0033573878463357687
1733851072978569200,1.3165693359375,-0.0009006793261505663,0.02575846016407013,-0.012391824275255203
1733851072988538400,1.326538330078125,0.0167989544570446,0.012823219411075115,-0.013943381607532501
1733851072998506200,1.33650634765625,0.019047081470489502,0.0055501400493085384,-0.010348411276936531
1733851073008475400,1.346475341796875,0.015361800789833069,0.015464022755622864,-0.000089648412540555
1733851073018443300,1.356443359375,0.01185200922191143,0.033191997557878494,0.00871523842215538
1733851073028412400,1.366412353515625,0.008084168657660484,0.05854369327425957,0.005655532702803612
1733851073038380300,1.37638037109375,0.006292420439422131,0.08018564432859421,-0.0016489883419126272
1733851073048349400,1.386349365234375,-0.0013617703225463629,0.10740368068218231,-0.0036346411798149347
1733851073058318300,1.396318359375,-0.01205663476139307,0.12719404697418213,-0.0012491540983319283
1733851073068286200,1.4062861328125,-0.02290395461022854,0.1286875456571579,0.007276156917214394
1733851073078255000,1.416255126953125,-0.03134267032146454,0.10816258192062378,0.014951204881072044
1733851073088223200,1.42622314453125,-0.03477495163679123,0.07077685743570328,0.019239692017436028
1733851073098192100,1.436192138671875,-0.033065468072891235,0.03197158873081207,0.022609250620007515
1733851073108161300,1.446161376953125,-0.029203886166214943,0.003662185510620475,0.01620807684957981
1733851073118129200,1.456129150390625,-0.0196089930832386,-0.007730557583272457,-0.005203722044825554
1733851073128098300,1.466098388671875,-0.00004594484926201403,-0.017091035842895508,-0.025232290849089622
1733851073138066200,1.476066162109375,0.004201054573059082,-0.030096855014562607,-0.03799467533826828
1733851073148035300,1.486035400390625,0.007645853329449892,-0.05362002179026604,-0.049391407519578934
1733851073158004200,1.496004150390625,0.014622436836361885,-0.08111708611249924,-0.07032062113285065
1733851073167972400,1.505972412109375,0.01994076929986477,-0.1009560376405716,-0.0836060643196106
1733851073177941200,1.515941162109375,0.02336692623794079,-0.11464201658964157,-0.08346358686685562
1733851073187909400,1.525909423828125,0.02794836275279522,-0.11418236047029495,-0.07105618715286255
1733851073197878300,1.535878173828125,0.02650633081793785,-0.10098953545093536,-0.048118025064468384
1733851073207847400,1.545847412109375,0.02151237241923809,-0.07522930949926376,-0.02426435612142086
1733851073217815300,1.555815185546875,0.01372586376965046,-0.05314245447516441,-0.008468136191368103
1733851073227784400,1.565784423828125,0.007216033060103655,-0.041601646691560745,-0.0035815020091831684
1733851073237752300,1.57575244140625,-0.0030588353984057903,-0.04075215011835098,-0.0023451007436960936
1733851073247721200,1.58572119140625,-0.007102579344063997,-0.04854216054081917,-0.0031325973104685545
1733851073257690000,1.595690185546875,-0.007191415876150131,-0.05327541008591652,-0.004933926276862621
1733851073267658200,1.605658203125,-0.006836948916316032,-0.04267975687980652,0.0034648848231881857
1733851073277627100,1.615627197265625,0.0021892329677939415,-0.013631033711135387,0.008441587910056114
1733851073287595300,1.62559521484375,0.014163604006171227,0.025237802416086197,0.007369666360318661
1733851073297564200,1.635564208984375,0.022341245785355568,0.05419988930225372,0.008807132951915264
1733851073307533300,1.645533203125,0.02439986914396286,0.07374269515275955,0.0071064382791519165
1733851073317501200,1.655501220703125,0.030454088002443314,0.07102778553962708,-0.010897183790802956
1733851073327470300,1.66547021484375,0.04228384792804718,0.044901639223098755,-0.04515635222196579
1733851073337438500,1.6754384765625,0.04839078709483147,-0.009473258629441261,-0.07000476866960526
1733851073347407400,1.685407470703125,0.04354703053832054,-0.05917796492576599,-0.0817549005150795
1733851073357376300,1.695376220703125,0.03894168138504028,-0.09877651184797287,-0.08156526833772659
1733851073367344400,1.705344482421875,0.039903346449136734,-0.10763151943683624,-0.07047612965106964
1733851073377313300,1.715313232421875,0.040575265884399414,-0.09061276912689209,-0.050169914960861206
1733851073387281200,1.72528125,0.04102720320224762,-0.056830838322639465,-0.02396201528608799
1733851073397250000,1.73525,0.039820946753025055,-0.021143756806850433,0.0007796420250087976
1733851073407219200,1.74521923828125,0.03456945717334747,0.015587892383337021,0.013503426685929298
1733851073417187300,1.755187255859375,0.031196340918540955,0.03461397811770439,0.01268764492124319
1733851073427156200,1.76515625,0.026271356269717216,0.03092310205101967,0.003228629007935524
1733851073437124400,1.775124267578125,0.023570112884044647,0.018364785239100456,-0.018275724723935127
1733851073447093200,1.78509326171875,0.018215561285614967,-0.008985878899693489,-0.033482637256383896
1733851073457062100,1.795062255859375,0.0022662668488919735,-0.0396406427025795,-0.03158511593937874
1733851073467030300,1.8050302734375,-0.006751462817192078,-0.06521551311016083,-0.025728825479745865
1733851073476999200,1.814999267578125,-0.005974561907351017,-0.07642236351966858,-0.02265099436044693
1733851073486967300,1.82496728515625,0.00227963924407959,-0.06860651820898056,-0.03190707787871361
1733851073496936400,1.8349365234375,0.01004701480269432,-0.05026480183005333,-0.04427586495876312
1733851073506905300,1.8449052734375,0.021030690521001816,-0.03016778640449047,-0.05839674547314644
1733851073516873500,1.85487353515625,0.02541104331612587,-0.0010094342287629843,-0.07125268876552582
1733851073526842400,1.86484228515625,0.025312773883342743,0.03821307048201561,-0.08041583001613617
1733851073536810500,1.874810546875,0.01750914938747883,0.08474822342395782,-0.07554344832897186
1733851073546779400,1.884779296875,0.0023139514960348606,0.14578387141227722,-0.06975666433572769
1733851073556748300,1.894748291015625,-0.019210485741496086,0.19325201213359833,-0.05123809725046158
1733851073566716200,1.904716064453125,-0.046707358211278915,0.22659079730510712,-0.030094457790255547
1733851073576685300,1.914685302734375,-0.07043490558862686,0.25042474269866943,-0.025661397725343704
1733851073586653200,1.924653076171875,-0.084052175283432,0.24049809575080872,-0.027118412777781487
1733851073596622300,1.934622314453125,-0.08874224871397018,0.21680274605751038,-0.04779025912284851
1733851073606591200,1.94459130859375,-0.08715926110744476,0.1739697903394699,-0.07794789224863052
1733851073616559400,1.954559326171875,-0.08376626670360565,0.12280262261629105,-0.10260973125696182
1733851073626528300,1.9645283203125,-0.09023535251617432,0.05541054531931877,-0.1023641899228096
1733851073636496400,1.974496337890625,-0.08911684155464172,0.0004194818902760744,-0.09855101257562637
1733851073646465300,1.98446533203125,-0.08301606774330139,-0.05952773988246918,-0.08506663143634796
1733851073656432600,1.9944326171875,-0.08485234528779984,-0.10618884861469269,-0.06337319314479828
1733851073666400800,2.00440087890625,-0.08431199193000793,-0.13226759433746338,-0.05193065479397774
1733851073676369700,2.01436962890625,-0.0836486667394638,-0.17550797760486603,-0.04160313308238983
1733851073686337800,2.024337890625,-0.07606984674930573,-0.22593705356121063,-0.04444019868969917
1733851073696306700,2.034306640625,-0.0647922232747078,-0.2876741588115692,-0.06875400990247726
1733851073706275600,2.044275634765625,-0.05263116583228111,-0.3400702476501465,-0.11072516441345215
1733851073716243700,2.05424365234375,-0.04282869026064873,-0.3739079535007477,-0.15565045177936554
1733851073726212900,2.064212890625,-0.03670608252286911,-0.35107481479644775,-0.20385898649692535
1733851073736180700,2.0741806640625,-0.03361373022198677,-0.29217252135276794,-0.21972893178462982
1733851073746150000,2.08414990234375,-0.042422134429216385,-0.21210166811943054,-0.1981157809495926
1733851073756118800,2.094118896484375,-0.04665301740169525,-0.13453911244869232,-0.16822190582752228
1733851073766087000,2.1040869140625,-0.043486516922712326,-0.08851835876703262,-0.13926269114017487
1733851073776055800,2.114055908203125,-0.0320865772664547,-0.05473991110920906,-0.126399964094162
1733851073786023700,2.124023681640625,-0.009145841002464294,-0.028934944421052933,-0.13344508409500122
1733851073795992600,2.13399267578125,0.017671938985586166,-0.027994783595204353,-0.1248222291469574
1733851073805961700,2.143961669921875,0.03428713604807854,-0.03014182299375534,-0.11143585294485092
1733851073815929600,2.1539296875,0.04721703380346298,-0.01863783225417137,-0.10165492445230484
1733851073825898800,2.163898681640625,0.045730989426374435,-0.0203731469810009,-0.09092771261930466
1733851073835866600,2.17386669921875,0.03690444678068161,-0.016515955328941345,-0.09178406000137329
1733851073845835800,2.183835693359375,0.032234061509370804,-0.00532109197229147,-0.10892683267593384
1733851073855804700,2.1938046875,0.025539295747876167,-0.010284594260156155,-0.11805471032857895
1733851073865772800,2.203772705078125,0.02253551594913006,-0.005194494035094976,-0.1290532946586609
1733851073875741700,2.21374169921875,0.02593352645635605,-0.003574188333004713,-0.1381186842918396
1733851073885709800,2.223709716796875,0.02967420220375061,0.0052890777587890625,-0.14652468264102936
1733851073895678700,2.2336787109375,0.033736634999513626,0.013908594846725464,-0.15196636319160461
1733851073905647900,2.24364794921875,0.040755659341812134,0.02189807780086994,-0.15784822404384613
1733851073915615700,2.25361572265625,0.05112941563129425,0.015399790368974209,-0.16072165966033936
1733851073925585000,2.2635849609375,0.06337063759565353,0.013344096951186657,-0.16293394565582275
1733851073935552500,2.273552490234375,0.07286979258060455,0.005829128436744213,-0.16087061166763306
1733851073945521700,2.283521728515625,0.08429129421710968,0.002785401651635766,-0.1539866179227829
1733851073955490600,2.293490478515625,0.09066370129585266,0.008863622322678566,-0.14521083235740662
1733851073965458700,2.303458740234375,0.09300834685564041,0.035824667662382126,-0.1345142424106598
1733851073975427600,2.313427490234375,0.08743970841169357,0.057756904512643814,-0.10372143238782883
1733851073985395700,2.323395751953125,0.07173291593790054,0.09620842337608337,-0.0754607692360878
1733851073995364600,2.333364501953125,0.053665027022361755,0.11609477549791336,-0.042538754642009735
1733851074005333800,2.343333740234375,0.03859473019838333,0.12501423060894012,-0.02469637617468834
1733851074015301600,2.353301513671875,0.041771598160266876,0.10841815173625946,-0.034781038761138916
1733851074025270800,2.363270751953125,0.05595080181956291,0.0574369914829731,-0.06257644295692444
1733851074035238700,2.37323876953125,0.0748898983001709,-0.015210272744297981,-0.10302853584289551
1733851074045207800,2.383207763671875,0.09175089746713638,-0.08771830052137375,-0.1414630115032196
1733851074055176700,2.3931767578125,0.10275840014219284,-0.1729530394077301,-0.1571841537952423
1733851074065144800,2.403144775390625,0.10044091194868088,-0.23459270596504211,-0.16755369305610657
1733851074075113700,2.41311376953125,0.09767922759056091,-0.276941180229187,-0.16979093849658966
1733851074085081900,2.423081787109375,0.1018310934305191,-0.3161810040473938,-0.15882378816604614
1733851074095050800,2.43305078125,0.10025684535503387,-0.3354968726634979,-0.15004335343837738
1733851074105020000,2.44302001953125,0.10319776833057404,-0.3519653379917145,-0.14100831747055054
1733851074114987500,2.452987548828125,0.10786433517932892,-0.3568424880504608,-0.13351187109947205
1733851074124956700,2.462956787109375,0.11378826946020126,-0.34568092226982117,-0.13178454339504242
1733851074134924500,2.472924560546875,0.11429983377456665,-0.33062636852264404,-0.1201862171292305
1733851074144893700,2.482893798828125,0.10619290918111801,-0.302759051322937,-0.09208294004201889
1733851074154862600,2.492862548828125,0.09341851621866226,-0.24987727403640747,-0.06163756176829338
1733851074164830700,2.502830810546875,0.08268091827630997,-0.18006783723831177,-0.017934022471308708
1733851074174799600,2.512799560546875,0.0664496198296547,-0.09541148692369461,0.026003185659646988
1733851074184767700,2.522767822265625,0.04764103889465332,-0.007063248194754124,0.06847608089447021
1733851074194736600,2.532736572265625,0.03336704149842262,0.07108718901872635,0.09978971630334854
1733851074204705800,2.542705810546875,0.019423795863986015,0.13475404679775238,0.11245331168174744
1733851074214673700,2.552673583984375,0.01029176078736782,0.1600102335214615,0.11671663075685501
1733851074224642800,2.562642822265625,0.0017797648906707764,0.17395533621311188,0.10351560264825821
1733851074234610700,2.572610595703125,-0.003899006173014641,0.16585002839565277,0.08260202407836914
1733851074244579800,2.582579833984375,-0.009026390500366688,0.13664260506629944,0.07128173112869263
1733851074254548700,2.592548828125,-0.015315656550228596,0.11303970962762833,0.06758753955364227
1733851074264516600,2.6025166015625,-0.021478742361068726,0.0987292155623436,0.07394690811634064
1733851074274485500,2.612485595703125,-0.02577824704349041,0.09799177199602127,0.08425125479698181
1733851074284453600,2.62245361328125,-0.026274394243955612,0.11498220264911652,0.09484077990055084
1733851074294422500,2.632422607421875,-0.020375940948724747,0.14015203714370728,0.10492672026157379
1733851074304390700,2.642390625,-0.016139118000864983,0.15908925235271454,0.1188713014125824
1733851074314359600,2.652359619140625,-0.010220663622021675,0.1573341190814972,0.12890039384365082
1733851074324328700,2.66232861328125,-0.007023538928478956,0.1453980952501297,0.1232941746711731
1733851074334296600,2.672296630859375,-0.011207842268049717,0.12216992676258087,0.110511414706707
1733851074344265700,2.682265625,-0.013765541836619377,0.08090157806873322,0.09691357612609863
1733851074354233900,2.69223388671875,-0.013448527082800865,0.03830370679497719,0.08057557791471481
1733851074364202800,2.70220263671875,-0.015978796407580376,-0.004468255676329136,0.06722355633974075
1733851074374171600,2.712171630859375,-0.01912682130932808,-0.0327216275036335,0.05076424032449722
1733851074384139800,2.722139892578125,-0.014904911629855633,-0.035284388810396194,0.04085488244891167
1733851074394108700,2.732108642578125,-0.014410419389605522,-0.034982383251190186,0.0410655252635479
1733851074404077800,2.742077880859375,-0.020989226177334785,-0.0053376685827970505,0.04439820721745491
1733851074414045700,2.752045654296875,-0.02889658510684967,0.028910242021083832,0.0485905185341835
1733851074424014800,2.762014892578125,-0.03166467323899269,0.0666741281747818,0.05740237981081009
1733851074433982700,2.771982666015625,-0.03605830296874046,0.1058039516210556,0.07836547493934631
1733851074443951600,2.78195166015625,-0.04657459259033203,0.15672172605991364,0.10349426418542862
1733851074453919700,2.791919677734375,-0.05393170192837715,0.21045635640621185,0.12990140914916992
1733851074463888600,2.801888671875,-0.05759168416261673,0.2691212594509125,0.1470564305782318
1733851074473857500,2.811857421875,-0.05862661451101303,0.3218870759010315,0.15213026106357574
1733851074483825700,2.82182568359375,-0.05368991568684578,0.35787782073020935,0.15100426971912384
1733851074493794600,2.831794677734375,-0.045598484575748444,0.3888944089412689,0.14442692697048187
1733851074503762700,2.8417626953125,-0.034425459802150726,0.3953544497489929,0.14752817153930664
1733851074513731800,2.85173193359375,-0.03521419316530228,0.3953353762626648,0.15483543276786804
1733851074523700700,2.86170068359375,-0.03059547208249569,0.40772199630737305,0.15518298745155334
1733851074533668900,2.8716689453125,-0.027568327262997627,0.4275202453136444,0.1506415605545044
1733851074543637800,2.8816376953125,-0.025088125839829445,0.462295264005661,0.14361560344696045
1733851074553606000,2.89160595703125,-0.024428922683000565,0.49653735756874084,0.15099568665027618
1733851074563574800,2.90157470703125,-0.026238806545734406,0.5225258469581604,0.17266663908958435
1733851074573543700,2.911543701171875,-0.030459145084023476,0.5509901642799377,0.19918932020664215
1733851074583511600,2.921511474609375,-0.031066613271832466,0.5622012615203857,0.22138197720050812
1733851074593480700,2.931480712890625,-0.027076510712504387,0.5574524402618408,0.2277883142232895
1733851074603448600,2.941448486328125,-0.013597187586128712,0.5319620370864868,0.21141892671585083
1733851074613417700,2.951417724609375,0.007489805109798908,0.4584326148033142,0.18208248913288116
1733851074623386600,2.96138671875,0.025426460430026054,0.3790419101715088,0.12906748056411743
1733851074633354800,2.971354736328125,0.05081562325358391,0.2826569974422455,0.0821944922208786
1733851074643323600,2.98132373046875,0.0825093686580658,0.16708487272262573,0.054549284279346466
1733851074653291800,2.991291748046875,0.11515190452337265,0.054900698363780975,0.03395523503422737
1733851074663261000,3.001260986328125,0.1414937674999237,-0.05013224482536316,0.028394291177392006
1733851074673229800,3.011229736328125,0.1474810540676117,-0.12186968326568604,0.020801478996872902
1733851074683198000,3.021197998046875,0.13958744704723358,-0.17051604390144348,0.014432528056204319
1733851074693166800,3.031166748046875,0.1304650753736496,-0.20441091060638428,0.0019957679323852062
1733851074703135000,3.041135009765625,0.11987447738647461,-0.22825604677200317,-0.01620081253349781
1733851074713104100,3.051104248046875,0.11383023113012314,-0.2573300004005432,-0.040350541472435
1733851074723073000,3.061072998046875,0.1172364130616188,-0.29836583137512207,-0.06260950118303299
1733851074733041200,3.071041259765625,0.12089903652667999,-0.33994075655937195,-0.08975297957658768
1733851074743010000,3.081010009765625,0.12535236775875092,-0.39835667610168457,-0.11311076581478119
1733851074752978200,3.090978271484375,0.12539587914943695,-0.44949936866760254,-0.1386466771364212
1733851074762947000,3.100947021484375,0.13217470049858093,-0.4951861500740051,-0.16179805994033813
1733851074772916000,3.110916015625,0.1355442851781845,-0.5076815485954285,-0.19080209732055664
1733851074782884000,3.120884033203125,0.1327599436044693,-0.48973211646080017,-0.2109483778476715
1733851074792853000,3.13085302734375,0.12098392844200134,-0.45271915197372437,-0.21078179776668549
1733851074802820900,3.14082080078125,0.09466657042503357,-0.37781402468681335,-0.18916065990924835
1733851074812790300,3.150790283203125,0.060842033475637436,-0.26576507091522217,-0.1491558700799942
1733851074822759200,3.16075927734375,0.026494445279240608,-0.129197895526886,-0.10202936828136444
1733851074832727000,3.17072705078125,0.004062555730342865,0.0042898161336779594,-0.0541023425757885
1733851074842696000,3.180696044921875,-0.009645266458392143,0.10378098487854004,-0.01193305104970932
1733851074852664000,3.1906640625,-0.01748562790453434,0.16212332248687744,0.020125478506088257
1733851074862633000,3.200633056640625,-0.019445447251200676,0.194676473736763,0.03223993256688118
1733851074872602000,3.21060205078125,-0.014475429430603981,0.19916340708732605,0.023623544722795486
1733851074882570000,3.220570068359375,-0.010207447223365307,0.1887962520122528,0.014713939279317856
1733851074892539100,3.2305390625,-0.011251335963606834,0.18941417336463928,0.006685126572847366
1733851074902507000,3.240507080078125,-0.013395978137850761,0.2079966515302658,0.007970101200044155
1733851074912476200,3.25047607421875,-0.014462349936366081,0.2433055192232132,0.02548351138830185
1733851074922445000,3.260445068359375,-0.01532841008156538,0.29546675086021423,0.04972626268863678
1733851074932413200,3.2704130859375,-0.021411223337054253,0.3492709994316101,0.08184973895549774
1733851074942382000,3.280382080078125,-0.022748664021492004,0.39534980058670044,0.11048217862844467
1733851074952350200,3.29035009765625,-0.022598348557949066,0.43069493770599365,0.12833884358406067
1733851074962319000,3.300319091796875,-0.01997939683496952,0.4410434365272522,0.1369704157114029
1733851074972288300,3.310288330078125,-0.014983853325247765,0.43915385007858276,0.12861280143260956
1733851074982255900,3.320255859375,-0.007614620495587587,0.4065357446670532,0.12144463509321213
1733851074992225000,3.33022509765625,-0.004687371663749218,0.3501517176628113,0.11271177977323532
1733851075002193000,3.34019287109375,-0.0056024338118731976,0.27046939730644226,0.10245434939861298
1733851075012162000,3.350162109375,-0.005138721317052841,0.16521194577217102,0.09087974578142166
1733851075022131000,3.360130859375,-0.0016209515742957592,0.04228523001074791,0.0671435222029686
1733851075032099000,3.37009912109375,0.007838750258088112,-0.07982522249221802,0.022026069462299347
1733851075042068000,3.38006787109375,0.02064349316060543,-0.1744454801082611,-0.032806821167469025
1733851075052036000,3.3900361328125,0.03162558376789093,-0.22617438435554504,-0.07830152660608292
1733851075062005000,3.4000048828125,0.034294337034225464,-0.21910981833934784,-0.09967578947544098
1733851075071974100,3.40997412109375,0.03283705562353134,-0.17400199174880981,-0.09484854340553284
1733851075081942000,3.41994189453125,0.02121555618941784,-0.09718870371580124,-0.06109431013464928
1733851075091911200,3.4299111328125,0.0071501825004816055,-0.009074388071894646,-0.013141805306077003
1733851075101879000,3.439879150390625,-0.004349080845713615,0.08575145900249481,0.023256149142980576
1733851075111848200,3.44984814453125,-0.007662094198167324,0.1617148220539093,0.04892841726541519
1733851075121817000,3.459817138671875,-0.00559175293892622,0.20726844668388367,0.05294313281774521
1733851075131785200,3.46978515625,-0.003616796340793371,0.19292892515659332,0.04342890530824661
1733851075141754000,3.479754150390625,-0.005327344872057438,0.1457749903202057,0.0072511937469244
1733851075151722000,3.489721923828125,-0.010941104963421822,0.10378364473581314,-0.050253789871931076
1733851075161691000,3.49969091796875,-0.016789140179753304,0.0788324847817421,-0.10549361258745193
1733851075171660000,3.509659912109375,-0.02638714388012886,0.08188264816999435,-0.13311351835727692
1733851075181628000,3.5196279296875,-0.03909574821591377,0.1262727528810501,-0.12594376504421234
1733851075191597000,3.52959716796875,-0.05265207961201668,0.20545586943626404,-0.09139063954353333
1733851075201565000,3.53956494140625,-0.05825137346982956,0.298511803150177,-0.042856134474277496
1733851075211534000,3.5495341796875,-0.052900440990924835,0.3801993429660797,-0.000059773679822683334
1733851075221503000,3.5595029296875,-0.03591080754995346,0.41321614384651184,0.029268819838762283
1733851075231471000,3.56947119140625,-0.014850878156721592,0.4110887050628662,0.03320508077740669
1733851075241440000,3.57943994140625,0.004286331590265036,0.3485986888408661,0.014866020530462265
1733851075251408100,3.589408203125,0.008461046032607555,0.2648681104183197,-0.007182571105659008
1733851075261377000,3.599376953125,0.005386426579207182,0.1898612529039383,-0.0259365513920784
1733851075271345200,3.60934521484375,0.00185193563811481,0.1292269229888916,-0.0341542549431324
1733851075281314000,3.61931396484375,-0.00005089288606541231,0.10774028301239014,-0.030280685052275658
1733851075291283200,3.629283203125,-0.007433679886162281,0.13750575482845306,-0.02283594384789467
1733851075301250800,3.639250732421875,-0.009936784394085407,0.19506439566612244,-0.007690812461078167
1733851075311220000,3.649219970703125,-0.003649229882284999,0.24896979331970215,0.007036025635898113
1733851075321188900,3.65918896484375,0.003584714373573661,0.29591280221939087,0.014827901497483253
1733851075331157000,3.669156982421875,0.002727373968809843,0.32536616921424866,0.010850934311747551
1733851075341126000,3.6791259765625,-0.000518753076903522,0.30699941515922546,-0.0016611285973340273
1733851075351094000,3.689093994140625,-0.008683515712618828,0.2648252844810486,-0.01857255958020687
1733851075361063000,3.69906298828125,-0.021836334839463234,0.201280415058136,-0.03754119202494621
1733851075371032000,3.709031982421875,-0.031104808673262596,0.11026152968406677,-0.053474120795726776
1733851075381000000,3.719,-0.032234255224466324,0.018567560240626335,-0.06276961416006088
1733851075390969000,3.728968994140625,-0.026988331228494644,-0.05076424777507782,-0.061949752271175385
1733851075400937000,3.73893701171875,-0.02263885736465454,-0.07759851962327957,-0.05110296607017517
1733851075410906000,3.748906005859375,-0.02061440795660019,-0.040158066898584366,-0.040195614099502563
1733851075420875000,3.758875,-0.021796317771077156,0.007088543847203255,-0.012423638254404068
1733851075430843100,3.768843017578125,-0.02855805680155754,0.05430731549859047,0.01252046786248684
1733851075440812000,3.77881201171875,-0.03992709144949913,0.09761005640029907,0.020357351750135422
1733851075450780200,3.7887802734375,-0.05366140231490135,0.127431720495224,0.01573854312300682
1733851075460749000,3.7987490234375,-0.06582406163215637,0.13798396289348602,0.012284955009818077
1733851075470718200,3.80871826171875,-0.08013822138309479,0.14129690825939178,0.00949177797883749
1733851075480685800,3.818685791015625,-0.0912606418132782,0.1585262268781662,0.010073412209749222
1733851075490655000,3.828655029296875,-0.0965171754360199,0.17123401165008545,0.02398809604346752
1733851075500623000,3.838623046875,-0.10289917141199112,0.18196548521518707,0.047187160700559616
1733851075510592000,3.848592041015625,-0.10993976145982742,0.20181408524513245,0.06589087098836899
1733851075520560000,3.85856005859375,-0.12089547514915466,0.22672902047634125,0.0822213739156723
1733851075530529000,3.868529052734375,-0.13056619465351105,0.24179603159427643,0.10145554691553116
1733851075540498000,3.878497802734375,-0.14259010553359985,0.22838088870048523,0.11870697140693665
1733851075550466000,3.888466064453125,-0.15376092493534088,0.20284084975719452,0.12693893909454346
1733851075560435000,3.89843505859375,-0.1615791618824005,0.15845021605491638,0.1291046142578125
1733851075570404000,3.908404052734375,-0.15383853018283844,0.0916559100151062,0.11625717580318451
1733851075580372000,3.9183720703125,-0.13488081097602844,0.021534083411097527,0.08584281802177429
1733851075590341000,3.928341064453125,-0.11185884475708008,-0.03651271015405655,0.04900170862674713
1733851075600309200,3.938309326171875,-0.10022828727960587,-0.06428682059049606,0.020262204110622406
1733851075610278100,3.948278076171875,-0.09472326189279556,-0.05803637579083443,0.018444864079356194
1733851075620247000,3.9582470703125,-0.09685059636831284,-0.0019547317642718554,0.02793264202773571
1733851075630215000,3.96821484375,-0.09987623244524002,0.09388802200555801,0.04938552901148796
1733851075640183800,3.978183837890625,-0.09375789016485214,0.2123320996761322,0.06787318736314774
1733851075650152000,3.98815185546875,-0.08359595388174057,0.2883554995059967,0.09037639945745468
1733851075660121900,3.998121826171875,-0.07330496609210968,0.30985042452812195,0.10918977111577988
1733851075670089700,4.00808984375,-0.06811521202325821,0.2966029644012451,0.11345097422599792
1733851075680058600,4.01805859375,-0.06128579378128052,0.254999577999115,0.11305096745491028
1733851075690027800,4.02802783203125,-0.0514557883143425,0.21711812913417816,0.10011646896600723
1733851075699995600,4.03799560546875,-0.039993807673454285,0.18560680747032166,0.08663900941610336
1733851075709964800,4.04796484375,-0.032657723873853683,0.15815603733062744,0.0761890634894371
1733851075719932700,4.0579326171875,-0.02987338975071907,0.15758265554904938,0.0616665855050087
1733851075729901800,4.06790185546875,-0.029020296409726143,0.15673235058784485,0.05437513068318367
1733851075739870700,4.07787060546875,-0.028894327580928802,0.14806349575519562,0.04924508556723595
1733851075749838800,4.0878388671875,-0.03569996356964111,0.14670205116271973,0.04116872698068619
1733851075759807700,4.097807861328125,-0.03614657744765282,0.1351276934146881,0.03831275552511215
1733851075769775900,4.10777587890625,-0.030397571623325348,0.10994397848844528,0.03900778666138649
1733851075779744800,4.117744873046875,-0.02029833197593689,0.06852409988641739,0.03185746446251869
1733851075789714000,4.1277138671875,-0.0104165468364954,0.023957395926117897,0.01635383814573288
1733851075799681800,4.137681884765625,-0.003975158557295799,-0.01664995215833187,-0.003741575637832284
1733851075809651000,4.14765087890625,-0.010163895785808563,-0.0453663244843483,-0.01600118912756443
1733851075819618800,4.157618896484375,-0.021736662834882736,-0.06558078527450562,-0.01672264002263546
1733851075829588000,4.167587890625,-0.030150262638926506,-0.06796274334192276,-0.018938159570097923
1733851075839556900,4.177556884765625,-0.03184323385357857,-0.05371269956231117,-0.018185017630457878
1733851075849524700,4.187524658203125,-0.028037015348672867,-0.03854941576719284,-0.014598003588616848
1733851075859493600,4.19749365234375,-0.02690410614013672,-0.011548958718776703,-0.004629258997738361
1733851075869461800,4.207461669921875,-0.026886137202382088,0.02011013589799404,0.006959717720746994
1733851075879430700,4.2174306640625,-0.01943487860262394,0.03521877899765968,0.02078365348279476
1733851075889399800,4.22739990234375,-0.010215548798441887,0.047567859292030334,0.028552094474434853
1733851075899368000,4.237367919921875,-0.004955272655934095,0.04910317063331604,0.030384881421923637
1733851075909336800,4.2473369140625,-0.0011909215245395899,0.0422699861228466,0.020860351622104645
1733851075919305000,4.257304931640625,-0.00047959122457541525,0.030358999967575073,0.00249226251617074
1733851075929273900,4.26727392578125,-0.0024272880982607603,0.01107553020119667,-0.013735013082623482
1733851075939242800,4.27724267578125,-0.01103648915886879,0.006768399849534035,-0.022491753101348877
1733851075949211000,4.2872109375,-0.015333064831793308,0.014460570178925991,-0.018386848270893097
1733851075959179800,4.2971796875,-0.020685220137238503,0.03457196056842804,-0.004600993823260069
1733851075969148000,4.30714794921875,-0.024031689390540123,0.07889841496944427,0.007711348123848438
1733851075979116800,4.31711669921875,-0.02353767305612564,0.14027707278728485,0.021394137293100357
1733851075989086000,4.3270859375,-0.01970667578279972,0.19200357794761658,0.03717757388949394
1733851075999053800,4.3370537109375,-0.018174558877944946,0.2138068825006485,0.053565070033073425
1733851076009022700,4.347022705078125,-0.0179752130061388,0.22062835097312927,0.06305874139070511
1733851076018990800,4.356990966796875,-0.015024164691567421,0.20750375092029572,0.0596376471221447
1733851076028959700,4.366959716796875,-0.007025584578514099,0.17353373765945435,0.05018656700849533
1733851076038928600,4.3769287109375,0.000899183563888073,0.12643679976463318,0.029279686510562897
1733851076048896800,4.386896728515625,0.006802739109843969,0.06838783621788025,0.007500586099922657
1733851076058865700,4.39686572265625,0.005114028695970774,0.03241651877760887,-0.013434255495667458
1733851076068833800,4.406833740234375,0.0010644941357895732,0.007158188149333,-0.023029550909996033
1733851076078803000,4.416802978515625,-0.0022079981863498688,-0.008386416360735893,-0.025858627632260323
1733851076088771800,4.426771728515625,-0.006696726661175489,-0.006977388635277748,-0.02797502838075161
1733851076098740000,4.436739990234375,-0.00512173306196928,0.00019983085803687572,-0.02574622817337513
1733851076108708900,4.446708984375,-0.0036782585084438324,0.0075289588421583176,-0.02520952932536602
1733851076118677000,4.456677001953125,0.0017950701294466853,0.01771341823041439,-0.022765813395380974
1733851076128646000,4.46664599609375,0.005015351343899965,0.026947153732180595,-0.021104462444782257
1733851076138614800,4.47661474609375,0.00779755599796772,0.03517073020339012,-0.012496326118707657
1733851076148583000,4.4865830078125,0.01016331184655428,0.034703850746154785,-0.009219094179570675
1733851076158551800,4.4965517578125,0.012929004617035389,0.0175767932087183,-0.008211886510252953
1733851076168519700,4.506519775390625,0.012698359787464142,-0.0051818471401929855,-0.012651447206735611
1733851076178488800,4.51648876953125,0.014532744884490967,-0.024840770289301872,-0.016575083136558533
1733851076188457700,4.526457763671875,0.0165371373295784,-0.04679363593459129,-0.018470631912350655
1733851076198425900,4.53642578125,0.01605803519487381,-0.05190557613968849,-0.021366285160183907
1733851076208394800,4.546394775390625,0.015459260903298855,-0.03517907112836838,-0.025619033724069595
1733851076218363000,4.55636279296875,0.013136184774339199,-0.004260836634784937,-0.021511107683181763
1733851076228331800,4.566331787109375,0.010148510336875916,0.02317466028034687,-0.008960074745118618
1733851076238301000,4.576301025390625,0.0065543074160814285,0.04385596886277199,0.0015474268002435565
1733851076248268800,4.586268798828125,0.0038017064798623323,0.04713878035545349,0.008904888294637203
1733851076258238000,4.596238037109375,0.0002780781069304794,0.04394964501261711,0.00745399808511138
1733851076268205800,4.606205810546875,-0.006096380762755871,0.02814302034676075,0.006625240668654442
1733851076278175000,4.616175048828125,-0.009798973798751831,0.01520964503288269,0.0041911113075912
1733851076288144000,4.626143798828125,-0.010583413764834404,0.005373494233936071,0.0017018192447721958
1733851076298112000,4.636112060546875,-0.01260954700410366,0.01211528666317463,-0.0013384453486651182
1733851076308081000,4.646080810546875,-0.019601186737418175,0.03585051745176315,-0.001035322668030858
1733851076318048800,4.656048828125,-0.021585240960121155,0.067208431661129,0.005707268603146076
1733851076328017700,4.666017578125,-0.023464495316147804,0.09310957789421082,0.015442222356796265
1733851076337987000,4.675987060546875,-0.020082812756299973,0.10308604687452316,0.026234682649374008
1733851076347954700,4.68595458984375,-0.016938403248786926,0.09384236484766006,0.032089587301015854
1733851076357923800,4.695923828125,-0.010164386592805386,0.08162111788988113,0.02605965919792652
1733851076367891700,4.7058916015625,-0.003297720104455948,0.060555651783943176,0.016948575153946877
1733851076377860900,4.71586083984375,0.005155153572559357,0.03650357574224472,0.007355603389441967
1733851076387829800,4.725829833984375,0.008101210929453373,0.014098107814788818,-0.0012094422709196806
1733851076397798000,4.7357978515625,0.006076410412788391,0.002082190942019224,-0.009897738695144653
1733851076407766800,4.745766845703125,0.0048269531689584255,0.00535531947389245,-0.013877211138606071
1733851076417735000,4.75573486328125,0.0014322216156870127,0.005458116997033358,-0.009434525854885578
1733851076427703800,4.765703857421875,0.0031694720964878798,0.009736545383930206,-0.01103073637932539
1733851076437673000,4.7756728515625,0.004850459285080433,0.015564341098070145,-0.01750168576836586
1733851076447640800,4.785640869140625,0.0043595824390649796,0.025444673374295235,-0.02421632967889309
1733851076457610000,4.79560986328125,0.0021273207385092974,0.03509224206209183,-0.022308973595499992
1733851076467577900,4.805577880859375,-0.003023484954610467,0.037879303097724915,-0.017161546275019646
1733851076477547000,4.815547119140625,-0.0016394401900470257,0.02673450857400894,-0.013570806011557579
1733851076487516000,4.825515869140625,0.0004879069747403264,0.007506283465772867,-0.018489859998226166
1733851076497483800,4.83548388671875,0.00263574649579823,-0.01932399906218052,-0.02754700370132923
1733851076507452700,4.84545263671875,0.00022093282314017415,-0.033797889947891235,-0.03291149437427521
1733851076517420800,4.8554208984375,-0.0014107860624790192,-0.031578145921230316,-0.035185836255550385
1733851076527389700,4.8653896484375,-0.0047620381228625774,-0.011074231006205082,-0.035802412778139114
1733851076537358800,4.87535888671875,-0.012572823092341423,0.020407527685165405,-0.03788633644580841
1733851076547326700,4.88532666015625,-0.016841884702444077,0.054021529853343964,-0.036329131573438644
1733851076557295900,4.8952958984375,-0.018392378464341164,0.08629158139228821,-0.037595730274915695
1733851076567263700,4.905263671875,-0.026311973109841347,0.11097907274961472,-0.04164716228842735
1733851076577233000,4.91523291015625,-0.03615928068757057,0.13434378802776337,-0.042676739394664764
1733851076587201800,4.925201904296875,-0.04215269163250923,0.1489391028881073,-0.03869916871190071
1733851076597170000,4.935169921875,-0.047285936772823334,0.16288341581821442,-0.030609019100666046
1733851076607138800,4.945138916015625,-0.048062514513731,0.14905467629432678,-0.014579184353351593
1733851076617107000,4.95510693359375,-0.047722429037094116,0.12150215357542038,-0.0033920444548130035
1733851076627075800,4.965075927734375,-0.0433555468916893,0.08047786355018616,0.003579400945454836
1733851076637045000,4.975044921875,-0.036343444138765335,0.048380378633737564,0.002967140171676874
1733851076647012900,4.985012939453125,-0.026986466720700264,0.02740032970905304,-0.003468069015070796
1733851076656982000,4.99498193359375,-0.01582595892250538,0.019919244572520256,-0.007723000831902027
1733851076666949000,5.00494921875,-0.008665937930345535,0.015752898529171944,-0.0025592383462935686
1733851076676918000,5.01491796875,-0.0052541629411280155,0.021531159058213234,0.0031732157804071903
1733851076686887000,5.024886962890625,-0.002532804850488901,0.024547753855586052,0.005940275266766548
1733851076696855000,5.03485498046875,0.0009665889665484428,0.016242684796452522,0.0031636639032512903
1733851076706824200,5.04482421875,0.0019520421046763659,0.002508270088583231,-0.002373028313741088
1733851076716792000,5.0547919921875,-0.002049091039225459,-0.011339634656906128,-0.011647487059235573
1733851076726761200,5.06476123046875,-0.011185793206095695,-0.020509904250502586,-0.014371281489729881
1733851076736730000,5.074730224609375,-0.016554992645978928,-0.019062209874391556,-0.013262607157230377
1733851076746698200,5.0846982421875,-0.02121611312031746,-0.0213575828820467,-0.008206612430512905
1733851076756667100,5.094667236328125,-0.027429800480604172,-0.023512879386544228,-0.0037759116385132074
1733851076766635000,5.104635009765625,-0.03191341459751129,-0.023381726816296577,-0.003871094435453415
1733851076776604000,5.11460400390625,-0.03334805741906166,-0.020950525999069214,-0.0031605632975697517
1733851076786573000,5.124572998046875,-0.030409878119826317,-0.00474576186388731,-0.006902854423969984
1733851076796541000,5.134541015625,-0.026953892782330513,0.021799029782414436,-0.008044818416237831
1733851076806510000,5.144510009765625,-0.028468657284975052,0.04731275141239166,0.003137600142508745
1733851076816478000,5.15447802734375,-0.027463581413030624,0.07431773841381073,0.010148105211555958
1733851076826447000,5.164447021484375,-0.027869809418916702,0.09036131948232651,0.014654351398348808
1733851076836416000,5.174416015625,-0.026401875540614128,0.09431717544794083,0.013220238499343395
1733851076846384000,5.184384033203125,-0.025151297450065613,0.08177757263183594,0.005732160061597824
1733851076856353000,5.19435302734375,-0.027093008160591125,0.06417407840490341,-0.010129095055162907
1733851076866321200,5.204321044921875,-0.027997221797704697,0.04726986959576607,-0.028241876512765884
1733851076876290000,5.2142900390625,-0.032621003687381744,0.039129119366407394,-0.03854511305689812
1733851076886259200,5.22425927734375,-0.03386755660176277,0.03628244251012802,-0.03971242904663086
1733851076896227000,5.23422705078125,-0.034856922924518585,0.03603796288371086,-0.030349820852279663
1733851076906196200,5.2441962890625,-0.03274654969573021,0.0341925173997879,-0.019086353480815887
1733851076916163800,5.254163818359375,-0.031103910878300667,0.024284493178129196,-0.013940860517323017
1733851076926133200,5.26413330078125,-0.03135685622692108,0.009930143132805824,-0.016107602044939995
1733851076936102100,5.27410205078125,-0.030781349167227745,-0.0028852534014731646,-0.017723342403769493
1733851076946070000,5.284070068359375,-0.0289542768150568,-0.019380491226911545,-0.020869430154561996
1733851076956039000,5.294038818359375,-0.02979423850774765,-0.02842884697020054,-0.022778648883104324
1733851076966007000,5.304007080078125,-0.033408887684345245,-0.022285737097263336,-0.02711266092956066
1733851076975976000,5.313975830078125,-0.038346923887729645,-0.0054875826463103294,-0.02673475816845894
1733851076985945000,5.323945068359375,-0.04641948267817497,0.019532881677150726,-0.01753452979028225
1733851076995913000,5.333912841796875,-0.05072235316038132,0.041911691427230835,-0.006262701936066151
1733851077005882000,5.343882080078125,-0.05296623334288597,0.05379481613636017,0.002001974731683731
1733851077015850000,5.35385009765625,-0.05543418601155281,0.05873045325279236,0.0058310674503445625
1733851077025819100,5.363819091796875,-0.055969059467315674,0.0677117109298706,0.009069439023733139
1733851077035788000,5.3737880859375,-0.05799892172217369,0.0856076255440712,0.007643848657608032
1733851077045756200,5.383756103515625,-0.05781479924917221,0.10251834988594055,0.013091572560369968
1733851077055725000,5.39372509765625,-0.055800117552280426,0.11290521174669266,0.022446192800998688
1733851077065693200,5.403693115234375,-0.05167510733008385,0.10771987587213516,0.031277839094400406
1733851077075662000,5.413662109375,-0.04872805252671242,0.0946328416466713,0.030557455494999886
1733851077085631200,5.42363134765625,-0.04588095098733902,0.08532185107469559,0.020268313586711884
1733851077095598800,5.433598876953125,-0.046933963894844055,0.0825503021478653,0.014157423749566078
1733851077105568000,5.443568115234375,-0.044320378452539444,0.08103911578655243,0.01375548169016838
1733851077115536000,5.453535888671875,-0.039395663887262344,0.07384005934000015,0.015272950753569603
1733851077125505000,5.463505126953125,-0.03532404080033302,0.05963170528411865,0.012038648128509521
1733851077135474000,5.473473876953125,-0.030504517257213593,0.0520440936088562,0.00033831619657576084
1733851077145442000,5.483442138671875,-0.02109880931675434,0.04063970968127251,-0.010485248640179634
1733851077155411000,5.493410888671875,-0.01934032328426838,0.040200285613536835,-0.01605285331606865
1733851077165379000,5.503379150390625,-0.011157340370118618,0.039791855961084366,-0.018348658457398415
1733851077175348000,5.513347900390625,-0.004825141746550798,0.03736251965165138,-0.02186163328588009
1733851077185317000,5.523317138671875,-0.00688515231013298,0.03667258843779564,-0.019592231139540672
1733851077195285000,5.533284912109375,-0.011973920278251171,0.031469304114580154,-0.013276545330882072
1733851077205254100,5.543254150390625,-0.01006147637963295,0.008462119847536087,-0.009038248099386692
1733851077215222000,5.553221923828125,-0.010588782839477062,-0.019812127575278282,-0.0110763655975461
1733851077225191200,5.563191162109375,-0.00627149036154151,-0.05689707025885582,-0.022871434688568115
1733851077235160000,5.57316015625,-0.0029630453791469336,-0.07626651227474213,-0.039593689143657684
1733851077245128200,5.583128173828125,-0.002195886569097638,-0.08229334652423859,-0.05279453471302986
1733851077255097000,5.59309716796875,-0.0015862889122217894,-0.06442166864871979,-0.05346005782485008
1733851077265065000,5.60306494140625,-0.0008508500177413225,-0.034966278821229935,-0.04505375772714615
1733851077275033900,5.613033935546875,0.0012527809012681246,0.0012897320557385683,-0.03459206223487854
1733851077285003000,5.6230029296875,-0.0017067487351596355,0.033970292657613754,-0.024127362295985222
1733851077294971000,5.632970947265625,-0.0016462949570268393,0.04878012835979462,-0.014423866756260395
1733851077304940000,5.64293994140625,0.006579383742064238,0.0393088199198246,-0.010455227456986904
1733851077314908000,5.652907958984375,0.009585559368133545,0.020087720826268196,-0.011771095916628838
1733851077324877000,5.662876953125,0.01114669069647789,0.007337238173931837,-0.012033754028379917
1733851077334846000,5.672845947265625,0.012586395256221294,0.005043457727879286,-0.0054938290268182755
1733851077344814000,5.68281396484375,0.011628048494458199,0.010728657245635986,-0.0013943309895694256
1733851077354783000,5.692782958984375,0.008812288753688335,0.0377618707716465,0.0017511284677311778
1733851077364751000,5.702751220703125,0.006035524420440197,0.06784741580486298,0.005549502559006214
1733851077374720000,5.712719970703125,0.0028807439375668764,0.09488808363676071,0.015058851800858974
1733851077384689200,5.722689208984375,0.001161686610430479,0.11139726638793945,0.022137993946671486
1733851077394657000,5.732656982421875,0.000552089128177613,0.10992933064699173,0.02505681850016117
1733851077404626200,5.742626220703125,0.0027333302423357964,0.0861530601978302,0.019583383575081825
1733851077414594000,5.752593994140625,0.0033730212599039078,0.055974654853343964,0.007016724906861782
1733851077424563000,5.76256298828125,-0.00034829735523089767,0.030133165419101715,-0.002491310704499483
1733851077434531800,5.77253173828125,-0.001798388548195362,0.0018408051691949368,-0.0063409097492694855
1733851077444500000,5.7825,0.0005777251208201051,-0.03455996885895729,-0.004957591183483601
1733851077454468900,5.79246875,0.0021945300977677107,-0.06019981950521469,-0.009779777377843857
1733851077464437000,5.80243701171875,-0.0006047184579074383,-0.065520279109478,-0.011109227314591408
1733851077474406000,5.812406005859375,-0.006185638718307018,-0.037422068417072296,-0.010866079479455948
1733851077484375000,5.822375,-0.010824836790561676,0.0026277427095919847,-0.0010018572211265564
1733851077494343200,5.83234326171875,-0.010322565212845802,0.03802274912595749,0.008554629981517792
1733851077504312000,5.84231201171875,-0.01411665789783001,0.04509609565138817,0.014775542542338371
1733851077514280200,5.8522802734375,-0.014741702005267143,0.020996352657675743,0.0147039033472538
1733851077524249000,5.8622490234375,-0.014244378544390202,-0.01894618757069111,0.005109353456646204
1733851077534218000,5.872218017578125,-0.015028946101665497,-0.05433666706085205,-0.0025682735722512007
1733851077544186000,5.88218603515625,-0.014371410012245178,-0.07394544035196304,-0.003166279988363385
1733851077554155000,5.892155029296875,-0.010950845666229725,-0.06596474349498749,0.00008677132427692413
1733851077564123100,5.902123046875,-0.00840284489095211,-0.03690876066684723,0.00905667059123516
1733851077574092000,5.912092041015625,-0.0022781076841056347,0.008299467153847218,0.02229444682598114
1733851077584061200,5.922061279296875,-0.002174848923459649,0.05715261399745941,0.03847105801105499
1733851077594029000,5.932029052734375,-0.0031535604503005743,0.09229541569948196,0.04892263561487198
1733851077603998000,5.941998046875,-0.002103140577673912,0.10937903821468353,0.046674348413944244
1733851077613966000,5.951966064453125,-0.0021358972880989313,0.09625551104545593,0.04187506437301636
1733851077623935000,5.96193505859375,-0.003986258991062641,0.07004033029079437,0.032364655286073685
1733851077633903900,5.97190380859375,-0.00567896431311965,0.038639262318611145,0.02879389002919197
1733851077643872000,5.9818720703125,-0.003604671685025096,0.009270705282688141,0.026003610342741013
1733851077653841000,5.9918408203125,-0.0006493618129752576,-0.00885050743818283,0.021565720438957214
1733851077663809000,6.00180908203125,0.0019224821589887142,-0.00800234079360962,0.018177926540374756
1733851077673778200,6.011778076171875,0.0030439391266554594,0.004001858178526163,0.019121484830975533
1733851077683747000,6.0217470703125,-0.00018438689585309476,0.025633718818426132,0.02362946979701519
1733851077693715200,6.031715087890625,0.0015051225200295448,0.04494163766503334,0.027334459125995636
1733851077703684000,6.04168408203125,-0.0025756957475095987,0.05407415330410004,0.02634880691766739
1733851077713652200,6.05165234375,-0.0017029778100550175,0.04622448608279228,0.0222651157528162
1733851077723621000,6.06162109375,-0.00045796329504810274,0.019883982837200165,0.015625126659870148
1733851077733590000,6.071590087890625,0.0018195720622316003,-0.013626838102936745,0.006831902079284191
1733851077743558000,6.081557861328125,0.0061711762100458145,-0.041703034192323685,-0.0002365349791944027
1733851077753527000,6.091527099609375,0.009283613413572311,-0.04718941077589989,-0.007823614403605461
1733851077763495000,6.101494873046875,0.013593574985861778,-0.03561675176024437,-0.007512114010751247
1733851077773464000,6.111464111328125,0.01710069179534912,-0.011954299174249172,-0.0028963235672563314
1733851077783433000,6.121432861328125,0.015842054039239883,0.0055356151424348354,-0.0010482314974069595
1733851077793401000,6.131401123046875,0.011413482949137688,0.01629265584051609,-0.0002562075387686491
1733851077803370000,6.141369873046875,0.0030220025219023228,0.02432398311793804,-0.001199463615193963
1733851077813338000,6.151338134765625,-0.004658287391066551,0.026389263570308685,-0.0039337314665317535
1733851077823307000,6.16130712890625,-0.009069029241800308,0.027016373351216316,-0.006476321257650852
1733851077833276200,6.171276123046875,-0.010516723617911339,0.018964305520057678,-0.008610845543444157
1733851077843244000,6.181244140625,-0.007427792530506849,0.007689574267715216,-0.00708426907658577
1733851077853213200,6.191213134765625,-0.003997108433395624,-0.006306668743491173,-0.004958001896739006
1733851077863181000,6.20118115234375,-0.0008403516840189695,-0.01435590349137783,-0.0038036273326724768
1733851077873150200,6.211150146484375,-0.002413214650005102,-0.017748238518834114,0.000583930523134768
1733851077883119000,6.221119140625,-0.0007003531791269779,-0.005554194562137127,0.00019935192540287971
1733851077893087200,6.231087158203125,-0.005675404332578182,0.009400519542396069,0.0017450505401939154
1733851077903056100,6.24105615234375,-0.013117299415171146,0.027875863015651703,-0.00012187776155769825
1733851077913024000,6.25102392578125,-0.023266606032848358,0.03578438609838486,0.0008384581888094544
1733851077922993000,6.260992919921875,-0.028947677463293076,0.03222518414258957,0.004334976896643639
1733851077932962000,6.270962158203125,-0.03216930106282234,0.02104710042476654,0.0043821148574352264
1733851077942930000,6.280929931640625,-0.029412956908345222,0.013493532314896584,0.005871618632227182
1733851077952899000,6.290899169921875,-0.02241550199687481,0.014089280739426613,0.0027522582095116377
1733851077962867000,6.300866943359375,-0.019725780934095383,0.013679182156920433,0.0019728057086467743
1733851077972836000,6.310836181640625,-0.01705862395465374,0.023681215941905975,0.001386377727612853
1733851077982805000,6.320804931640625,-0.017073804512619972,0.04076104611158371,0.005955686792731285
1733851077992773000,6.330773193359375,-0.020396895706653595,0.058243099600076675,0.007919235154986382
1733851078002742000,6.340741943359375,-0.023914596065878868,0.07136961072683334,0.0089089535176754
1733851078012710100,6.350710205078125,-0.028278185054659843,0.06595780700445175,0.009473809972405434
1733851078022679000,6.360678955078125,-0.029596632346510887,0.05007528141140938,0.010442419908940792
1733851078032648200,6.370648193359375,-0.028732169419527054,0.038078807294368744,0.005276952870190144
1733851078042616000,6.380615966796875,-0.023513145744800568,0.03607180342078209,0.002477459842339158
1733851078052585200,6.390585205078125,-0.01793408952653408,0.04355262219905853,0.0038532488979399204
1733851078062552800,6.400552734375,-0.017555080354213715,0.04887097328901291,0.004401254467666149
1733851078072522000,6.41052197265625,-0.016996614634990692,0.04931678622961044,0.00985753908753395
1733851078082491000,6.420490966796875,-0.020814592018723488,0.04941011592745781,0.013115312904119492
1733851078092459000,6.430458984375,-0.02852843888103962,0.056899454444646835,0.015316415578126907
1733851078102428000,6.440427978515625,-0.028969893231987953,0.057053133845329285,0.021654950454831123
1733851078112396000,6.45039599609375,-0.03106633387506008,0.060616444796323776,0.02753574214875698
1733851078122365000,6.460364990234375,-0.027032457292079926,0.058102622628211975,0.02566613256931305
1733851078132334000,6.470333984375,-0.025394879281520844,0.060926102101802826,0.017709938809275627
1733851078142302000,6.480302001953125,-0.021829718723893166,0.053542956709861755,0.007037251256406307
1733851078152271000,6.49027099609375,-0.020020367577672005,0.03204991668462753,0.0019034754950553179
1733851078162239000,6.500239013671875,-0.012992817908525467,0.00747462036088109,-0.005789724178612232
1733851078172208000,6.5102080078125,-0.007975955493748188,-0.010092655196785927,-0.013190648518502712
1733851078182177000,6.520177001953125,-0.0035659850109368563,-0.010300806723535061,-0.01934141479432583
1733851078192145200,6.530145263671875,-0.005643783137202263,0.013275891542434692,-0.022648528218269348
1733851078202114000,6.540114013671875,-0.010237498208880424,0.04846437647938728,-0.017204634845256805
1733851078212082200,6.550082275390625,-0.0184464268386364,0.07682996988296509,0.000290469266474247
1733851078222051000,6.560051025390625,-0.02539363130927086,0.08565538376569748,0.01199717354029417
1733851078232020200,6.570020263671875,-0.03317885100841522,0.06654480844736099,0.019278788939118385
1733851078241987800,6.57998779296875,-0.036003101617097855,0.02393391542136669,0.0224306620657444
1733851078251957000,6.58995703125,-0.034388959407806396,-0.023269282653927803,0.015471555292606354
1733851078261924900,6.5999248046875,-0.029008228331804276,-0.05154411494731903,0.0046571288257837296
1733851078271894000,6.60989404296875,-0.02043391391634941,-0.05345280468463898,-0.0008457605727016926
1733851078281863000,6.61986279296875,-0.016634605824947357,-0.03483125567436218,-0.00029853498563170433
1733851078291831000,6.6298310546875,-0.013044665567576885,0.0001166097354143858,0.0045476192608475685
1733851078301800000,6.639800048828125,-0.013782894238829613,0.02891230396926403,0.009106151759624481
1733851078311768000,6.64976806640625,-0.019131852313876152,0.049035146832466125,0.010489930398762226
1733851078321737000,6.659737060546875,-0.02162359096109867,0.05152907967567444,0.009153665043413639
1733851078331706000,6.6697060546875,-0.017007799819111824,0.039164818823337555,0.0061389668844640255
1733851078341674000,6.679674072265625,-0.010939564555883408,0.01848411187529564,0.006031430792063475
1733851078351643100,6.68964306640625,-0.004981540143489838,-0.001520488178357482,0.008511899039149284
1733851078361611000,6.699611083984375,0.004252621904015541,-0.013032753020524979,0.008458489552140236
1733851078371580200,6.709580078125,0.010488147847354412,-0.016068223863840103,0.008802037686109543
1733851078381548000,6.719548095703125,0.011486832983791828,-0.0011609132634475827,0.010929103940725327
1733851078391517000,6.729516845703125,0.011896959505975246,0.02305893786251545,0.011323519051074982
1733851078401485800,6.73948583984375,0.007737436797469854,0.03754802048206329,0.014604076743125916
1733851078411454000,6.749453857421875,0.008135845884680748,0.040210116654634476,0.01300458237528801
1733851078421422800,6.7594228515625,0.0073800417594611645,0.03358106315135956,0.008372682146728039
1733851078431392000,6.76939208984375,0.008204557001590729,0.03131444379687309,0.0003214136231690645
1733851078441360000,6.77935986328125,0.009947679005563259,0.028650788590312004,-0.007213182747364044
1733851078451329000,6.7893291015625,0.010155138559639454,0.024669894948601723,-0.012553620152175426
1733851078461297200,6.799297119140625,0.011731380596756935,0.012530369684100151,-0.019724998623132706
1733851078471266000,6.80926611328125,0.010786491446197033,-0.007898205891251564,-0.023493371903896332
1733851078481234200,6.819234130859375,0.009589329361915588,-0.022735267877578735,-0.0250234454870224
1733851078491203000,6.829203125,0.00598767027258873,-0.015737812966108322,-0.022931000217795372
1733851078501172000,6.839171875,0.00441723270341754,0.006402773782610893,-0.006353478878736496
1733851078511140000,6.84914013671875,0.004310173448175192,0.03241546452045441,0.013336602598428726
1733851078521109000,6.85910888671875,0.0028576017357409,0.05289912968873978,0.021753771230578423
1733851078531078100,6.869078125,0.004554301500320435,0.06820618361234665,0.021754570305347443
1733851078541046000,6.8790458984375,0.0036389860324561596,0.06787219643592834,0.01971345581114292
1733851078551015200,6.88901513671875,0.004439265932887793,0.052960097789764404,0.013639051467180252
1733851078560983000,6.898983154296875,0.002795045729726553,0.019994042813777924,0.007624511606991291
1733851078570952000,6.908951904296875,0.004015572369098663,-0.017236949875950813,-0.004743209108710289
1733851078580920000,6.918920166015625,0.0021315959747880697,-0.04111484810709953,-0.0195970069617033
1733851078590889000,6.928888916015625,0.003596334485337138,-0.037092942744493484,-0.03121398203074932
1733851078600857900,6.93885791015625,0.0012512808898463845,-0.01626119576394558,-0.03178899362683296
1733851078610826000,6.948825927734375,-0.002551446668803692,0.011152053251862526,-0.020370423793792725
1733851078620795100,6.958795166015625,-0.007802317850291729,0.031336188316345215,-0.0033504085149616003
1733851078630763000,6.968762939453125,-0.007473949808627367,0.03827718645334244,0.010164068080484867
1733851078640732200,6.978732177734375,-0.0025736489333212376,0.04076337069272995,0.011736556887626648
1733851078650701000,6.988701171875,0.001634944579564035,0.03648553416132927,0.009256088174879551
1733851078660669200,6.998669189453125,0.0031581311486661434,0.031714897602796555,0.006567988079041243
1733851078670637800,7.008637939453125,0.00549665279686451,0.03185684606432915,0.005259577184915543
1733851078680606000,7.01860595703125,0.006861286237835884,0.03257664665579796,0.0007729616481810808
1733851078690574800,7.028574951171875,0.008184078149497509,0.03312472626566887,-0.008356088772416115
1733851078700544000,7.0385439453125,0.0073077864944934845,0.021255379542708397,-0.014147824607789516
1733851078710511600,7.04851171875,0.0023388604167848825,-0.0017780333291739225,-0.02268299087882042
1733851078720480800,7.058480712890625,-0.0007485987152904272,-0.02943495474755764,-0.0306053776293993
1733851078730448600,7.06844873046875,-0.003146508941426873,-0.050705891102552414,-0.039217509329319
1733851078740417800,7.078417724609375,-0.010193933732807636,-0.04529744014143944,-0.044677697122097015
1733851078750386700,7.08838671875,-0.017637204378843307,-0.024828916415572166,-0.041070446372032166
1733851078760354800,7.098354736328125,-0.026745593175292015,0.011263938620686531,-0.025027457624673843
1733851078770323700,7.10832373046875,-0.03610660508275032,0.047572676092386246,-0.0070207612589001656
1733851078780291800,7.118291748046875,-0.04134752228856087,0.07116159051656723,0.006141361780464649
1733851078790260700,7.1282607421875,-0.04250493273139,0.0702529177069664,0.0076841311529278755
1733851078800230000,7.13822998046875,-0.04228841885924339,0.053209755569696426,0.0016640552785247564
1733851078810197800,7.14819775390625,-0.04087507724761963,0.031599268317222595,-0.007337429095059633
1733851078820167000,7.1581669921875,-0.04408494383096695,0.014836108312010765,-0.010088402777910233
1733851078830134800,7.168134765625,-0.046111077070236206,0.013586020097136497,-0.012265004217624664
1733851078840104000,7.17810400390625,-0.04890567064285278,0.028281841427087784,-0.010648766532540321
1733851078850072800,7.18807275390625,-0.050074800848960876,0.03904074802994728,-0.0033274702727794647
1733851078860041000,7.198041015625,-0.05075397714972496,0.037449002265930176,0.001717939623631537
1733851078870009900,7.208009765625,-0.05069432035088539,0.029972176998853683,-0.00404647272080183
1733851078879977700,7.217977783203125,-0.058666616678237915,0.023938817903399467,-0.012030061334371567
1733851078889946600,7.227946533203125,-0.06395646184682846,0.02419394999742508,-0.013629555702209473
1733851078899915800,7.237915771484375,-0.06533855199813843,0.022283170372247696,-0.0098071014508605
1733851078909883600,7.247883544921875,-0.06400324404239655,0.021864255890250206,-0.004624323919415474
1733851078919852800,7.257852783203125,-0.06106149032711983,0.03371544927358627,0.0024960448499768972
1733851078929820700,7.267820556640625,-0.06065349280834198,0.056544333696365356,0.011344663798809052
1733851078939789800,7.277789794921875,-0.06356170773506165,0.08724568039178848,0.026299040764570236
1733851078949758700,7.2877587890625,-0.06257526576519012,0.10752085596323013,0.04046359285712242
1733851078959726800,7.297726806640625,-0.06135905906558037,0.1027362272143364,0.0452338308095932
1733851078969695700,7.30769580078125,-0.06111884489655495,0.07632219791412354,0.042623136192560196
1733851078979664000,7.317663818359375,-0.06218792125582695,0.052406709641218185,0.02786174975335598
1733851078989632800,7.3276328125,-0.06118310987949371,0.030848151072859764,0.018040277063846588
1733851078999602000,7.337601806640625,-0.05872902274131775,0.014032800681889057,0.013546514324843884
1733851079009569800,7.34756982421875,-0.05697373300790787,0.01040584221482277,0.0125576825812459
1733851079019539000,7.3575390625,-0.0589928962290287,0.019270367920398712,0.015118523500859737
1733851079029506600,7.367506591796875,-0.05969171226024628,0.04303215816617012,0.01883469894528389
1733851079039475700,7.377475830078125,-0.05634787678718567,0.06662071496248245,0.020202089101076126
1733851079049444600,7.387444580078125,-0.04919169470667839,0.08146516978740692,0.02064444124698639
1733851079059412700,7.397412841796875,-0.04710705578327179,0.08283941447734833,0.029539257287979126
1733851079069381600,7.407381591796875,-0.0443461574614048,0.06426892429590225,0.0337129645049572
1733851079079349800,7.417349853515625,-0.039296913892030716,0.02810639888048172,0.02695648744702339
1733851079089318700,7.427318603515625,-0.030075721442699432,-0.00625157356262207,0.009091469459235668
1733851079099287800,7.437287841796875,-0.01704857498407364,-0.03285091370344162,-0.004501300863921642
1733851079109255700,7.447255615234375,-0.009883873164653778,-0.040288858115673065,-0.010254793800413609
1733851079119224800,7.457224853515625,-0.00033017381792888045,-0.029829174280166626,-0.008134478703141212
1733851079129192700,7.467192626953125,0.006281922571361065,0.005031870678067207,-0.0077248839661479
1733851079139161900,7.477161865234375,0.012192794121801853,0.04298344999551773,-0.002997044939547777
1733851079149130800,7.487130859375,0.01654626429080963,0.06609994918107986,0.0009524228516966105
1733851079159099000,7.497098876953125,0.02201003208756447,0.06025524437427521,0.000554422615095973
1733851079169067800,7.50706787109375,0.020236633718013763,0.03205662965774536,-0.003107956377789378
1733851079179036000,7.517035888671875,0.018092380836606026,0.00753412302583456,-0.009418491274118423
1733851079189004800,7.5270048828125,0.01451043039560318,-0.0038460970390588045,-0.015511804260313511
1733851079198974000,7.536973876953125,0.015100181102752686,0.007254544645547867,-0.020365312695503235
1733851079208941800,7.54694189453125,0.011296121403574944,0.02797260694205761,-0.016614781692624092
1733851079218910700,7.55691064453125,0.006016938481479883,0.04528138041496277,-0.005961989983916283
1733851079228878800,7.56687890625,0.0040480634197592735,0.06410113722085953,-0.005399529822170734
1733851079238847700,7.57684765625,0.001912908861413598,0.07946258783340454,-0.009790785610675812
1733851079248816600,7.586816650390625,-0.0015478689456358552,0.0892113596200943,-0.0156252384185791
1733851079258784800,7.59678466796875,-0.0016933068400248885,0.07678750157356262,-0.015800222754478455
1733851079268753700,7.606753662109375,0.0018961017485707998,0.04341861978173256,-0.012176727876067162
1733851079278721800,7.6167216796875,0.005773117765784264,0.003505760570988059,-0.008948246948421001
1733851079288690700,7.626690673828125,0.011401441879570484,-0.027238037437200546,-0.012566683813929558
1733851079298659800,7.636659912109375,0.017488587647676468,-0.04582629352807999,-0.01370326615869999
1733851079308628000,7.6466279296875,0.01714610494673252,-0.041782017797231674,-0.011871010065078735
1733851079318596900,7.656596923828125,0.009913912974298,-0.00598735548555851,-0.008697612211108208
1733851079328565000,7.66656494140625,-0.004109760280698538,0.041276294738054276,0.0010215940419584513
1733851079338534000,7.676533935546875,-0.015038827434182167,0.08142529428005219,0.01326514407992363
1733851079348502800,7.686502685546875,-0.021461041644215584,0.09319593012332916,0.025338318198919296
1733851079358470700,7.696470703125,-0.024114010855555534,0.08686912059783936,0.031190434470772743
1733851079368439600,7.706439453125,-0.025575287640094757,0.06839663535356522,0.028054295107722282
1733851079378407700,7.71640771484375,-0.0248096976429224,0.03796472027897835,0.017544183880090714
1733851079388376800,7.726376953125,-0.02930537983775139,0.0075865755788981915,0.005731731653213501
1733851079398345700,7.736345703125,-0.03185923770070076,-0.021942386403679848,-0.004581999033689499
1733851079408313900,7.74631396484375,-0.034232381731271744,-0.03989502042531967,-0.010481699369847775
1733851079418282800,7.75628271484375,-0.03625054284930229,-0.05173390358686447,-0.009582952596247196
1733851079428251000,7.7662509765625,-0.038786668330430984,-0.047058455646038055,-0.007719805464148521
1733851079438219800,7.7762197265625,-0.03664914518594742,-0.03190873935818672,-0.00033104256726801395
1733851079448188700,7.786188720703125,-0.034148167818784714,-0.01101331040263176,0.009848358109593391
1733851079458156800,7.79615673828125,-0.02943260967731476,0.01888882741332054,0.016505906358361244
1733851079468125700,7.806125732421875,-0.02612922340631485,0.03554796427488327,0.021519839763641357
1733851079478093800,7.81609375,-0.027025194838643074,0.027332518249750137,0.025840923190116882
1733851079488063000,7.82606298828125,-0.02916903980076313,0.006786763202399015,0.023743951693177223
1733851079498031900,7.836031982421875,-0.03114834427833557,-0.017919844016432762,0.014995254576206207
1733851079508000000,7.846,-0.03582485392689705,-0.031419143080711365,0.006203094497323036
1733851079517969000,7.855968994140625,-0.04027184098958969,-0.03870166465640068,0.0016098690684884787
1733851079527936800,7.865936767578125,-0.04084628447890282,-0.027364319190382957,0.0014692542608827353
1733851079537905700,7.87590576171875,-0.04234160855412483,-0.0003399632405489683,0.002106230240315199
1733851079547874800,7.885874755859375,-0.04345667362213135,0.035544537007808685,0.007445335388183594
1733851079557842700,7.8958427734375,-0.04515065625309944,0.06646391749382019,0.013712288811802864
1733851079567811800,7.905811767578125,-0.047228723764419556,0.08457714319229126,0.015565316192805767
1733851079577779700,7.91577978515625,-0.04609241709113121,0.08664591610431671,0.014128590933978558
1733851079587748900,7.925748779296875,-0.04306440427899361,0.07516476511955261,0.010740517638623714
1733851079597717800,7.9357177734375,-0.03769892081618309,0.06835894286632538,0.004818127024918795
1733851079607686000,7.945685791015625,-0.035373713821172714,0.07369298487901688,-0.0026634910609573126
1733851079617654800,7.95565478515625,-0.031131664291024208,0.09982266277074814,-0.005028078332543373
1733851079627623000,7.965622802734375,-0.03457939252257347,0.13587148487567902,-0.0015332119073718786
1733851079637591800,7.975591796875,-0.03391270339488983,0.16916243731975555,0.0058190664276480675
1733851079647561000,7.98556103515625,-0.032007213681936264,0.1930810809135437,0.00975069124251604
1733851079657528800,7.99552880859375,-0.028424939140677452,0.20568686723709106,0.011646079830825329
1733851079667498000,8.005498046875,-0.028845984488725662,0.19965694844722748,0.017146572470664978
1733851079677465900,8.0154658203125,-0.02660832740366459,0.18201881647109985,0.014150463975965977
1733851079687435000,8.02543505859375,-0.026352398097515106,0.152290478348732,0.008873410522937775
1733851079697404000,8.03540380859375,-0.028644930571317673,0.10960715264081955,0.003377160057425499
1733851079707372000,8.0453720703125,-0.03430068492889404,0.07920344173908234,0.003123360686004162
1733851079717341000,8.0553408203125,-0.0360620878636837,0.04918035864830017,0.000275713624432683
1733851079727309000,8.06530908203125,-0.03336989879608154,0.011164266616106033,-0.0034132972359657288
1733851079737278000,8.07527783203125,-0.028574258089065552,-0.035692594945430756,-0.010402867570519447
1733851079747247000,8.0852470703125,-0.0286813173443079,-0.07234647870063782,-0.0202227421104908
1733851079757215000,8.095215087890624,-0.030410565435886383,-0.07713617384433746,-0.02370777353644371
1733851079767184100,8.10518408203125,-0.03044971264898777,-0.04917510971426964,-0.018260544165968895
1733851079777151700,8.11515185546875,-0.033355358988046646,0.0008925520814955235,-0.005163952708244324
1733851079787121000,8.125120849609376,-0.03699350357055664,0.052145350724458694,0.008449061773717403
1733851079797089800,8.13508984375,-0.04031553119421005,0.07527996599674225,0.01916695199906826
1733851079807058000,8.145057861328125,-0.04335419833660126,0.06684201210737228,0.023774754256010056
1733851079817026800,8.15502685546875,-0.043707896023988724,0.043823640793561935,0.020473890006542206
1733851079826995000,8.164994873046876,-0.03693627566099167,0.030226342380046844,0.013228228315711021
1733851079836963800,8.1749638671875,-0.028819438070058823,0.026903511956334114,0.010475337505340576
1733851079846933000,8.18493310546875,-0.02482656016945839,0.04484762251377106,0.020740758627653122
1733851079856900900,8.19490087890625,-0.020498687401413918,0.060245271772146225,0.03170950338244438
1733851079866870000,8.2048701171875,-0.019694944843649864,0.06425199657678604,0.04349931702017784
1733851079876838000,8.214837890625,-0.01892876625061035,0.06570317596197128,0.04649917036294937
1733851079886807000,8.22480712890625,-0.017574548721313477,0.06688029319047928,0.04365171864628792
1733851079896776000,8.23477587890625,-0.015967050567269325,0.07712873816490173,0.043027810752391815
1733851079906744000,8.244744140625,-0.014735338278114796,0.08501674979925156,0.04228745028376579
1733851079916713000,8.254712890625,-0.017354262992739677,0.08465362340211868,0.03930538520216942
1733851079926680800,8.264680908203125,-0.025999682024121284,0.06396006047725677,0.03551650792360306
1733851079936649700,8.274649658203124,-0.03378386050462723,0.043389942497015,0.026242705062031746
1733851079946619000,8.284618896484375,-0.03465471416711807,0.019249189645051956,0.021135294809937477
1733851079956586800,8.294586669921875,-0.0325569212436676,0.01589338295161724,0.021960876882076263
1733851079966556000,8.304555908203126,-0.03411007672548294,0.036324888467788696,0.027013959363102913
1733851079976523800,8.314523681640624,-0.03073081560432911,0.07874874025583267,0.036283887922763824
1733851079986493000,8.324492919921875,-0.02514057420194149,0.10989201068878174,0.042671214789152145
1733851079996461800,8.3344619140625,-0.02431565336883068,0.11949566751718521,0.04665374010801315
1733851080006430000,8.344429931640626,-0.029355686157941818,0.10803874582052231,0.04676133394241333
1733851080016398800,8.35439892578125,-0.03415275365114212,0.07694744318723679,0.04144435003399849
1733851080026367000,8.364366943359375,-0.03378816694021225,0.04792644456028938,0.03326258435845375
1733851080036335900,8.3743359375,-0.02666013315320015,0.024329010397195816,0.022156156599521637
1733851080046305000,8.384304931640624,-0.016362488269805908,0.01213333010673523,0.011511502787470818
1733851080056273000,8.39427294921875,-0.014410194009542465,0.009535178542137146,0.005587618798017502
1733851080066242000,8.404241943359375,-0.012385392561554909,0.013039099052548409,0.0032725331839174032
1733851080076210000,8.4142099609375,-0.012729725800454617,0.017979327589273453,0.0019087998662143946
1733851080086179000,8.424178955078125,-0.014442937448620796,0.013461542315781116,0.004560775589197874
1733851080096148000,8.43414794921875,-0.009797388687729836,0.0006866524927318096,0.0026638603303581476
1733851080106115800,8.44411572265625,0.0001519147481303662,-0.029534365981817245,-0.005632152780890465
1733851080116084700,8.454084716796874,0.007209754083305597,-0.05556842312216759,-0.01497328095138073
1733851080126052900,8.464052978515625,0.011161884292960167,-0.06294671446084976,-0.02081891894340515
1733851080136021800,8.474021728515625,0.012005209922790527,-0.04160690680146217,-0.0200062096118927
1733851080145991000,8.483990966796876,0.013202300295233727,-0.00830274447798729,-0.013948584906756878
1733851080155958800,8.493958740234374,0.00845284666866064,0.03413822874426842,-0.007421442307531834
1733851080165928000,8.503927978515625,0.006756679620593786,0.057583101093769073,0.005757210310548544
1733851080175895800,8.513895751953125,0.003839789656922221,0.06514281034469604,0.021583931520581245
1733851080185865000,8.523864990234374,0.0026064796838909388,0.0720055103302002,0.02920323610305786
1733851080195833900,8.533833740234375,0.0024408868048340082,0.07236441224813461,0.03284871578216553
1733851080205802000,8.543802001953125,-0.00003372260107425973,0.06848658621311188,0.03196081519126892
1733851080215771000,8.55377099609375,-0.006836473010480404,0.05412322282791138,0.024074537679553032
1733851080225739000,8.563739013671874,-0.013020066544413567,0.028790967538952827,0.014173970557749271
1733851080235708000,8.5737080078125,-0.018754903227090836,-0.00010683783330023289,0.003694380633533001
1733851080245677000,8.583677001953125,-0.025847965851426125,-0.02142064832150936,-0.007783843204379082
1733851080255644700,8.593644775390626,-0.033469751477241516,-0.027377109974622726,-0.017754200845956802
1733851080265614000,8.603614013671875,-0.03884853795170784,-0.0077930232509970665,-0.02430105023086071
1733851080275582000,8.61358203125,-0.042674027383327484,0.01896369829773903,-0.023765334859490395
1733851080285550800,8.62355078125,-0.042561642825603485,0.046677350997924805,-0.01946752518415451
1733851080295519700,8.633519775390624,-0.04322834685444832,0.0602877102792263,-0.01509145274758339
1733851080305488000,8.64348779296875,-0.04688539728522301,0.05974043160676956,-0.017355671152472496
1733851080315456800,8.653456787109375,-0.0547693632543087,0.041986994445323944,-0.01763235777616501
1733851080325425000,8.6634248046875,-0.05315442383289337,0.022017017006874084,-0.022651083767414093
1733851080335393800,8.673393798828124,-0.054533686488866806,0.009049310348927975,-0.0287760142236948
1733851080345363000,8.683363037109375,-0.057718560099601746,0.012454960495233536,-0.02955259196460247
1733851080355331000,8.6933310546875,-0.06069858372211456,0.02970842272043228,-0.023944102227687836
1733851080365300000,8.703300048828124,-0.06169407442212105,0.047057054936885834,-0.014431292191147804
1733851080375268000,8.71326806640625,-0.05923495069146156,0.05152226611971855,-0.005993133410811424
1733851080385237000,8.723237060546875,-0.05770203471183777,0.052029598504304886,-0.0010484429076313972
1733851080395206000,8.733205810546876,-0.05556700751185417,0.049589212983846664,0.0008632971439510584
1733851080405174000,8.743174072265624,-0.048852112144231796,0.0422053337097168,0.004456966649740934
1733851080415143000,8.753142822265625,-0.04486042633652687,0.03709520399570465,0.008626570925116539
1733851080425110800,8.76311083984375,-0.04035995155572891,0.03118804842233658,0.015318828634917736
1733851080435080000,8.773079833984376,-0.04147445783019066,0.026591118425130844,0.01981452852487564
1733851080445048800,8.783048828125,-0.04551207646727562,0.03798438981175423,0.018715709447860718
1733851080455017000,8.793016845703125,-0.05060511827468872,0.05796699598431587,0.022601846605539322
1733851080464985900,8.80298583984375,-0.04932467266917229,0.08951080590486526,0.026114821434020996
1733851080474954000,8.8129541015625,-0.04954913258552551,0.10367901623249054,0.027649814262986183
1733851080484923000,8.8229228515625,-0.04892781749367714,0.11276918649673462,0.02274799905717373
1733851080494891800,8.832891845703125,-0.04548591747879982,0.09986257553100586,0.01642260141670704
1733851080504860000,8.84285986328125,-0.0425465889275074,0.0568314827978611,0.014888887293636799
1733851080514828800,8.852828857421875,-0.036577604711055756,0.0010801798198372126,0.008231055922806263
1733851080524798000,8.8627978515625,-0.030688025057315826,-0.03818946331739426,-0.0026112052146345377
1733851080534766000,8.87276611328125,-0.028278732672333717,-0.0663204938173294,-0.0037857445422559977
1733851080544735000,8.88273486328125,-0.023536441847682,-0.06104769930243492,-0.0027598950546234846
1733851080554703000,8.892703125,-0.02281263656914234,-0.027656029909849167,0.004061983432620764
1733851080564672000,8.902672119140625,-0.017433051019906998,0.01678653620183468,0.017631322145462036
1733851080574641000,8.912640869140626,-0.013273514807224274,0.06679129600524902,0.02909783646464348
1733851080584609000,8.922609130859374,-0.008544805459678173,0.09139783680438995,0.036116328090429306
1733851080594578000,8.932577880859375,-0.003119806759059429,0.08467064052820206,0.037870973348617554
1733851080604545800,8.9425458984375,0.002956727985292673,0.043739981949329376,0.027354683727025986
1733851080614515000,8.952514892578124,0.01163727231323719,-0.014383106492459774,0.0075193168595433235
1733851080624483800,8.96248388671875,0.01495344191789627,-0.06035246327519417,-0.014475997537374496
1733851080634452000,8.972451904296875,0.02043268457055092,-0.07371994107961655,-0.022244686260819435
1733851080644420900,8.9824208984375,0.02169901877641678,-0.05563094839453697,-0.012860237620770931
1733851080654389000,8.992388916015624,0.018920375034213066,-0.017108486965298653,0.011711505241692066
1733851080664358700,9.002358642578125,0.015497412532567978,0.05229109525680542,0.029133107513189316
1733851080674327600,9.01232763671875,0.008421435952186584,0.12360905855894089,0.04034721478819847
1733851080684295700,9.022295654296874,-0.0020381296053528786,0.15917611122131348,0.05572457239031792
1733851080694264600,9.0322646484375,-0.009670229628682137,0.14729470014572144,0.06027891859412193
1733851080704232700,9.042232666015625,-0.01804986596107483,0.1061888113617897,0.05395364388823509
1733851080714201600,9.05220166015625,-0.019164398312568665,0.054873958230018616,0.041337452828884125
1733851080724170800,9.062170654296875,-0.01918810047209263,0.009574919939041138,0.022478807717561722
1733851080734138400,9.072138427734375,-0.020245851948857307,-0.029737958684563637,0.008312529884278774
1733851080744107500,9.082107421875,-0.017604529857635498,-0.04131818190217018,0.0035537276417016983
1733851080754075600,9.09207568359375,-0.016632812097668648,-0.03601580113172531,0.006545310374349356
1733851080764044500,9.10204443359375,-0.010498752817511559,-0.020771600306034088,0.014586191624403
1733851080774013400,9.112013427734375,-0.005012431647628546,-0.0021057655103504658,0.019812095910310745
1733851080783981600,9.121981689453126,0.0014832846354693174,0.014908638782799244,0.02188243716955185
1733851080793950500,9.131950439453124,0.00990162044763565,0.030439432710409164,0.023469433188438416
1733851080803918600,9.141918701171875,0.013997295871376991,0.028857514262199402,0.020274171605706215
1733851080813887500,9.151887451171875,0.02068847417831421,0.008667493239045143,0.0172431580722332
1733851080823856600,9.161856689453124,0.027024133130908012,-0.02204088494181633,0.002937189070507884
1733851080833824500,9.171824462890624,0.02851351536810398,-0.05276698246598244,-0.00933767482638359
1733851080843793700,9.181793701171875,0.025446085259318352,-0.07488880306482315,-0.019278457388281822
1733851080853761800,9.19176171875,0.019839303568005562,-0.06869050860404968,-0.017934376373887062
1733851080863730700,9.201730712890624,0.011547817848622799,-0.03787161037325859,-0.005308063235133886
1733851080873699600,9.211699462890625,0.0029934511985629797,0.009374953806400299,0.01378173939883709
1733851080883667500,9.22166748046875,-0.0019224778516218066,0.05070774257183075,0.02702777087688446
1733851080893636400,9.23163623046875,-0.0038283064495772123,0.08380145579576492,0.03316626697778702
1733851080903604500,9.2416044921875,-0.005754570942372084,0.09485729783773422,0.035195596516132355
1733851080913573400,9.251573486328125,-0.004730612505227327,0.07921624928712845,0.042836736887693405
1733851080923542500,9.26154248046875,-0.0004461192002054304,0.049042101949453354,0.04275577887892723
1733851080933510700,9.2715107421875,0.0008328146068379283,0.008143441751599312,0.030503390356898308
1733851080943479600,9.2814794921875,-0.0029033340979367495,-0.034013330936431885,0.0178200863301754
1733851080953447700,9.29144775390625,-0.0015317365759983659,-0.0651230737566948,0.00019310321658849716
1733851080963416600,9.30141650390625,0.004037732258439064,-0.08885636925697327,-0.014451885595917702
1733851080973385500,9.311385498046874,0.005005273502320051,-0.09368053078651428,-0.026396747678518295
1733851080983353600,9.321353515625,0.002912827767431736,-0.06365711987018585,-0.03533085435628891
1733851080993322500,9.331322509765625,0.0019137493800371885,-0.022821325808763504,-0.029790522530674934
1733851081003290600,9.34129052734375,0.0024280056823045015,0.019457153975963593,-0.01862974651157856
1733851081013259800,9.351259765625,0.007111974060535431,0.042147375643253326,-0.0002918748650699854
1733851081023228700,9.361228759765625,0.01648976281285286,0.05063167214393616,0.007123963441699743
1733851081033196800,9.37119677734375,0.023329952731728554,0.044824350625276566,0.007821942679584026
1733851081043165700,9.381165771484374,0.02817743830382824,0.023929722607135773,0.00847122073173523
1733851081053133600,9.391133544921875,0.027988828718662262,-0.004947461187839508,0.005524946376681328
1733851081063102500,9.4011025390625,0.026094788685441017,-0.03226669877767563,0.006801399402320385
1733851081073071400,9.4110712890625,0.02165982685983181,-0.04570021852850914,0.007926585152745247
1733851081083039500,9.42103955078125,0.017419008538126945,-0.049409203231334686,0.008597968146204948
1733851081093008600,9.431008544921875,0.014686690643429756,-0.03722226992249489,0.0044626290909945965
1733851081102976500,9.4409765625,0.012910628691315651,-0.016707677394151688,0.005538280121982098
1733851081112945700,9.450945556640624,0.01048961840569973,0.007846729829907417,0.009250283241271973
1733851081122914600,9.46091455078125,0.011835047975182533,0.02507471852004528,0.009815938770771027
1733851081132882700,9.470882568359375,0.01007586158812046,0.025722768157720566,0.006561377085745335
1733851081142851600,9.4808515625,0.008978638797998428,0.01822756789624691,0.0002853719051927328
1733851081152819700,9.49081982421875,0.004046984016895294,0.0063157151453197,-0.005382704548537731
1733851081162788600,9.50078857421875,-0.004739583469927311,0.001535074319690466,-0.0028705447912216187
1733851081172757500,9.510757568359375,-0.012286169454455376,-0.0015120489988476038,0.0045160697773098946
1733851081182725600,9.5207255859375,-0.017350701615214348,-0.012993735261261463,0.007508929818868637
1733851081192694800,9.53069482421875,-0.016150793060660362,-0.023442989215254784,0.0037924787029623985
1733851081202662400,9.540662353515625,-0.015619493089616299,-0.030612751841545105,0.0059706782922148705
1733851081212631600,9.550631591796876,-0.013159980066120625,-0.02645658701658249,0.009233064018189907
1733851081222600700,9.5606005859375,-0.008297313936054707,-0.017726745456457138,0.015056864358484745
1733851081232568600,9.570568603515625,-0.0012321864487603307,0.005878755822777748,0.018671570345759392
1733851081242537500,9.580537353515625,0.004624903667718172,0.03655757009983063,0.025481272488832474
1733851081252505600,9.590505615234376,0.011058722622692585,0.06698135286569595,0.03858865797519684
1733851081262474500,9.600474609375,0.01821543648838997,0.09294451028108597,0.05454445630311966
1733851081272443600,9.610443603515625,0.030060265213251114,0.11611677706241608,0.07045881450176239
1733851081282411500,9.62041162109375,0.036975160241127014,0.14063863456249237,0.07868239283561707
1733851081292380700,9.630380615234374,0.040184203535318375,0.17275576293468475,0.08100004494190216
1733851081302348500,9.6403486328125,0.04658324643969536,0.19402189552783966,0.08222377300262451
1733851081312317700,9.650317626953125,0.0488136000931263,0.20957669615745544,0.08018970489501953
1733851081322286600,9.66028662109375,0.05104586109519005,0.2205854058265686,0.07451078295707703
1733851081332254700,9.670254638671874,0.04976511746644974,0.21171677112579346,0.06725525856018066
1733851081342223600,9.6802236328125,0.051866885274648666,0.18077963590621948,0.05139320716261864
1733851081352191700,9.690191650390625,0.05673063173890114,0.12149959057569504,0.030933812260627747
1733851081362160600,9.70016064453125,0.05584965646266937,0.06535163521766663,0.01464645192027092
1733851081372129800,9.7101298828125,0.046952035278081894,0.016966789960861206,0.00018442166037857533
1733851081382097400,9.720097412109375,0.03581389784812927,-0.013037980534136295,-0.011336145922541618
1733851081392066600,9.730066650390626,0.02055991441011429,-0.028174351900815964,-0.013560473918914795
1733851081402034400,9.740034423828124,0.018807020038366318,-0.04248697683215141,-0.004311314783990383
1733851081412003600,9.750003662109375,0.027164103463292122,-0.051064182072877884,0.003162332344800234
1733851081421972500,9.759972412109375,0.036154668778181076,-0.05151372402906418,-0.0011916698422282934
1733851081431940600,9.769940673828126,0.036691199988126755,-0.04824328422546387,-0.007366168312728405
1733851081441909500,9.779909423828125,0.030377909541130066,-0.047556452453136444,-0.010750779882073402
1733851081451877600,9.789877685546875,0.025923660025000572,-0.04688382148742676,-0.013465629890561104
1733851081461846500,9.799846435546876,0.022097762674093246,-0.04167947545647621,-0.014723706990480423
1733851081471815700,9.809815673828124,0.02453647553920746,-0.03455694392323494,-0.017307095229625702
1733851081481783600,9.819783447265625,0.026212401688098907,-0.018483966588974,-0.013736862689256668
1733851081491752700,9.829752685546875,0.029500678181648254,0.0007023040670901537,-0.006822675466537476
1733851081501720600,9.839720458984376,0.031135059893131256,0.012066544964909554,0.001590516185387969
1733851081511689700,9.849689697265624,0.031899865716695786,0.018532440066337585,0.007891804911196232
1733851081521658600,9.85965869140625,0.030524075031280518,0.0204927921295166,0.012213582172989845
1733851081531626500,9.86962646484375,0.028844911605119705,0.024699147790670395,0.012259051203727722
1733851081541595600,9.879595703125,0.026658987626433372,0.02412550337612629,0.015025010332465172
1733851081551564800,9.889564697265625,0.01994953118264675,0.009953392669558525,0.01944388635456562
1733851081561532400,9.899532470703125,0.013193890452384949,0.009298521094024181,0.021892130374908447
1733851081571501600,9.90950146484375,0.007793728727847338,0.021463515236973763,0.02391817606985569
1733851081581469400,9.919469482421874,0.0041028535924851894,0.037955138832330704,0.026636464521288872
1733851081591438600,9.9294384765625,0.0029914185870438814,0.052340902388095856,0.0226080771535635
1733851081601406500,9.939406494140625,0.0023373460862785578,0.06593100726604462,0.019862091168761253
1733851081611375600,9.949375732421874,0.00439567631110549,0.06204408407211304,0.015956034883856773
1733851081621344500,9.959344482421875,0.006115545518696308,0.04768804833292961,0.011325597763061523
1733851081631312600,9.969312744140625,0.005018631927669048,0.035803623497486115,0.0021003561560064554
1733851081641281500,9.979281494140626,0.0057051945477724075,0.02258928492665291,-0.002250450197607279
1733851081651250700,9.989250732421874,0.006726110354065895,0.0042153047397732735,-0.005299272947013378
1733851081661218600,9.999218505859375,0.004603304900228977,-0.004874063655734062,-0.005785300396382809
1733851081671187200,10.009187255859375,0.0005165430484339595,0.0008374948520213366,-0.0058467332273721695
1733851081681155300,10.0191552734375,-0.0009958661394193769,0.008003262802958488,-0.0020317554008215666
1733851081691124200,10.029124267578124,-0.0046091871336102486,0.018684664741158485,0.005722588859498501
1733851081701093000,10.039093017578125,-0.002422731602564454,0.0199227686971426,0.011343455873429775
1733851081711061200,10.049061279296875,-0.0021247095428407192,0.02073989063501358,0.017038697376847267
1733851081721030100,10.059030029296874,0.0003783954889513552,0.020754272118210793,0.014982204884290695
1733851081730998300,10.068998291015625,0.0003634817840065807,0.018131058663129807,0.008528299629688263
1733851081740967200,10.07896728515625,0.0022268956527113914,0.01569213531911373,-0.0005999510176479816
1733851081750936300,10.088936279296876,0.004947847221046686,0.007753784768283367,-0.005476198624819517
1733851081760904200,10.098904296875,0.004365680273622274,0.005437101237475872,-0.010275481268763542
1733851081770873000,10.108873046875,0.0020358762703835964,-0.004028633236885071,-0.014416519552469254
1733851081780841200,10.11884130859375,-0.0010967999696731567,-0.009030582383275032,-0.013856191188097
1733851081790810000,10.12881005859375,-0.005672474391758442,-0.007579171564429998,-0.016496656462550163
1733851081800779000,10.138779052734375,-0.007816318422555923,-0.00953020341694355,-0.016141124069690704
1733851081810747100,10.1487470703125,-0.00871739350259304,-0.01055051852017641,-0.01694124937057495
1733851081820716000,10.158716064453126,-0.00988385733217001,-0.011844282038509846,-0.013704443350434303
1733851081830684200,10.16868408203125,-0.012887651100754738,-0.01915792003273964,-0.015470456331968307
1733851081840653000,10.178653076171875,-0.020255286246538162,-0.017436187714338303,-0.018032684922218323
1733851081850622200,10.188622314453125,-0.023688647896051407,-0.012760007753968239,-0.019845303148031235
1733851081860590300,10.19859033203125,-0.02556564286351204,-0.0021054991520941257,-0.019964613020420074
1733851081870559200,10.208559326171875,-0.02816481702029705,0.01674707978963852,-0.017633458599448204
1733851081880527400,10.21852734375,-0.028735799714922905,0.032548144459724426,-0.006664162967354059
1733851081890496300,10.228496337890626,-0.02823285572230816,0.03519216552376747,0.005060172639787197
1733851081900465200,10.238465087890624,-0.025001108646392822,0.030237622559070587,0.010872256010770798
1733851081910433000,10.24843310546875,-0.02135412022471428,0.01833452843129635,0.0032701361924409866
1733851081920402200,10.258402099609375,-0.02021588571369648,-0.00602700375020504,-0.008461354300379753
1733851081930370000,10.2683701171875,-0.022226138040423393,-0.02222924679517746,-0.021018514409661293
1733851081940339200,10.278339111328124,-0.021858887746930122,-0.013915123417973518,-0.029685771092772484
1733851081950308000,10.28830810546875,-0.020706675946712494,0.005013352259993553,-0.030368492007255554
1733851081960276200,10.298276123046875,-0.021674735471606255,0.026193739846348763,-0.024310067296028137
1733851081970245000,10.3082451171875,-0.02197546325623989,0.043563585728406906,-0.01710345409810543
1733851081980213200,10.318213134765625,-0.01715327799320221,0.05237279087305069,-0.015923939645290375
1733851081990182100,10.32818212890625,-0.01480496022850275,0.05701015889644623,-0.01894584484398365
1733851082000151000,10.338151123046876,-0.010394765064120293,0.05395285040140152,-0.01798843964934349
1733851082010119200,10.348119140625,-0.008643848821520805,0.04174501821398735,-0.010173286311328411
1733851082020088300,10.35808837890625,-0.010308590717613697,0.03206575661897659,-0.0066925352439284325
1733851082030056200,10.36805615234375,-0.014568176120519638,0.030356843024492264,-0.009250998497009277
1733851082040025300,10.378025390625,-0.018285684287548065,0.026934146881103516,-0.010380445048213005
1733851082049994200,10.387994140625,-0.025576869025826454,0.024984868243336678,-0.009042524732649326
1733851082059962400,10.39796240234375,-0.033584728837013245,0.03539649397134781,-0.007783115841448307
1733851082069931300,10.40793115234375,-0.03545865789055824,0.056288670748472214,-0.009126256220042706
1733851082079899100,10.417899169921874,-0.034565966576337814,0.06737247854471207,-0.011369436979293823
1733851082089868000,10.427867919921875,-0.03381282463669777,0.057952880859375,-0.01029138918966055
1733851082099837200,10.437837158203125,-0.02821299433708191,0.03406113013625145,-0.010334532707929611
1733851082109805000,10.44780517578125,-0.020483925938606262,0.002874111756682396,-0.016286484897136688
1733851082119774200,10.457774169921874,-0.013114692643284798,-0.021277030929923058,-0.02146100625395775
1733851082129742000,10.4677421875,-0.012458124198019505,-0.0357508510351181,-0.027540238574147224
1733851082139711200,10.477711181640625,-0.015690935775637627,-0.03393777087330818,-0.02804597280919552
1733851082149680000,10.48768017578125,-0.020033765584230423,-0.023212488740682602,-0.02678530290722847
1733851082159648300,10.497648193359375,-0.025643449276685715,-0.006856419146060944,-0.02382999286055565
1733851082169617200,10.5076171875,-0.027091816067695618,0.00575485872104764,-0.02338515780866146
1733851082179585300,10.517585205078126,-0.02890649437904358,0.01963845081627369,-0.01952463947236538
1733851082189554200,10.52755419921875,-0.02895190939307213,0.018240081146359444,-0.015099690295755863
1733851082199523300,10.5375234375,-0.029468296095728874,0.019389500841498375,-0.011084175668656826
1733851082209491200,10.5474912109375,-0.030550997704267502,0.017974328249692917,-0.013466338627040386
1733851082219460400,10.55746044921875,-0.03041304461658001,0.016263248398900032,-0.017533782869577408
1733851082229428000,10.567427978515624,-0.03140127658843994,0.014532431960105896,-0.023784810677170753
1733851082239397000,10.577397216796875,-0.03517230972647667,0.021389538422226906,-0.023297451436519623
1733851082249366000,10.587365966796876,-0.03813754394650459,0.036880288273096085,-0.02114863507449627
1733851082259334100,10.597334228515624,-0.037423018366098404,0.04571852087974548,-0.018284404650330544
1733851082269303000,10.607302978515625,-0.036706190556287766,0.0452430434525013,-0.015315337106585503
1733851082279271200,10.617271240234375,-0.0356593020260334,0.04194045811891556,-0.012909436598420143
1733851082289240000,10.627239990234376,-0.03349950909614563,0.03845753148198128,-0.015408812090754509
1733851082299209200,10.637209228515625,-0.030199585482478142,0.042531900107860565,-0.016506832093000412
1733851082309177000,10.647177001953125,-0.02981247566640377,0.04039277508854866,-0.01645347662270069
1733851082319146200,10.657146240234376,-0.03445702791213989,0.04527275264263153,-0.016154136508703232
1733851082329114000,10.667114013671876,-0.04114222154021263,0.061631251126527786,-0.020042583346366882
1733851082339083300,10.677083251953125,-0.049406010657548904,0.07923580706119537,-0.01810966059565544
1733851082349052200,10.68705224609375,-0.05412736162543297,0.1025158166885376,-0.013731377199292183
1733851082359020300,10.697020263671876,-0.052108149975538254,0.11499432474374771,-0.004857191815972328
1733851082368989200,10.7069892578125,-0.04432479664683342,0.11978694796562195,0.00512060709297657
1733851082378958300,10.716958251953125,-0.03709458187222481,0.12107139080762863,0.010908987373113632
1733851082388926200,10.72692626953125,-0.02714579552412033,0.1244984120130539,0.007090086117386818
1733851082398895400,10.736895263671874,-0.019955260679125786,0.11711746454238892,-0.00016250042244791985
1733851082408863000,10.746863037109375,-0.019588066264986992,0.10198458284139633,-0.0044834972359240055
1733851082418832100,10.75683203125,-0.019848790019750595,0.0923820286989212,-0.01477954350411892
1733851082428801000,10.766801025390626,-0.019934039562940598,0.08029443025588989,-0.026712900027632713
1733851082438769200,10.77676904296875,-0.015419181436300278,0.05929327383637428,-0.043211981654167175
1733851082448738000,10.786738037109375,-0.012683302164077759,0.035418808460235596,-0.054222095757722855
1733851082458706200,10.7967060546875,-0.012315520085394382,0.0056004598736763,-0.05732974037528038
1733851082468675000,10.806675048828126,-0.012493643909692764,-0.008481606841087341,-0.05173955112695694
1733851082478644200,10.816644287109375,-0.013331207446753979,0.0037745265290141106,-0.04469122737646103
1733851082488612000,10.826612060546875,-0.014468362554907799,0.03947506472468376,-0.0381978377699852
1733851082498581200,10.836581298828126,-0.01749557815492153,0.07465701550245285,-0.030812358483672142
1733851082508549000,10.846549072265624,-0.01897048018872738,0.09170505404472351,-0.02369234524667263
1733851082518518300,10.856518310546875,-0.022027255967259407,0.09380841255187988,-0.024302208796143532
1733851082528487200,10.866487060546875,-0.026070676743984222,0.08880699425935745,-0.023133596405386925
1733851082538455300,10.876455322265626,-0.031991682946681976,0.07031027227640152,-0.015523080714046955
1733851082548424200,10.886424072265624,-0.034269023686647415,0.05139511078596115,-0.0056289928033947945
1733851082558392000,10.89639208984375,-0.031503863632678986,0.037463851273059845,0.004456930328160524
1733851082568361200,10.906361328125,-0.0272747203707695,0.032055165618658066,0.014153978787362576
1733851082578330400,10.916330322265624,-0.020949712023139,0.03183732181787491,0.014409109018743038
1733851082588298000,10.926298095703125,-0.014611950144171715,0.03234505653381348,0.008028832264244556
1733851082598267100,10.93626708984375,-0.013667326420545578,0.025454659014940262,-0.0021630851551890373
1733851082608235000,10.946235107421876,-0.011387351900339127,0.01124688982963562,-0.012648269534111023
1733851082618204200,10.9562041015625,-0.013642784208059311,-0.0049174330197274685,-0.02647540159523487
1733851082628173000,10.966173095703125,-0.016565505415201187,-0.017876803874969482,-0.038981251418590546
1733851082638141200,10.97614111328125,-0.01519610732793808,-0.03435910865664482,-0.04574807733297348
1733851082648110000,10.986110107421876,-0.016458921134471893,-0.04096455127000809,-0.04778724163770676
1733851082658078200,10.996078125,-0.013274580240249634,-0.0340065099298954,-0.03886325657367706
1733851082668046800,11.006046875,-0.009432408958673477,-0.02109351009130478,-0.022440996021032333
1733851082678016000,11.01601611328125,-0.004169470630586147,0.0033891957718878984,-0.010998990386724472
1733851082687983900,11.02598388671875,0.0042123799212276936,0.011002677492797375,0.00003689900040626526
1733851082697953000,11.035953125,0.015956122428178787,-0.0017818273045122623,0.0023535829968750477
1733851082707921200,11.045921142578125,0.021527523174881935,-0.024251477792859077,-0.004247380420565605
1733851082717890000,11.05589013671875,0.028222445398569107,-0.048606615513563156,-0.013263246044516563
1733851082727859000,11.06585888671875,0.029294297099113464,-0.059371888637542725,-0.023501183837652206
1733851082737827000,11.0758271484375,0.021244360134005547,-0.05429643392562866,-0.02611161395907402
1733851082747796000,11.0857958984375,0.013514450751245022,-0.04432382062077522,-0.022925300523638725
1733851082757764000,11.09576416015625,0.008276012726128101,-0.020392654463648796,-0.023450741544365883
1733851082767733000,11.10573291015625,0.0005408615106716752,0.013670241460204124,-0.025013219565153122
1733851082777702100,11.1157021484375,-0.010818319395184517,0.045862264931201935,-0.018000317737460136
1733851082787670000,11.125669921875,-0.01742689684033394,0.06576388329267502,-0.004990345798432827
1733851082797639200,11.13563916015625,-0.022147083654999733,0.06834821403026581,0.010377691127359867
1733851082807607000,11.14560693359375,-0.02283947728574276,0.05028723180294037,0.019818060100078583
1733851082817576000,11.155575927734375,-0.0209712702780962,0.023021522909402847,0.02124737948179245
1733851082827544800,11.165544921875,-0.019569914788007736,-0.012208634987473488,0.014613711275160313
1733851082837513000,11.175512939453125,-0.01797334849834442,-0.04369518905878067,0.005167745053768158
1733851082847481900,11.18548193359375,-0.01851939782500267,-0.06668085604906082,0.0012899534776806831
1733851082857450000,11.195449951171875,-0.020970836281776428,-0.06868381798267365,0.0015301706735044718
1733851082867419000,11.2054189453125,-0.02313799038529396,-0.04401063919067383,0.00887820404022932
1733851082877388000,11.215387939453125,-0.025882109999656677,0.00520936818793416,0.02135910838842392
1733851082887356200,11.225356201171875,-0.028122447431087494,0.06088528782129288,0.04022185131907463
1733851082897325000,11.235324951171876,-0.029684390872716904,0.09972056746482849,0.05777234956622124
1733851082907293200,11.245293212890624,-0.029777277261018753,0.11678050458431244,0.06548168510198593
1733851082917262000,11.255261962890625,-0.02849017269909382,0.10258398950099945,0.060627810657024384
1733851082927231000,11.26523095703125,-0.02972087636590004,0.07890050858259201,0.04930216446518898
1733851082937199000,11.27519921875,-0.028410067781805992,0.05281750485301018,0.033321868628263474
1733851082947168000,11.28516796875,-0.02864205650985241,0.031111370772123337,0.02348814532160759
1733851082957136100,11.29513623046875,-0.02604946866631508,0.012150995433330536,0.024738499894738197
1733851082967105000,11.30510498046875,-0.028227541595697403,0.005070948973298073,0.03146800398826599
1733851082977074200,11.31507421875,-0.026092220097780228,0.010970916599035263,0.03339560329914093
1733851082987042000,11.3250419921875,-0.02717040851712227,0.024005725979804993,0.03198462352156639
1733851082997011000,11.335010986328125,-0.028067894279956818,0.026357563212513924,0.029116932302713394
1733851083006979000,11.34497900390625,-0.029055576771497726,0.03653140738606453,0.023501407355070114
1733851083016948000,11.354947998046875,-0.03152778744697571,0.042712073773145676,0.020568734034895897
1733851083026916900,11.364916748046875,-0.02908419817686081,0.040914472192525864,0.02368147298693657
1733851083036885000,11.374885009765626,-0.03124961443245411,0.0504176951944828,0.026545701548457146
1733851083046854100,11.384854248046874,-0.03193400427699089,0.06305112689733505,0.027976833283901215
1733851083056822000,11.394822021484375,-0.034180913120508194,0.07784897834062576,0.02896859496831894
1733851083066791200,11.404791259765625,-0.038346096873283386,0.08616523444652557,0.03472581505775452
1733851083076760000,11.414760009765626,-0.04057462885975838,0.08131002634763718,0.039461977779865265
1733851083086728200,11.424728271484375,-0.036695271730422974,0.06549478322267532,0.04007841274142265
1733851083096697000,11.434697021484375,-0.024843409657478333,0.032477445900440216,0.041302669793367386
1733851083106665200,11.444665283203125,-0.005283905193209648,-0.008259102702140808,0.03195841982960701
1733851083116634000,11.454634033203124,0.019420374184846878,-0.04610475152730942,0.026999611407518387
1733851083126603000,11.46460302734375,0.044027604162693024,-0.08493700623512268,0.026882007718086243
1733851083136571000,11.47457080078125,0.06928076595067978,-0.10602924227714539,0.03413485735654831
1733851083146540000,11.4845400390625,0.08950670063495636,-0.10761741548776627,0.04821593686938286
1733851083156508000,11.4945078125,0.10660365968942642,-0.09299293160438538,0.06831613928079605
1733851083166477000,11.50447705078125,0.11102060228586197,-0.044230684638023376,0.07610377669334412
1733851083176446000,11.514446044921876,0.10319090634584427,0.03783222660422325,0.07798449695110321
1733851083186414000,11.5244140625,0.08460845053195953,0.1612919121980667,0.07422258704900742
1733851083196383000,11.534383056640625,0.06454712152481079,0.26737600564956665,0.07976409047842026
1733851083206351000,11.54435107421875,0.038528528064489365,0.33391356468200684,0.09830906987190247
1733851083216320000,11.554320068359376,0.012703588232398033,0.35678479075431824,0.1225864440202713
1733851083226289200,11.5642890625,-0.013803105801343918,0.3401499390602112,0.13906829059123993
1733851083236257000,11.574257080078125,-0.02939165197312832,0.29858916997909546,0.14378181099891663
1733851083246226200,11.58422607421875,-0.024385889992117882,0.24055014550685883,0.12248107045888901
1733851083256194000,11.594194091796876,-0.004558656830340624,0.152837336063385,0.07971390336751938
1733851083266163200,11.6041630859375,0.026397941634058952,0.058394886553287506,0.031126076355576515
1733851083276132000,11.614132080078125,0.04917116463184357,-0.024170029908418655,-0.00997182447463274
1733851083286100200,11.624100341796876,0.0646456703543663,-0.09633166342973709,-0.03253481909632683
1733851083296069000,11.634069091796874,0.0661357119679451,-0.1305607408285141,-0.04420186206698418
1733851083306037000,11.644037109375,0.0606410913169384,-0.14240799844264984,-0.04144462198019028
1733851083316006000,11.654005859375,0.05270300805568695,-0.11958631873130798,-0.029977846890687943
1733851083325975000,11.66397509765625,0.043094951659440994,-0.09272468835115433,-0.015028229914605618
1733851083335943000,11.67394287109375,0.044240113347768784,-0.06987609714269638,-0.009256893768906593
1733851083345912000,11.683912109375,0.04808332026004791,-0.06623262912034988,-0.01771722361445427
1733851083355880000,11.6938798828125,0.05196540802717209,-0.09069962054491043,-0.02878399007022381
1733851083365849000,11.70384912109375,0.05311090126633644,-0.11625054478645325,-0.04958732798695564
1733851083375818000,11.71381787109375,0.04740907624363899,-0.14002005755901337,-0.06214280053973198
1733851083385786000,11.7237861328125,0.0366416797041893,-0.14862540364265442,-0.06397490948438644
1733851083395755000,11.733755126953126,0.024143995717167854,-0.13244377076625824,-0.058395855128765106
1733851083405723100,11.74372314453125,0.007516087032854557,-0.08673010021448135,-0.04716349393129349
1733851083415692000,11.753692138671875,-0.01030871644616127,-0.01978595368564129,-0.027293382212519646
1733851083425661200,11.7636611328125,-0.028595129027962685,0.05565585941076279,-0.0041703591123223305
1733851083435629000,11.773629150390626,-0.04288751259446144,0.12451774626970291,0.013981480151414871
1733851083445598200,11.78359814453125,-0.052702974528074265,0.167949378490448,0.028825635090470314
1733851083455567000,11.793567138671875,-0.05881359800696373,0.1738346964120865,0.0439758263528347
1733851083465535000,11.803534912109376,-0.0574226975440979,0.15679796040058136,0.04668218269944191
1733851083475503900,11.81350390625,-0.04953042045235634,0.10973217338323593,0.04401795566082001
1733851083485472000,11.823471923828125,-0.04505360499024391,0.06371099501848221,0.03635052219033241
1733851083495441000,11.83344091796875,-0.03975044935941696,0.03454965353012085,0.026799626648426056
1733851083505410000,11.84341015625,-0.0341082364320755,0.026684468612074852,0.02331695705652237
1733851083515378000,11.8533779296875,-0.03195347264409065,0.029305020347237587,0.02824806608259678
1733851083525347000,11.86334716796875,-0.029436154291033745,0.028645722195506096,0.03149481490254402
1733851083535315000,11.87331494140625,-0.02664383128285408,0.0271168015897274,0.03515798971056938
1733851083545284000,11.8832841796875,-0.02532542683184147,0.029844708740711212,0.03585124760866165
1733851083555252000,11.893251953125,-0.0253339484333992,0.01990366168320179,0.03393030911684036
1733851083565221000,11.90322119140625,-0.016298558562994003,-0.014640161767601967,0.028086023405194283
1733851083575190000,11.91318994140625,-0.0037148557603359222,-0.048692405223846436,0.011864176020026207
1733851083585158100,11.923158203125,0.010468664579093456,-0.08210700005292892,-0.010882250964641571
1733851083595127000,11.933126953125,0.018962817266583443,-0.11392245441675186,-0.03192601725459099
1733851083605095200,11.94309521484375,0.022515375167131424,-0.12680062651634216,-0.04857100918889046
1733851083615064000,11.95306396484375,0.023979049175977707,-0.12217392027378082,-0.055787909775972366
