time,seconds_elapsed,z,y,x
1733851529004221200,0.01722119140625,-0.10372370158582925,0.26116876422613855,-0.07857318597733974
1733851529014190000,0.027190185546875,-0.04976122525185346,0.21692513335198163,-0.16643442478179932
1733851529024158200,0.037158203125,0.0027557284489274025,0.1889350104033947,-0.22969138368368147
1733851529034126300,0.047126220703125,-0.02107026055753231,0.15369389341324566,-0.18370646210014818
1733851529044095200,0.05709521484375,-0.06590075140893459,0.09479586037322878,-0.16522037281692026
1733851529054063400,0.0670634765625,0.0294034968778491,0.09712269588559866,-0.15980185489952564
1733851529064031500,0.077031494140625,0.17826982400417327,0.16681421787962317,-0.12640578125417232
1733851529074000400,0.08700048828125,0.16415186680257318,0.19097981410399079,-0.06352642349302769
1733851529083968500,0.096968505859375,0.09534604160189628,0.17373656448870897,-0.017552607825398445
1733851529093937000,0.10693701171875,0.10427052181363106,0.13787979981824755,0.0426683443814516
1733851529103905000,0.116905029296875,0.18241525324583052,0.10372472449913621,-0.026366028878092765
1733851529113873000,0.126872802734375,0.06847206320166588,-0.01759337822720408,-0.19522680402398107
1733851529123842000,0.136842041015625,0.017465514063835143,-0.10104629907011985,-0.24732465552985666
1733851529133810000,0.146809814453125,0.0962169792175293,-0.16812866147905586,-0.26117256361842156
1733851529143778000,0.156778076171875,0.13257161040753127,-0.21991233246922492,-0.22072657146155833
1733851529153747200,0.166747314453125,0.1456692846506834,-0.24530498627051708,-0.21013854195177553
1733851529163715000,0.176715087890625,0.1672837350875139,-0.2029762491069734,-0.1400216341525316
1733851529173683000,0.186682861328125,0.1697153461486101,-0.08444500062018633,-0.03683598496615886
1733851529183651800,0.19665185546875,0.16438567555844782,0.06061491996049881,0.044292730712890624
1733851529193620000,0.206619873046875,0.15570143384337423,0.1802237345509231,0.09137304631769656
1733851529203588000,0.216588134765625,0.1376432145833969,0.23879195111468432,0.10739946748912334
1733851529213557000,0.226556884765625,0.11742051076591015,0.24701953510344027,0.06769114195704459
1733851529223525000,0.236525146484375,0.03888531871140003,0.2052675749145448,-0.01541910292804241
1733851529233494000,0.246493896484375,-0.012467851907014845,0.14002134189158677,-0.04814180735647678
1733851529243462100,0.256462158203125,-0.00719955611526966,0.08460515961796045,-0.05484685795307159
1733851529253430000,0.266429931640625,0.04922521867901086,0.04863265961334109,-0.058520578029751774
1733851529263399200,0.276399169921875,0.09831891993284225,0.028113018675893543,-0.06500935552716255
1733851529273367000,0.286366943359375,0.11173223599642515,-0.010327771138399838,-0.06794307089149952
1733851529283335000,0.2963349609375,0.03439852868616581,-0.049632484305649996,-0.04074176023304462
1733851529293304000,0.306303955078125,-0.027509353694319724,-0.09324965384453535,-0.04741407760381698
1733851529303272000,0.31627197265625,-0.08832651822865009,-0.10220964376106857,-0.08802432041168212
1733851529313240000,0.326239990234375,-0.11545067199766636,-0.07764072743281722,-0.06165127727091312
1733851529323209000,0.336208984375,-0.05553893187046051,-0.02576382520124316,0.01701952386200428
1733851529333177000,0.346177001953125,0.06364215882718563,0.0454942154571414,0.06255553263425827
1733851529343146000,0.35614599609375,0.0998456911087036,0.10302490566670894,0.07605623472034931
1733851529353114000,0.366114013671875,0.08040215497016906,0.13358137197196482,0.06951426573097705
1733851529363082000,0.37608203125,0.06614800416827202,0.14110212286561727,0.07270283263921737
1733851529373051000,0.38605078125,0.026049218013882637,0.12876213512197135,0.05289806197285652
1733851529383019000,0.39601904296875,-0.08681669818758964,0.10349603030979633,0.01163724630177021
1733851529392987100,0.405987060546875,-0.23878595976531505,0.0883846781566739,-0.0323246450215578
1733851529402956000,0.4159560546875,-0.26534400408416986,0.050788668603450056,-0.04732581479847431
1733851529412924200,0.425924072265625,-0.14071838424503802,0.03827449333667755,-0.03006312983036041
1733851529422892000,0.43589208984375,0.033144144710898396,0.046021746462583536,0.01433072316944599
1733851529432861200,0.445861083984375,0.1903939770400524,0.087333561668545,0.08459317691922187
1733851529442829000,0.4558291015625,0.25451895094811916,0.1709589164689183,0.11288286733627319
1733851529452797000,0.465796875,0.20364684184491633,0.250518775396049,0.07604454428255558
1733851529462765800,0.475765869140625,0.1234264731824398,0.3166822693943977,0.032732056778669354
1733851529472734000,0.48573388671875,0.07157938156723975,0.34554274543672797,-0.015866262173652647
1733851529482702800,0.495702880859375,0.06502133822590113,0.3370060954988003,-0.05126724590063095
1733851529492671000,0.5056708984375,0.09193827898502349,0.2589693544857204,-0.0921907924413681
1733851529502639000,0.51563916015625,0.13557020770162342,0.17651508929133414,-0.10895721832513809
1733851529512608000,0.52560791015625,0.25822598877251146,0.0711624713294208,-0.14318331305384635
1733851529522576100,0.535576171875,0.3737514795720577,-0.035641368354111906,-0.223358673530817
1733851529532544300,0.545544189453125,0.4233522535651922,-0.13379691441878674,-0.26086802771389483
1733851529542513200,0.55551318359375,0.3517977141782641,-0.15850553147867322,-0.2568003398835659
1733851529552481000,0.56548095703125,0.2032002671211958,-0.10744564471840858,-0.25895079591572284
1733851529562449000,0.575448974609375,0.11576982094943522,-0.03856923849955201,-0.2533551678657532
1733851529572418000,0.58541796875,0.12186375391036271,0.08482567050084472,-0.2669575767606497
1733851529582386000,0.595385986328125,0.05597118580788374,0.20940657441541552,-0.30185353357493877
1733851529592354000,0.60535400390625,-0.06852467017173766,0.2701421981461346,-0.33727614461183547
1733851529602323000,0.615322998046875,-0.07886515466123818,0.2809158133558929,-0.3233189309298992
1733851529612291000,0.625291015625,-0.030433132186532017,0.20371362347081304,-0.28243454735577106
1733851529622260000,0.635260009765625,-0.0827794054955244,0.06377309173047542,-0.23115911814868448
1733851529632228000,0.64522802734375,-0.15741349845826624,-0.051818303912132976,-0.11189034916758536
1733851529642196000,0.655196044921875,-0.102547351282835,-0.10234569123089313,0.010505027401447296
1733851529652164900,0.665164794921875,0.018822189369797706,-0.09281652312427759,0.027600539109110832
1733851529662133000,0.675133056640625,0.07191139000058173,0.008489011403918266,0.04990589441955089
1733851529672101000,0.68510107421875,0.16504150911867618,0.09435644604265689,0.18436872540116309
1733851529682070000,0.695070068359375,0.18313246160447597,0.16822569211274385,0.2466138769119978
1733851529692038100,0.7050380859375,-0.02528875503540039,0.2322717555657029,0.16772446459233759
1733851529702006000,0.715006103515625,-0.3006049948185682,0.29855975272655483,0.1114139638274908
1733851529711975200,0.72497509765625,-0.32689445132911205,0.39147769039869307,0.10016717814803124
1733851529721943000,0.734943115234375,-0.32275749765485523,0.49627252834737295,0.06242050807774067
1733851529731911000,0.744910888671875,-0.43280514156520367,0.5590954797461628,0.07849252195656299
1733851529741880000,0.754880126953125,-0.4004734822809696,0.5668778041854501,0.06369008962213993
1733851529751848000,0.764847900390625,-0.15413813004940746,0.4821592473208904,-0.146527947306633
1733851529761816000,0.774816162109375,0.11061375336050987,0.336695129853487,-0.2881044096857309
1733851529771785000,0.784784912109375,0.30245091494619847,0.1628814084753394,-0.23902093756496906
1733851529781753000,0.794753173828125,0.39644028124213215,0.01556640244424343,-0.0785877990245819
1733851529791722000,0.804721923828125,0.357762175540626,-0.09740706578493118,0.08682955766916274
1733851529801690000,0.814690185546875,0.1699739970847964,-0.17931699496954678,0.22826865740418434
1733851529811658200,0.824658203125,-0.06145429339408874,-0.19293577047735452,0.3284299903333187
1733851529821627100,0.834627197265625,-0.27585516896545886,-0.16764935352951288,0.37391397665739057
1733851529831595000,0.844594970703125,-0.38790567713081836,-0.11293109039217233,0.33521570495069025
1733851529841563000,0.85456298828125,-0.41897213878482575,-0.03998042047172785,0.29951486149430273
1733851529851532000,0.864531982421875,-0.30159575942158695,0.056739247570931906,0.33394378531873226
1733851529861500000,0.8745,-0.16882102765738963,0.1585842958033085,0.3680336864471435
1733851529871468000,0.884468017578125,-0.0796557205170393,0.23941081366539,0.4161977056354284
1733851529881437200,0.894437255859375,-0.05224690458774566,0.29511136583834885,0.4100432746589184
1733851529891405000,0.904405029296875,-0.0725268915504217,0.300036547280848,0.3903162454038858
1733851529901374200,0.914374267578125,-0.09777765266299247,0.24167934311926365,0.35892274375259875
1733851529911342000,0.924342041015625,-0.19072949260473251,0.13941782304048536,0.30771862621605395
1733851529921310000,0.93431005859375,-0.32569968858659265,0.021178104846179484,0.2509966220408678
1733851529931278800,0.94427880859375,-0.42792146117687224,-0.04281710520237684,0.23154957877099513
1733851529941247000,0.9542470703125,-0.43939153421819205,-0.05628828893303871,0.20421265903413294
1733851529951215000,0.964215087890625,-0.40710985155552626,-0.07460135973691939,0.16986264566481113
1733851529961184000,0.97418408203125,-0.41804245671927925,-0.06976122622936963,0.16063246050477026
1733851529971152100,0.984152099609375,-0.4661024310111999,-0.042028292912244795,0.14850889199078082
1733851529981120000,0.9941201171875,-0.41329964610636233,-0.02670388253033161,0.14698562794625758
1733851529991089200,1.004089111328125,-0.29294658901989457,-0.03157031952291727,0.2161006652265787
1733851530001057000,1.01405712890625,-0.1792293166860938,-0.07171294481903315,0.28268706081211564
1733851530011025000,1.02402490234375,-0.051229836499691005,-0.09628799862712621,0.3988116865485906
1733851530020994000,1.033994140625,0.013460954597592353,-0.09459288514703512,0.5208563499838114
1733851530030962000,1.0439619140625,-0.06031155309975147,-0.0667237582296133,0.5559352621495723
1733851530040931000,1.05393115234375,-0.2544005852654576,-0.042426352319121355,0.5070154561579228
1733851530050899000,1.06389892578125,-0.33113691120445726,0.03645516895502805,0.4199842384368181
1733851530060867000,1.0738671875,-0.2760667658895254,0.10720160682946443,0.3256096722155809
1733851530070836000,1.0838359375,-0.16260639092624188,0.1455465350538492,0.24401100093722342
1733851530080804000,1.09380419921875,-0.08016805395334958,0.23626257876753806,0.18587796092033385
1733851530090772200,1.103772216796875,-0.028649463640153406,0.325499489839375,0.07667290531396866
1733851530100741000,1.1137412109375,0.01696808593571186,0.3879258431360125,0.0053892918229103085
1733851530110709200,1.123709228515625,0.034110651655495164,0.41193946366906165,-0.04509703283309936
1733851530120677000,1.133677001953125,0.01823474487066269,0.4421010854378342,-0.1306289519071579
1733851530130646300,1.143646240234375,-0.0667629211962223,0.42470279139131306,-0.21552198855578897
1733851530140614100,1.1536142578125,-0.16699030509889126,0.42393648319393396,-0.2802308998316526
1733851530150582300,1.163582275390625,-0.3610322832524776,0.4376058198451996,-0.3635492345094681
1733851530160551400,1.173551513671875,-0.5321843842059374,0.42282530708163973,-0.37774434860050676
1733851530170519300,1.183519287109375,-0.5233727167189121,0.378709978762269,-0.38476504101753234
1733851530180488400,1.193488525390625,-0.4241723377764225,0.34239889445304866,-0.255835878765583
1733851530190456000,1.2034560546875,-0.3000157967537641,0.31177345456480976,-0.08943886338472366
1733851530200424200,1.213424072265625,-0.19248831897079943,0.26057401320338247,0.06997311541438102
1733851530210393000,1.22339306640625,-0.13453940334916115,0.18894845440685748,0.2101584156960249
1733851530220361200,1.233361328125,-0.04622223747074604,0.10703414130806922,0.3062298489630222
1733851530230329300,1.243329345703125,0.03941606458723545,0.030001170510053632,0.3673515494018793
1733851530240298200,1.25329833984375,0.06367196944355964,-0.037808337129652494,0.41249300589859483
1733851530250266400,1.263266357421875,0.04589665877819061,-0.11507219407409429,0.40509529686272144
1733851530260234200,1.273234130859375,0.02733399712741375,-0.16579612687826156,0.3648462885826826
1733851530270203400,1.283203369140625,-0.005291092145442962,-0.19236089319884775,0.2739846989184618
1733851530280171300,1.293171142578125,-0.04544862274974584,-0.18124620946645736,0.20681787309646604
1733851530290139100,1.30313916015625,-0.04461830940544605,-0.16436989346742628,0.15530571252405642
1733851530300108300,1.3131083984375,-0.020826807190477848,-0.10589140101373196,0.11708557972311973
1733851530310076200,1.323076171875,0.015377017351984977,-0.02121142259389162,0.0828489636003971
1733851530320045300,1.33304541015625,0.028795009590685365,0.08882540766149759,-0.005953939968347549
1733851530330013200,1.34301318359375,0.05248188238739967,0.14280454286932945,-0.03293663944005966
1733851530339981300,1.352981201171875,0.06322744054645299,0.11811463050991296,-0.05701543416380882
1733851530349950200,1.3629501953125,0.06239654268026352,0.0328323022827506,-0.12249182268083095
1733851530359918300,1.37291845703125,-0.00234539408236742,-0.06933101811856031,-0.15771920340657233
1733851530369886200,1.38288623046875,-0.053823360124230384,-0.11295564031153917,-0.18594050476253032
1733851530379855000,1.392855224609375,-0.016905834354460237,-0.16131459755003452,-0.18116671448945998
1733851530389823200,1.4028232421875,0.10916706168353557,-0.15305632616207002,-0.13163257599174977
1733851530399791400,1.412791259765625,0.22142361381500958,-0.12661445556879042,-0.060170683324337004
1733851530409760300,1.42276025390625,0.28902123226970433,-0.05563260150328278,-0.049534138497710226
1733851530419728400,1.432728271484375,0.32620793036967516,-0.03086567838490009,-0.09475567449331283
1733851530429696300,1.4426962890625,0.25382892285734415,-0.024315526089072226,-0.16884966922998426
1733851530439665400,1.45266552734375,0.14537351657450198,-0.0502779426023364,-0.25719898381233214
1733851530449633300,1.46263330078125,0.06623480566889048,-0.08381327858790755,-0.24011399349868295
1733851530459601200,1.47260107421875,0.01867255176603794,-0.10145414921864866,-0.20916180587410926
1733851530469570000,1.482570068359375,-0.07427168939113617,-0.08275909335985779,-0.18095570208728312
1733851530479538200,1.4925380859375,-0.18002280515134333,-0.03980623294860124,-0.07367839967310429
1733851530489507000,1.502507080078125,-0.23424524759575724,0.004125701627880334,0.08480243575572967
1733851530499475200,1.51247509765625,-0.18911708897203205,0.017360153993219135,0.22529636359512806
1733851530509443300,1.522443359375,-0.03171820356100798,-0.01963306736126542,0.26850363715887066
1733851530519412200,1.532412109375,0.10361731860190629,-0.06617182343527674,0.19725918663442132
1733851530529380400,1.54238037109375,0.24415844658389685,-0.023400895462185142,0.07650865466296672
1733851530539348200,1.55234814453125,0.2922878328502178,0.04356836196109652,-0.04879530282914638
1733851530549317400,1.5623173828125,0.18401187478750944,0.06613821342661977,-0.21307167279422282
1733851530559285200,1.57228515625,-0.018952391620725394,0.058590574526041744,-0.31323417476713655
1733851530569253000,1.582253173828125,-0.22570289856940506,-0.016912702486664054,-0.2758271119147539
1733851530579222300,1.59222216796875,-0.3317000980451703,-0.06878668210878967,-0.2497849081635475
1733851530589190100,1.602190185546875,-0.27887057126387954,-0.059668725151568645,-0.22587796287536618
1733851530599159300,1.6121591796875,-0.09206921188831328,0.005758125135302544,-0.17124211732447148
1733851530609127200,1.622127197265625,0.15918708400204776,0.09553075051903724,-0.10767653086483478
1733851530619095300,1.63209521484375,0.3919382936477661,0.22109102085977791,-0.04887479780614376
1733851530629064400,1.642064453125,0.5684319017596543,0.3807160578876734,-0.042135844939947126
1733851530639032300,1.6520322265625,0.6045552084118128,0.5153136211648583,-0.1254220309138298
1733851530649000200,1.662000244140625,0.4766203178942203,0.4949328041762113,-0.25607319465279577
1733851530658969000,1.671968994140625,0.22782807402983307,0.39344972112402316,-0.35968496029675007
1733851530668937200,1.681937255859375,-0.04166749677583575,0.24825945216193793,-0.4142155919075012
1733851530678905300,1.6919052734375,-0.24636545510888097,0.07127645309790968,-0.4315431588053703
1733851530688874200,1.701874267578125,-0.2945487635195255,-0.0513870728880167,-0.39597032564282414
1733851530698842400,1.71184228515625,-0.15224559430107473,-0.13547098511084912,-0.33847792161703105
1733851530708810200,1.721810302734375,0.09524901096820831,-0.19644070985838769,-0.23098609966933725
1733851530718779400,1.731779296875,0.3743406776368618,-0.18639190179184079,-0.0917594152867794
1733851530728747000,1.7417470703125,0.5581447548925876,-0.12344707757905125,0.036085458859801293
1733851530738716200,1.751716064453125,0.6350315952181815,-0.05399754764735698,0.1137795239150524
1733851530748684300,1.761684326171875,0.5215725354291498,-0.0017566344089806078,0.048123687177896494
1733851530758652200,1.771652099609375,0.3637241526849568,-0.006356967811286449,-0.055768648973107335
1733851530768621300,1.781621337890625,0.2382686578929424,-0.029194091910868882,-0.13852934976816175
1733851530778589200,1.791589111328125,0.16712255317643285,-0.009997808531671763,-0.22848259241580962
1733851530788557300,1.801557373046875,0.1662994002252817,0.05802694929391145,-0.295521407943964
1733851530798526200,1.811526123046875,0.2273813531756401,0.11746303473338485,-0.29276772532165046
1733851530808494300,1.821494384765625,0.3421821829624474,0.13564517263397574,-0.23796470651030538
1733851530818462200,1.831462158203125,0.41815117779076094,0.11657836085334419,-0.17476386170983313
1733851530828431000,1.84143115234375,0.47768517064675686,0.1322889940738678,-0.08289981700479984
1733851530838399200,1.851399169921875,0.492494909504801,0.11909224337041377,-0.033252865782380105
1733851530848367000,1.8613671875,0.449334982214123,0.09457841823026537,-0.024045476976037025
1733851530858336300,1.871336181640625,0.4041998093277216,0.0858976836465299,-0.05493862788975239
1733851530868304100,1.88130419921875,0.4010631187371909,0.09155001031979917,-0.156457220646739
1733851530878272300,1.891272216796875,0.395907197278738,0.11485270610451698,-0.2639882055610418
1733851530888241400,1.901241455078125,0.3999497506678104,0.09613763037100434,-0.34832711545825
1733851530898209300,1.911209228515625,0.4185474836319685,0.09174377932623028,-0.37512276792526245
1733851530908178400,1.921178466796875,0.4174832154013216,0.10104732198342681,-0.2814081269174814
1733851530918146000,1.93114599609375,0.379786083561182,0.09395809437483549,-0.11265607284307479
1733851530928114200,1.9411142578125,0.3020372195787728,0.10481485782340168,0.040787352940440176
1733851530938083000,1.9510830078125,0.2993389204055071,0.1599587990269065,0.12448913397789
1733851530948051200,1.96105126953125,0.3069933806814253,0.2018380388572812,0.09627017070949077
1733851530958019300,1.971019287109375,0.3019536329485476,0.1682294915050268,-0.019269933137297628
1733851530967988200,1.98098828125,0.30155250480175017,0.11121595703735947,-0.17540391317903994
1733851530977956400,1.990956298828125,0.31681261777579783,0.027762597803026437,-0.300873874887824
1733851530987924200,2.00092431640625,0.353234907374531,-0.004236030134558678,-0.31813129915893074
1733851530997893400,2.010893310546875,0.4067128150619566,0.02257408924922347,-0.23342180238366125
1733851531007861200,2.020861328125,0.44257717851698397,0.03364683353602886,-0.09828794027268886
1733851531017829000,2.0308291015625,0.5170644103549421,0.04642053652182221,-0.05696107362806797
1733851531027798300,2.04079833984375,0.6010644436866045,0.05816694228649139,-0.12757073338031769
1733851531037766100,2.05076611328125,0.6158411570578813,0.0279047827526927,-0.2529921797722578
1733851531047735300,2.0607353515625,0.5441552463762461,0.1183295884348452,-0.3416623968720436
1733851531057703200,2.070703125,0.43117125675305723,0.2493507545299828,-0.3875865281790495
1733851531067671300,2.08067138671875,0.31943770558238027,0.33146628928929567,-0.3731108435809612
1733851531077640200,2.09064013671875,0.2525853525370359,0.3708313543416559,-0.31787352500557897
1733851531087608300,2.1006083984375,0.24793796512261032,0.3386690602749586,-0.1979746414273977
1733851531097576200,2.110576171875,0.2812356929600239,0.270070594214648,0.002265606844425201
1733851531107545000,2.120545166015625,0.3214433463163674,0.16682020922899246,0.1043856726258993
1733851531117513200,2.13051318359375,0.34687530921474097,0.06749868812486529,0.1188555120050907
1733851531127481300,2.1404814453125,0.36509836364760995,-0.0007005494847893715,0.08502806120514869
1733851531137450200,2.1504501953125,0.34005919945910573,-0.03348945101723075,0.00466682276725769
1733851531147418400,2.16041845703125,0.28845760703757406,-0.03795914377719164,-0.1104290444433689
1733851531157387300,2.17038720703125,0.2080016760535538,-0.02913271711245179,-0.21598434537053107
1733851531167355400,2.18035546875,0.16916341135427354,0.006279957052320242,-0.24485095889270303
1733851531177323300,2.1903232421875,0.14830854711309074,0.027951544503867623,-0.20900807661712167
1733851531187292400,2.20029248046875,0.12572481325268745,0.047648470881581306,-0.17436171064972877
1733851531197260000,2.210260009765625,0.11473244072571397,0.054711541135609144,-0.18134324010014533
1733851531207228200,2.220228271484375,0.15901757265403865,0.09588204817473887,-0.17450725660026073
1733851531217197000,2.230197021484375,0.2373511046566069,0.12248130128681659,-0.17850713989138603
1733851531227165200,2.240165283203125,0.28714126374199983,0.13801526276618242,-0.1924286977380514
1733851531237133300,2.25013330078125,0.2923369326889515,0.10941022278964518,-0.2663625334769487
1733851531247102200,2.260102294921875,0.2424493045784533,0.06891425401121377,-0.3040308776140213
1733851531257070300,2.2700703125,0.19141952069550752,0.032576573956012725,-0.29608254895806313
1733851531267038500,2.28003857421875,0.17863544244617222,0.010103753124177455,-0.22853929103910922
1733851531277007400,2.29000732421875,0.20655980668216942,-0.02838964366018772,-0.1612842024117708
1733851531286975200,2.299975341796875,0.29447599054425955,-0.042189328692853446,-0.09924538712799548
1733851531296944000,2.309944091796875,0.4211078356392681,-0.04034545439183712,-0.04136252247989178
1733851531306912300,2.319912353515625,0.5222019193738698,0.003230652484297752,-0.04687514842152595
1733851531316880100,2.329880126953125,0.5727069487303496,0.10116700284034014,-0.08071078252792357
1733851531326849300,2.339849365234375,0.5215314727663993,0.17577391553521154,-0.14692016149461268
1733851531336817200,2.349817138671875,0.42297699051201343,0.20757541346549988,-0.19428747734725474
1733851531346785300,2.359785400390625,0.30851240694224835,0.23656039267033338,-0.21114508864581583
1733851531356754200,2.369754150390625,0.22327976307570932,0.27452041323035953,-0.2220434992790222
1733851531366722300,2.379722412109375,0.16722908229082822,0.3231003197431564,-0.24507132364511489
1733851531376690200,2.389690185546875,0.195092656250298,0.3771440446197986,-0.227211841827631
1733851531386659000,2.3996591796875,0.27492490237802264,0.45266427276730536,-0.15982698934078216
1733851531396627200,2.409627197265625,0.3606654957666993,0.45169601225703954,-0.09410860876142978
1733851531406595300,2.41959521484375,0.390116338917613,0.3943085299104452,-0.11085983707606792
1733851531416564200,2.429564208984375,0.351671165189147,0.3091688250243664,-0.1677770715624094
1733851531426532400,2.439532470703125,0.3011079759046435,0.2511743166953325,-0.20021745191812515
1733851531436501200,2.449501220703125,0.26167700600922106,0.21057722562998532,-0.2252238828808069
1733851531446469400,2.459469482421875,0.2138525940388441,0.13637918599694968,-0.27722821088433264
1733851531456437200,2.469437255859375,0.1323626438319683,0.08409545653015375,-0.3050900312781334
1733851531466406400,2.479406494140625,0.1043579078361392,0.08797726639956235,-0.2857213139414787
1733851531476374300,2.489374267578125,0.1101224627122283,0.16084902586489916,-0.25580080745220185
1733851531486342100,2.499342041015625,0.16680998009592293,0.2642500713676214,-0.18187281693220136
1733851531496311300,2.509311279296875,0.2261258001565933,0.3460065635561943,-0.13472060513496398
1733851531506279200,2.519279052734375,0.2393143675535917,0.3274456554710865,-0.07501461671292782
1733851531516247300,2.529247314453125,0.21784020237028598,0.2718912337705493,0.020083003085851668
1733851531526216200,2.53921630859375,0.18229484173655508,0.20160130749195812,0.12761048086881638
1733851531536184300,2.549184326171875,0.14609657015204427,0.10315408500432968,0.20607553029656409
1733851531546153200,2.5591533203125,0.12445961562246083,-0.02185761154294014,0.21451251925230025
1733851531556121300,2.569121337890625,0.06644786389768123,-0.11275368799865246,0.18524492371380327
1733851531566089200,2.579089111328125,0.019359949508309365,-0.13337883513718843,0.12450374702513217
1733851531576058000,2.58905810546875,0.00708674339056015,-0.14168869058191774,0.021802081963419914
1733851531586026200,2.599026123046875,0.09200432995855808,-0.14259996020793914,-0.08235387355983256
1733851531595994000,2.608994140625,0.16372633486688137,-0.14540683432221413,-0.14480886842906474
1733851531605963300,2.61896337890625,0.17780045292675495,-0.15096505297124385,-0.13982406575381756
1733851531615931400,2.628931396484375,0.16159107640385625,-0.166694244761765,-0.10814005672335623
1733851531625899300,2.638899169921875,0.12713380326777696,-0.14729747037440538,-0.043649172112345695
1733851531635868400,2.648868408203125,0.12149404381513595,-0.13398060042262078,-0.02408873159587383
1733851531645836300,2.658836181640625,0.10094809939265251,-0.12040624857842921,-0.04507306743562221
1733851531655804200,2.66880419921875,0.06658055036664008,-0.060633332400023936,-0.07922258979678154
1733851531665773000,2.67877294921875,0.09013327538967132,-0.04675649047791958,-0.16411328835785388
1733851531675741200,2.6887412109375,0.14912556258440016,-0.06508855824321508,-0.2173205624103546
1733851531685710000,2.6987099609375,0.19411241304129362,-0.10189502485394478,-0.2930319292157888
1733851531695678200,2.70867822265625,0.1719850446462631,-0.15958207466900348,-0.3467722872316837
1733851531705646300,2.718646240234375,0.11599193926751612,-0.19189152212142943,-0.2963876693844795
1733851531715615200,2.728615234375,-0.0020458266139030457,-0.20250176346302032,-0.22232582335174084
1733851531725583400,2.738583251953125,-0.10340835202634334,-0.15230273131579158,-0.13841536799967288
1733851531735551200,2.74855126953125,-0.19483108270466326,-0.043318332722783084,-0.06855272722244263
1733851531745520400,2.758520263671875,-0.30845863092839715,0.01804828238785267,-0.026036358532309532
1733851531755488300,2.76848828125,-0.30352175904810424,0.05477729984819889,0.018952537751197814
1733851531765456100,2.7784560546875,-0.12606032881736753,0.14318857375085353,0.09290390914678573
1733851531775425300,2.78842529296875,0.05143266559541225,0.18079583535045385,0.13234978435039518
1733851531785393200,2.79839306640625,0.1153355211853981,0.19243512747883795,0.1885246760368347
1733851531795362300,2.8083623046875,0.010225625938177108,0.1473813492655754,0.21917758845388888
1733851531805330200,2.818330078125,-0.20857319233119487,0.14352701192498207,0.24225392813682556
1733851531815298300,2.82829833984375,-0.6350538070499897,0.15257102686315774,0.24700550657808779
1733851531825267200,2.83826708984375,-1.5775316412836313,0.21410861462652683,0.08084346899688244
1733851531835235300,2.8482353515625,-2.7253847485899922,0.34265257695317264,-0.1774754587560892
1733851531845203200,2.858203125,-2.250088957297802,0.4293021018803119,-0.34449265186190603
1733851531855172000,2.868172119140625,-0.39419688622951504,0.4689984447136521,-0.17695874140560625
1733851531865140200,2.87814013671875,1.23027010923028,0.4227344139277935,0.40146424688398835
1733851531875108400,2.8881083984375,2.1970611314654347,0.29904928980916734,0.7940835085332393
1733851531885077200,2.8980771484375,2.4756045166015626,0.0879836961403489,0.7829185559183359
1733851531895045400,2.90804541015625,2.037064046254754,0.005254267266392707,0.5620043529301881
1733851531905013200,2.91801318359375,1.1278192040592432,0.05726297918409109,0.3457745083659887
1733851531914982400,2.927982421875,0.10196516748070716,0.11047843654304743,0.1032528692036867
1733851531924950300,2.9379501953125,-0.8558756555795669,0.0475789127767086,-0.19824352149665356
1733851531934919400,2.94791943359375,-1.2674854489028453,-0.06774287214428186,-0.3992588457942009
1733851531944887000,2.957886962890625,-0.9387176049172877,-0.2092100289300084,-0.37175241470932957
1733851531954855200,2.967855224609375,-0.2550707396119833,-0.35297581804692746,-0.35283027209639545
1733851531964824300,2.97782421875,0.6788333275437355,-0.3843362942114472,-0.3373842811614275
1733851531974792200,2.987792236328125,1.3027590068578718,-0.3318257702514529,-0.2914917140364647
1733851531984760300,2.99776025390625,1.3522007908970117,-0.16807576224803925,-0.12704466367959977
1733851531994729200,3.007729248046875,0.8766443028420209,0.061224868552386756,-0.005132686713337898
1733851532004697300,3.017697265625,0.20898644930720328,0.305929989233613,0.028034254351258277
1733851532014665200,3.027665283203125,-0.27006898677945135,0.4830348611116409,0.07819324674904346
1733851532024634400,3.03763427734375,-0.4059142120301723,0.5292112136140465,0.12820377058684826
1733851532034602200,3.047602294921875,-0.27603344814181324,0.4406608235016465,0.10030220270454883
1733851532044571100,3.057571044921875,-0.027511107259988784,0.30731501385122534,0.04112520659267902
1733851532054539300,3.067539306640625,0.12251052738130092,0.1652677190899849,0.04448913006782532
1733851532064507100,3.077507080078125,0.20018705677986143,0.04496317732036113,0.08623100725412368
1733851532074476300,3.087476318359375,0.21144377933144567,-0.08756547072827815,0.13326923728287218
1733851532084444200,3.097444091796875,0.0652297202795744,-0.14585574713349342,0.13194237259328365
1733851532094412300,3.107412353515625,-0.2129237887561321,-0.14093670317083595,0.06756663879454136
1733851532104381400,3.11738134765625,-0.5085615165561437,-0.10856266604959965,-0.008064648512005805
1733851532114349300,3.127349365234375,-0.6317869142085314,-0.06174801564365625,-0.019636428362131118
1733851532124317400,3.1373173828125,-0.5219955831468105,-0.04102905274182558,-0.0651858811378479
1733851532134286300,3.147286376953125,-0.25946459065675737,0.004575929613411426,-0.005610241097211838
1733851532144254500,3.15725439453125,-0.15751345170140266,0.02407178046107292,0.16313772132396698
1733851532154223400,3.167223388671875,-0.19526070629358291,-0.0026788638204336165,0.3818628898352384
1733851532164191500,3.17719140625,-0.3511766596704721,-0.032251872046291825,0.5284294155865907
1733851532174159400,3.187159423828125,-0.4460357945382595,-0.006427694959938526,0.5839081417024136
1733851532184128300,3.197128173828125,-0.5373147328317165,0.06325052916109561,0.6260510009050368
1733851532194096400,3.207096435546875,-0.6427806019097566,0.06389613358825445,0.6384516327947378
1733851532204064300,3.217064208984375,-0.6434001951128244,0.055930269275605675,0.5970534544795751
1733851532214033400,3.227033447265625,-0.5176923329949379,0.03720832540988922,0.5743126303613185
1733851532224001300,3.237001220703125,-0.38805706830024717,-0.06636544631123542,0.579116231250763
1733851532233969400,3.246969482421875,-0.2911211271584034,-0.15543810673207042,0.6878203515976667
1733851532243938600,3.2569384765625,-0.2141962929099798,-0.1898039021924138,0.7684919711589813
1733851532253906400,3.266906494140625,-0.12700024001598356,-0.18353139779418706,0.7497609672039747
1733851532263874300,3.276874267578125,-0.06226093360185623,-0.09974778369218111,0.688173987340927
1733851532273843200,3.28684326171875,0.08057517344951629,0.024815292304754256,0.6202332545369863
1733851532283811300,3.296811279296875,0.38357904610335825,0.14126345090717077,0.512020717099309
1733851532293780200,3.3067802734375,0.4424871621459722,0.19711480972766876,0.3092810532271862
1733851532303748400,3.316748291015625,0.17932430149316786,0.2645794494524598,0.13141045767366885
1733851532313716500,3.326716552734375,-0.26949323271811004,0.31575550993829965,-0.0007990414232015609
1733851532323685400,3.336685302734375,-0.70045888389647,0.3370113561958074,-0.17259762358665465
1733851532333653500,3.346653564453125,-0.7227741760790347,0.3183294520795345,-0.30890871278345583
1733851532343621400,3.356621337890625,-0.2742506563782692,0.27220658333003517,-0.3076438074141741
1733851532353590500,3.366590576171875,0.16587854446470737,0.13132511747777462,-0.2582370946884155
1733851532363558400,3.376558349609375,0.4283978465169668,-0.07864917382299899,-0.14712240606844423
1733851532373526300,3.3865263671875,0.465790880843997,-0.2589586869612336,-0.03945698111951351
1733851532383495400,3.396495361328125,0.45975335424542424,-0.36063626967221496,-0.018702362382411956
1733851532393463300,3.40646337890625,0.43578795676827425,-0.3906660817548632,-0.044641690281033514
1733851532403432400,3.416432373046875,0.3979875106841326,-0.3658285776183009,-0.14532149412631987
1733851532413400300,3.426400390625,0.16577099243700502,-0.3026268560349941,-0.23912848959267138
1733851532423368400,3.436368408203125,-0.20626023921370504,-0.23193360965251922,-0.29729718544483186
1733851532433337300,3.44633740234375,-0.4056885865807533,-0.11670768632143735,-0.34537586443722246
1733851532443305200,3.45630517578125,-0.38642859031558036,0.0036798575565218923,-0.29866204405725
1733851532453273300,3.4662734375,-0.2564291684836149,0.10070873767882585,-0.15564005904495715
1733851532463242200,3.4762421875,-0.09171089996993541,0.14807459222674368,-0.0016308160722255706
1733851532473210400,3.48621044921875,0.22519641035199164,0.1531067411750555,0.16725158638358115
1733851532483178500,3.496178466796875,0.5079454304844141,0.16501695919930934,0.3476303653657436
1733851532493147400,3.5061474609375,0.41788580485284327,0.163652392847836,0.4424836550146341
1733851532503115500,3.516115478515625,0.16247136636972426,0.1337242875739932,0.44263913783729075
1733851532513084400,3.52608447265625,0.10809797114729881,0.10672551375031471,0.3524333817332983
1733851532523052500,3.536052490234375,0.04503624255657196,0.07661036147177219,0.26444997785389424
1733851532533020200,3.546020263671875,-0.17499942403137683,-0.017377835780382156,0.1274269409954548
1733851532542989300,3.5559892578125,-0.4122901768028736,-0.16692366960346697,-0.0668459233045578
1733851532552957200,3.565957275390625,-0.41664954105615615,-0.3200876939237118,-0.1970774003267288
1733851532562925300,3.57592529296875,-0.0524894811719656,-0.3879460091412067,-0.16565817971229552
1733851532572894200,3.585894287109375,0.41992169459462164,-0.3765943017825484,-0.11898586038649081
1733851532582862300,3.5958623046875,0.5278150830805302,-0.2838268784970045,-0.142096686860919
1733851532592830500,3.60583056640625,0.3139583973884582,-0.217845755328238,-0.11926935350298881
1733851532602799400,3.61579931640625,0.31255846746265886,-0.152167706759274,-0.028154665860533713
1733851532612767500,3.625767578125,0.4361234723329544,-0.04614917223453521,-0.013523498439788818
1733851532622736400,3.635736328125,0.3556692949146032,0.13276187228262423,-0.06567921761274337
1733851532632704300,3.645704345703125,0.1115489883840084,0.2851131189152598,-0.1764940465033054
1733851532642672400,3.65567236328125,0.04476736248731613,0.33616730658710003,-0.27024785047769545
1733851532652641300,3.665641357421875,0.044212651214003564,0.3580541442245245,-0.3494347844392061
1733851532662609400,3.675609375,-0.012733809366822241,0.36494390373826024,-0.453299063539505
1733851532672577300,3.685577392578125,0.030640637457370758,0.32811405625194306,-0.48092824422121044
1733851532682546400,3.69554638671875,0.12293898192644119,0.26519962717741724,-0.4447662129938602
1733851532692514300,3.705514404296875,0.15132161132395267,0.21975684964656828,-0.3813017488211393
1733851532702482400,3.715482421875,0.22658874149322508,0.18659078536480664,-0.3011421704351902
1733851532712451600,3.72545166015625,0.34226913059353825,0.20060908158421514,-0.32584698810279367
1733851532722419200,3.735419189453125,0.33412557162642476,0.19690087471604345,-0.4082499615013599
1733851532732388400,3.745388427734375,0.35002515154778957,0.18065671914070844,-0.4642418978363275
1733851532742356200,3.755356201171875,0.42069793966412544,0.17693565279096363,-0.4821662615835666
1733851532752324400,3.765324462890625,0.3306336378574371,0.1460872178018093,-0.470555903288722
1733851532762293200,3.775293212890625,0.24020517891347407,0.11896540212035178,-0.48246729035675523
1733851532772261400,3.785261474609375,0.36509763299524783,0.16595745491981506,-0.5073176539748907
1733851532782229500,3.7952294921875,0.4472001621425152,0.29979835461080073,-0.5252034392774104
1733851532792198400,3.805198486328125,0.304844532084465,0.4331070471212268,-0.5289829578161239
1733851532802166500,3.81516650390625,0.1257832654416561,0.5465431644260883,-0.44181905362606044
1733851532812134100,3.825134033203125,0.12110709032416343,0.6209528009831905,-0.36515550066232677
1733851532822103300,3.835103271484375,0.12705050889849662,0.6742863317638635,-0.33771512055099007
1733851532832071400,3.845071533203125,0.12916180196404456,0.6176140119493008,-0.303729264318943
1733851532842040300,3.855040283203125,0.0997410616904497,0.47901627312004563,-0.2870557774156332
1733851532852008400,3.865008544921875,0.1320136842638254,0.2615747146785259,-0.33631343705952166
1733851532861976300,3.874976318359375,0.18595277972221375,0.01838321343064308,-0.36829496773183346
1733851532871945500,3.884945556640625,0.2174947499334812,-0.1609291053637862,-0.3396317678272724
1733851532881913300,3.894913330078125,0.21946108157038688,-0.21934534623622892,-0.33602234515845775
1733851532891881500,3.904881591796875,0.28747546413242814,-0.18449556665122507,-0.3243862679004669
1733851532901850400,3.914850341796875,0.4091530478209257,-0.10526479354798793,-0.2686754865944385
1733851532911818200,3.924818359375,0.4213444208741188,0.04795066869854927,-0.19284137019217013
1733851532921786400,3.934786376953125,0.2921545618593693,0.22733517594635486,-0.17314415155351162
1733851532931755300,3.94475537109375,0.45704234172105784,0.29090953023433685,-0.15480828439593314
1733851532941723400,3.954723388671875,0.574257685303688,0.28005700456947086,-0.1822732144266367
1733851532951692300,3.9646923828125,0.3441238185495138,0.2430947628751397,-0.23949089316427707
1733851532961660400,3.974660400390625,0.1698819348871708,0.27393209194838997,-0.32260522970259187
1733851532971628500,3.984628662109375,0.13515782750844954,0.36730537217259407,-0.3780219964981079
1733851532981597400,3.994597412109375,0.18078093004226684,0.44048722050040956,-0.31497254286706444
1733851532991565600,4.004565673828125,0.09770926360189915,0.4489247939780354,-0.14796704019904136
1733851533001533200,4.014533203125,-0.15240589942932128,0.37180209906995293,-0.003397241222858429
1733851533011502300,4.02450244140625,-0.30335400126576423,0.26164748765379187,0.09957681103944778
1733851533021470200,4.03447021484375,-0.4770668926179409,0.19067717789560557,0.17278408606946466
1733851533031438300,4.044438232421875,-0.5926724629163742,0.11788169853687286,0.27614684538841244
1733851533041407200,4.0544072265625,-0.657785863339901,0.02411065116673708,0.4082382710635662
1733851533051375400,4.064375244140625,-0.6304805077850818,-0.1548848567634821,0.6179033502846956
1733851533061344500,4.074344482421875,-0.47988311908245085,-0.34609833349287505,0.8468681732594966
1733851533071312400,4.0843125,-0.3606839082062244,-0.48456221680939193,0.979113328191638
1733851533081280500,4.094280517578125,-0.22219372140467167,-0.5884338024333119,1.0048755459576844
1733851533091248600,4.10424853515625,-0.06043605626225471,-0.6257715994417667,0.9565753331691026
1733851533101216500,4.114216552734375,0.03447627009749412,-0.5584966370701789,0.8401350656121969
1733851533111184600,4.1241845703125,0.010710779106616974,-0.43328328047096726,0.7209171500355005
1733851533121153500,4.134153564453125,-0.06318389366567134,-0.2667038942605257,0.5027525380164385
1733851533131121700,4.14412158203125,-0.13833528850078583,-0.11737871745079755,0.23328268617391584
1733851533141089800,4.15408984375,-0.15005729047656058,-0.013740940582752227,0.021050386813282966
1733851533151058700,4.16405859375,-0.07276128482818603,0.07841565732806921,-0.07409633282423018
1733851533161026800,4.17402685546875,-0.004490297156572342,0.1955900843784213,-0.1421925484508276
1733851533170995700,4.18399560546875,0.011824877828359602,0.28972675019055605,-0.15465864679217337
1733851533180963600,4.193963623046875,-0.040918870365619656,0.34829379771053787,-0.20406711308360098
1733851533190931500,4.203931396484375,-0.07452654093503952,0.3445870521470904,-0.18083412153422831
1733851533200900600,4.213900634765625,0.10158230564296244,0.3191226482838392,-0.08439560852050781
1733851533210868500,4.223868408203125,0.20850480327010154,0.25069267065823075,-0.018928572353720665
1733851533220836600,4.233836669921875,0.09745967275500297,0.18368658835589885,0.01645487571656704
1733851533230805800,4.2438056640625,-0.08916355357468128,0.14380027590841055,0.04163257159292698
1733851533240773600,4.253773681640625,-0.12737959472239016,0.11308218930065632,0.04642331300079822
1733851533250742800,4.26374267578125,0.019426000481843946,0.1352493051841855,0.04990063372254371
1733851533260710700,4.273710693359375,0.17468904290795326,0.1726385401189327,0.0903437032699585
1733851533270678500,4.283678466796875,0.24605799659490585,0.19283961662650106,0.11351122836768626
1733851533280647400,4.2936474609375,0.19625556254982948,0.16825696403384208,0.07625964833796024
1733851533290615600,4.303615478515625,0.04457330121994018,0.14276801025122404,-0.03286006707251072
1733851533300583700,4.313583740234375,-0.11564356422126293,0.12650807258486746,-0.15362053591609
1733851533310552600,4.323552490234375,-0.1837970629930496,0.09533318212032317,-0.26606442731320856
1733851533320520700,4.333520751953125,-0.23890052605569362,0.031202362993359566,-0.2801011359721422
1733851533330488600,4.343488525390625,-0.27873510831594467,-0.0074801266223192215,-0.23898878886103628
1733851533340457700,4.353457763671875,-0.232308872705698,-0.06251753871142864,-0.12235095290541648
1733851533350425600,4.363425537109375,-0.1682388438552618,-0.09411562302410602,0.038680736050009726
1733851533360394800,4.373394775390625,-0.13779519027471543,-0.10882131698578595,0.15870061565935611
1733851533370362600,4.383362548828125,-0.08971066606342792,-0.0734618343129754,0.29843057338893414
1733851533380330500,4.39333056640625,-0.02754033335447311,-0.0749538264364004,0.3782756789982319
1733851533390299600,4.403299560546875,-0.0020750527083873748,-0.0764814743950963,0.38556642052829265
1733851533400267500,4.413267578125,0.026833061867952344,-0.05230447999387979,0.40373394538164137
1733851533410235600,4.423235595703125,-0.03758358846306801,0.012236088977754115,0.33794308408796786
1733851533420204500,4.43320458984375,-0.16358721865713596,0.08114654359668493,0.26112872447669505
1733851533430172700,4.443172607421875,-0.22658757244944572,0.14038637581169605,0.26000819601416586
1733851533440140800,4.453140869140625,-0.08923428072333335,0.19075696513354778,0.2771557301700115
1733851533450109700,4.463109619140625,0.07141337735056877,0.21393939553946256,0.2420113515526056
1733851533460077600,4.47307763671875,0.03588613689541816,0.20949381430745123,0.23984335986375807
1733851533470046500,4.48304638671875,-0.065765726852417,0.1911675917610526,0.19174129999578
1733851533480014600,4.4930146484375,-0.09659107322692871,0.22094927430152891,0.12462240496873855
1733851533489982700,4.502982666015625,-0.06520692392587661,0.24808891790062187,0.006933598655462264
1733851533499951600,4.51295166015625,-0.04221943157017231,0.24815818374454973,-0.14003683172166348
1733851533509919700,4.522919677734375,-0.07412789700627327,0.221240073941648,-0.24891572411358354
1733851533519887600,4.5328876953125,-0.08387947569191455,0.19096885431855914,-0.33572891516983505
1733851533529856800,4.542856689453125,-0.06612228520512581,0.15873393340706823,-0.43375966581106185
1733851533539824600,4.55282470703125,-0.08988426906466483,0.08374240530878305,-0.49530572914183135
1733851533549793800,4.562793701171875,-0.10616261917054652,0.044571547654271126,-0.46873628664612765
1733851533559761400,4.572761474609375,-0.07205576690733433,0.07242196987122297,-0.37669104015529153
1733851533569729500,4.5827294921875,0.03550736671090126,0.12379793684333562,-0.257292507314682
1733851533579698700,4.59269873046875,0.08953940114974974,0.22755875556915997,-0.16240648443996905
1733851533589666600,4.60266650390625,-0.020309797579050062,0.3734565882787108,-0.10107610968649387
1733851533599634700,4.612634765625,-0.1496907952517271,0.5207391533449292,-0.05640753139853477
1733851533609603600,4.622603515625,-0.1432423497647047,0.6174813254803418,-0.03979425024986267
1733851533619571700,4.63257177734375,-0.05985737959146499,0.6490697651818395,-0.014433014500141143
1733851533629539800,4.642539794921875,-0.051371875318884846,0.656418666639924,0.03537117311060428
1733851533639508700,4.6525087890625,-0.18626608345508575,0.605170125439763,0.10729776068031788
1733851533649476600,4.6624765625,-0.28850013100504873,0.5513359516605735,0.2021194861471653
1733851533659445500,4.672445556640625,-0.29747897175252436,0.511377158498764,0.25633915211260316
1733851533669413600,4.68241357421875,-0.2423644027739763,0.4196951923623681,0.28673662846386433
1733851533679381500,4.692381591796875,-0.18175123637914656,0.3085793346986174,0.2718833427250385
1733851533689350700,4.7023505859375,-0.12294015097022055,0.20846388673782348,0.22486557096242904
1733851533699318500,4.712318603515625,-0.12241291222572326,0.14031974031627178,0.16678046174049377
1733851533709286700,4.72228662109375,-0.1653758556395769,0.05931903493106365,0.12860124547183513
1733851533719255800,4.732255859375,-0.23051205241680145,-0.0029988895550370214,0.10871405721902846
1733851533729223700,4.7422236328125,-0.2193342403203249,-0.05794394718557596,0.1071919622182846
1733851533739192800,4.75219287109375,-0.14383154782950877,-0.09564736263602971,0.06440262180566787
1733851533749160400,4.762160400390625,-0.020379355683922767,-0.0700000034213066,0.025989012259244916
1733851533759128600,4.772128662109375,0.03491816864609718,0.008058218771219252,0.004179331511259079
1733851533769097500,4.782097412109375,0.07419394797980786,0.08467588676661253,-0.004344751206040382
1733851533779065600,4.792065673828125,0.06528875699043274,0.14239070137143134,-0.058819268715381616
1733851533789033700,4.80203369140625,-0.05778875662386417,0.19521978976130486,-0.10129881252646446
1733851533799002600,4.812002685546875,-0.24296061510145664,0.20690438233613967,-0.09476035066843032
1733851533808970800,4.821970703125,-0.3607043664723634,0.17481266928762196,-0.0781827253550291
1733851533818938600,4.831938720703125,-0.2935252656906843,0.13129618364423512,-0.05605389565527439
1733851533828907800,4.84190771484375,-0.06462590916752815,0.10464578486680984,-0.0031838907331228255
1733851533838875600,4.851875732421875,0.18795652076005934,0.07174070960879325,0.04697451714277267
1733851533848844500,4.861844482421875,0.39292905825078484,0.04755757772773504,0.1039630632996559
1733851533858812700,4.871812744140625,0.5357330165982246,0.035143794095516205,0.15706044723689555
1733851533868780500,4.881780517578125,0.5669160903692245,-0.07634002009779214,0.18648235655426978
1733851533878749700,4.891749755859375,0.5022574479758739,-0.23085253641754389,0.20488836633861063
1733851533888717600,4.901717529296875,0.38790626165270803,-0.42248774569034575,0.27976386684179305
1733851533898685700,4.911685791015625,0.24283845002651214,-0.6241600725919008,0.33647944127619267
1733851533908654600,4.921654541015625,0.09939327116608619,-0.8106915289849043,0.34714462767541404
1733851533918622700,4.931622802734375,-0.0040951603591442105,-0.8568728499233722,0.3370820833444595
1733851533928590600,4.941590576171875,-0.06428337934017181,-0.692622198921442,0.2279910095065832
1733851533938559500,4.9515595703125,-0.15039397508502006,-0.343785964897275,0.20709610551595686
1733851533948527600,4.961527587890625,-0.1875119918629527,-0.014132862509787082,0.17046587225496768
1733851533958496500,4.97149658203125,-0.24681962861716747,0.24080402158945796,0.08740589625239371
1733851533968464600,4.981464599609375,-0.3341425227612257,0.36207536256462336,0.04594634313881397
1733851533978432800,4.991432861328125,-0.4824313422605395,0.3874097103074193,0.0496487047880888
1733851533988401700,5.001401611328125,-0.662341919209063,0.3560170854389667,0.04155716826915741
1733851533998369800,5.011369873046875,-0.397529830044508,0.22233049952685832,-0.0178594818174839
1733851534008337700,5.021337646484375,0.08304448617249727,0.022540917631983754,-0.08193126423358917
1733851534018306800,5.031306884765625,0.337075653603673,-0.11400836423486471,-0.07169570142328739
1733851534028274400,5.0412744140625,0.41939737845957276,-0.07808803280889988,0.010692074406147003
1733851534038243600,5.05124365234375,0.3440595211416483,0.09430500811636447,0.025471125864982604
1733851534048211500,5.06121142578125,0.2500064419597387,0.26148615961223837,-0.09642857614159583
1733851534058179600,5.0711796875,0.2091816796183586,0.326042218413949,-0.17097206821143626
1733851534068148700,5.081148681640625,0.038432021985948084,0.275161049221456,-0.1604647027224302
1733851534078116600,5.09111669921875,-0.19151509002447129,0.15529022269397974,-0.1697550936371088
1733851534088084700,5.101084716796875,-0.2615785140708089,0.01283317808806896,-0.18151976571083067
1733851534098054100,5.11105419921875,-0.25290742409825323,-0.14105682241916656,-0.23175299238860605
1733851534108022300,5.121022216796875,-0.23247370787858962,-0.25404227334707974,-0.27156886994838714
1733851534117990100,5.130990234375,-0.16742781973332166,-0.30336919883489605,-0.26392449267506596
1733851534127959000,5.140958984375,-0.10406301654279232,-0.25628917549103497,-0.19483342079222202
1733851534137927200,5.15092724609375,0.06696984194517135,-0.16455109525322914,-0.1407318282485008
1733851534147896000,5.16089599609375,0.28958295780569315,0.019155074585974215,-0.03501286119222641
1733851534157864200,5.1708642578125,0.3598413199022412,0.1815624358087778,0.09008709816038608
1733851534167832000,5.18083203125,0.29009090732783077,0.25999855140298606,0.18320611136257647
1733851534177801200,5.19080126953125,0.12560995470136405,0.2256868242174387,0.16646014374494553
1733851534187769000,5.20076904296875,-0.10133329931795597,0.15569938801676034,0.10463935512602329
1733851534197737200,5.2107373046875,-0.2692205532565713,0.07013765832632779,0.0722919137507677
1733851534207706000,5.2207060546875,-0.16023615466356275,-0.0021896189987659453,0.008060556858778
1733851534217674000,5.230674072265625,0.08980652765333652,-0.011054185716807842,-0.0021878654330968854
1733851534227643100,5.24064306640625,0.3535042258352041,0.026565643103420734,0.07604629784822464
1733851534237611000,5.250611083984375,0.4543257762387395,0.10398585965335369,0.10952478908002376
1733851534247579100,5.2605791015625,0.4058861549794674,0.15200813228338955,0.07513502822220325
1733851534257548000,5.270548095703125,0.255718389865756,0.1709466415092349,-0.03620470132529735
1733851534267516200,5.28051611328125,-0.13516951794624327,0.13904022189974785,-0.20763620374202726
1733851534277484300,5.290484375,-0.4048208638355136,0.02864800233542919,-0.3870663036972284
1733851534287453200,5.300453125,-0.4173047900944948,-0.08910802399516105,-0.49462768374979493
1733851534297421300,5.31042138671875,-0.13449147255420685,-0.13034253618121147,-0.4782558101415634
1733851534307389000,5.320388916015625,0.2660503987878561,-0.07250526424050331,-0.38011516938507556
1733851534317358000,5.330358154296875,0.6124640818402171,0.056285366323590276,-0.1651543218433857
1733851534327326000,5.340325927734375,0.7935334734350442,0.2431225276648998,0.07794833207726479
1733851534337295000,5.350295166015625,0.7815650954827665,0.4281818656787276,0.31552199344336984
1733851534347263000,5.360262939453125,0.6410095005840063,0.4415089647635817,0.39661037711203095
1733851534357231000,5.370231201171875,0.3963274685174227,0.3216267400592565,0.3455962291896343
1733851534367200300,5.3802001953125,0.17906155890375375,0.12940759341865776,0.21092121676206588
1733851534377168100,5.390168212890625,0.08746844009459018,-0.11333879441022872,0.011121697995066642
1733851534387136300,5.40013623046875,0.08890168776810169,-0.2601996269330382,-0.05875847843885421
1733851534397105200,5.410105224609375,0.1845287382684648,-0.2513666243970394,-0.09028525108098984
1733851534407073000,5.420072998046875,0.2946072157084942,-0.13261194241791963,-0.10300327835679053
1733851534417042000,5.4300419921875,0.36464199818223714,0.04744330369830131,-0.06821545809209346
1733851534427010000,5.440010009765625,0.387562124390155,0.2046855372428894,-0.08411328444778919
1733851534436978200,5.449978271484375,0.2609020761139691,0.24788842689245938,-0.11989303835928439
1733851534446947000,5.459947021484375,-0.10694120232760905,0.22449352277964352,-0.11619944453835487
1733851534456915200,5.469915283203125,-0.5690159852579235,0.1419312671661377,-0.23039397899508474
1733851534466883000,5.479883056640625,-0.8056091111540794,0.02323562189787626,-0.4599374786406755
1733851534476852200,5.489852294921875,-0.6259504631400108,-0.14140256711691618,-0.6664344492197036
1733851534486820000,5.499820068359375,-0.3873383986368775,-0.26574030992537734,-0.6278916603356599
1733851534496789200,5.509789306640625,-0.23669001039937138,-0.31380203778296706,-0.4059580511718988
1733851534506757000,5.519757080078125,-0.07223872225880622,-0.3289168970674276,-0.15833119782507418
1733851534516725000,5.52972509765625,0.2534710493303835,-0.3105152711972594,0.003111410018801689
1733851534526694100,5.539694091796875,0.6437621602930128,-0.23434593149125574,0.12305121012926101
1733851534536662000,5.549662109375,0.8738200392015277,-0.08356237256675958,0.24945465329587457
1733851534546630100,5.559630126953125,0.7943794227398931,0.09886106398552656,0.3239811942309141
1733851534556599000,5.56959912109375,0.4892313776642084,0.17623364200145006,0.3370113561958074
1733851534566567200,5.579567138671875,0.15604381754025817,0.13229016311764716,0.26482290281951426
1733851534576535300,5.589535400390625,-0.04188683861494064,-0.0024906477719545362,0.1534901875346899
1733851534586504200,5.599504150390625,-0.04954159115180373,-0.15517010344564913,0.011384148323535919
1733851534596472000,5.60947216796875,0.061387073376774785,-0.2551625095486641,-0.09238777631819248
1733851534606441000,5.61944091796875,0.2240869878053665,-0.2615536718904972,-0.1471814427793026
1733851534616409000,5.6294091796875,0.2742652694255113,-0.1720639551013708,-0.21347557741999626
1733851534626377200,5.639377197265625,0.18282456469908356,-0.05570113669484853,-0.2739531347364187
1733851534636346000,5.64934619140625,-0.05263575777485966,0.008571721251308917,-0.36030046184659004
1733851534646314200,5.659314208984375,-0.21509178044497965,-0.0009562778115272521,-0.5039624983280897
1733851534656282000,5.6692822265625,-0.34992987447977064,-0.01757803452759981,-0.5915665475010872
1733851534666251300,5.679251220703125,-0.4484520618997514,-0.02758271119147539,-0.4628191715568304
1733851534676219100,5.68921923828125,-0.3137156746737659,-0.048614977826178074,-0.18219255040585994
1733851534686188300,5.699188232421875,-0.09035714727342128,-0.057174716378748415,-0.11107786374092102
1733851534696156000,5.709156005859375,0.061129445353895424,-0.021124913354218004,-0.20979250499308108
1733851534706124000,5.7191240234375,0.26782676081061363,-0.03995616281330585,-0.3749322137892246
1733851534716093200,5.72909326171875,0.5035549404405057,-0.05705576617419719,-0.4266986413836479
1733851534726061000,5.73906103515625,0.6199684661209582,0.023145313265919683,-0.19653204140365121
1733851534736029200,5.749029296875,0.6152065124161541,0.12704144880920648,0.09682020580768584
1733851534745998000,5.758998046875,0.6085562607467174,0.1943891841560602,0.3185352037847042
1733851534755966200,5.76896630859375,0.5552314977943897,0.2356377248674631,0.3616349253207445
1733851534765935000,5.77893505859375,0.4308339876227081,0.25243688397705555,0.31664485999345776
1733851534775903200,5.7889033203125,0.2004185274481773,0.24601357293128967,0.1457780057221651
1733851534785871000,5.79887109375,0.04629764079451561,0.198403095972538,-0.1098234797656536
1733851534795840000,5.808840087890625,0.03759454824849963,0.14508096336871384,-0.3671417060434818
1733851534805808000,5.81880810546875,0.050195378885418175,0.16197656859010456,-0.542142299118638
1733851534815776000,5.82877587890625,0.07126330135539173,0.20952771657705305,-0.5678858121842145
1733851534825745200,5.8387451171875,0.1174013676740229,0.20090894131362438,-0.5096896438032389
1733851534835713000,5.848713134765625,0.21524624035432932,0.14602701204717158,-0.44433951201438904
1733851534845681200,5.85868115234375,0.34287644883692264,0.09514847320318222,-0.3361883493751287
1733851534855650300,5.868650390625,0.4470663066297769,0.08476677992045879,-0.1472322961837053
1733851534865618200,5.8786181640625,0.4405244837708771,0.11791443176269531,0.030213351956009864
1733851534875587300,5.88858740234375,0.35647374316528435,0.2130371860027313,0.16484569428563117
1733851534885555000,5.898554931640625,0.21024331750050185,0.25479221493154763,0.20395196227133272
1733851534895523000,5.908523193359375,0.08351473403275013,0.26972996408343314,0.16452888342142105
1733851534905492000,5.918491943359375,0.047210663986206054,0.2609244340762496,0.06132160692512989
1733851534915460000,5.928460205078125,0.03720423375666141,0.2158244786337018,-0.09198562525808811
1733851534925428200,5.93842822265625,0.025901918497681618,0.12412146970927715,-0.29046880072951314
1733851534935397000,5.948397216796875,0.12220891408622264,0.025009353572130202,-0.4739332707673311
1733851534945365200,5.958365234375,0.3093241617165506,-0.039702480313181875,-0.5406938538759947
1733851534955334100,5.968334228515625,0.3745668876081705,0.035846097145974636,-0.4359177206277847
1733851534965302300,5.97830224609375,0.2899174504570663,0.1426665957033634,-0.20385200902819633
1733851534975270100,5.988270263671875,0.21191548849642275,0.2467220134615898,-0.005610825619101524
1733851534985239000,5.998239013671875,0.17696400210261343,0.26788112134635444,0.11992635610699653
1733851534995207200,6.008207275390625,0.13656141069605945,0.23895196398198604,0.17222645218670368
1733851535005175000,6.018175048828125,0.07776362316012382,0.1876598759010434,0.20999065791368482
1733851535015144200,6.028144287109375,0.027874095353484153,0.17147914095073938,0.2180605671226978
1733851535025112000,6.038112060546875,-0.002301262679696083,0.17213848164230583,0.18570377339720726
1733851535035081200,6.048081298828125,0.011848843225836753,0.1423816412821412,0.13879413818418979
1733851535045049000,6.058049072265625,0.08325827505365013,0.06681903529763221,0.046292964619398115
1733851535055017200,6.068017333984375,0.08949103196337818,-0.027249241453409193,-0.050716626280546184
1733851535064986000,6.077986083984375,0.08601604932919144,-0.08931845187544822,-0.14399755204617976
1733851535074954000,6.0879541015625,0.16970570153743028,-0.10611702646315097,-0.2108984204083681
1733851535084922000,6.097922119140625,0.3034329117208719,-0.07352145554572344,-0.2112462109327316
1733851535094891000,6.10789111328125,0.4162120264217257,-0.06817512608170509,-0.10903145260512828
1733851535104859100,6.117859130859375,0.4377696321047842,-0.09576163666546345,0.007810381489992141
1733851535114827300,6.1278271484375,0.34251258396059275,-0.12218056477457284,0.0610422054618597
1733851535124796200,6.137796142578125,0.17809695165529846,-0.14324673367887736,0.04025602254271507
1733851535134764300,6.147764404296875,-0.05907587382495403,-0.17792758643776177,-0.023047698110342026
1733851535144733200,6.157733154296875,-0.2286971119493246,-0.2100114084407687,-0.13528349971473216
1733851535154701300,6.167701416015625,-0.34423692353516816,-0.2359413839891553,-0.22605098135471344
1733851535164669200,6.177669189453125,-0.3603103987187147,-0.23600334330946204,-0.2308978368639946
1733851535174638300,6.187638427734375,-0.31716318477913735,-0.18670476713329553,-0.13564824137389658
1733851535184606000,6.19760595703125,-0.24372502360269427,-0.1330012339964509,-0.019864976420998572
1733851535194574000,6.207573974609375,-0.13300503338873385,-0.06493921290040015,0.0565454785645008
1733851535204543200,6.217543212890625,-0.06228314543366432,0.03288169438242912,0.14765841264128685
1733851535214511000,6.227510986328125,-0.040837037301063535,0.11124825187176465,0.23492110103070735
1733851535224480300,6.237480224609375,-0.1140367135465145,0.14449351886957884,0.25697335836291313
1733851535234448100,6.2474482421875,-0.15016425798237323,0.11319441750347614,0.2031827314645052
1733851535244416300,6.257416259765625,-0.14608341840952635,0.04192833966910839,0.14718728799819947
1733851535254385200,6.26738525390625,-0.08994827421158552,-0.05351268673986196,0.13473463366031646
1733851535264353300,6.277353271484375,-0.09700608376860619,-0.11312748974710703,0.1348117905497551
1733851535274321200,6.287321044921875,-0.1697761364251375,-0.08481383393257856,0.14523556940853594
1733851535284290000,6.2972900390625,-0.16605799268484114,-0.024637597650289535,0.12352934903502463
1733851535294258200,6.307258056640625,-0.08644874165803193,0.03658522507548332,0.056257893794775006
1733851535304227000,6.31722705078125,-0.08490180447697639,0.07576368151456117,0.0011813187390565872
1733851535314195200,6.3271953125,-0.1598983010113239,0.08072451879233121,-0.011182488271594047
1733851535324163000,6.3371630859375,-0.16606588373035192,0.07509089681953192,-0.031055063477158546
1733851535334132200,6.34713232421875,-0.0914238997220993,0.08799187944680452,-0.051451370295882225
1733851535344100400,6.357100341796875,-0.046999651584029196,0.08156915292292832,-0.03930325186252594
1733851535354068200,6.367068115234375,-0.013685849394649266,0.06375087989866733,0.001713233658671379
1733851535364037400,6.377037353515625,-0.0022176760494709014,0.09722411043345927,0.034655133795738216
1733851535374005000,6.3870048828125,0.051498716568946834,0.21163608703315256,0.0936368995964527
1733851535383974100,6.39697412109375,0.09237199422717093,0.31324703424870964,0.16022738683521748
1733851535393942000,6.40694189453125,0.11654226662665605,0.33805180515944955,0.21517828968465327
1733851535403910100,6.41691015625,0.07749781183078884,0.27073651077747346,0.20087036286890506
1733851535413879000,6.426879150390625,-0.0006936813525855541,0.16749065583646297,0.07936521313786506
1733851535423847200,6.43684716796875,-0.10676000054180622,0.06449848339557647,-0.04682897119224071
1733851535433815300,6.446815185546875,-0.12399331328496337,-0.03804857562631368,-0.12982464978694916
1733851535443784200,6.4567841796875,-0.03572363981008529,-0.07979454446583986,-0.1529495047867298
1733851535453752300,6.46675244140625,0.020810732838511467,-0.03188976073563099,-0.09763912097513675
1733851535463721200,6.47672119140625,0.0198212834097445,0.04091740906089544,-0.0037590602725744247
1733851535473689000,6.486689208984375,0.00410392818748951,0.11307020660191773,0.06577624824643134
1733851535483657200,6.4966572265625,0.025978052473813292,0.16997575065046547,0.0738520026743412
1733851535493626000,6.506626220703125,0.09169760209694504,0.19787585722804069,0.10444412481486796
1733851535503594200,6.51659423828125,0.15854250248819587,0.19937164874374866,0.08875964894890785
1733851535513562000,6.52656201171875,0.18823066152632234,0.1621960565596819,0.019311434191465377
1733851535523531300,6.53653125,0.19450331205502153,0.018731588476896283,0.021202947026491163
1733851535533499100,6.5464990234375,0.18273454832807182,-0.09153203627169132,0.10505904184281825
1733851535543468300,6.55646826171875,0.19730828647315501,-0.13476356749385596,0.2694447174012661
1733851535553436200,6.566436279296875,0.1770792990453541,-0.072779989528656,0.40464579952955243
1733851535563404000,6.576404052734375,0.0851246534474194,-0.035276480564475056,0.4376607649028301
1733851535573373200,6.586373291015625,-0.09593976971134544,-0.08318214107751846,0.5662555806338787
1733851535583341000,6.596341064453125,-0.31063772853314875,-0.18401859678924082,0.7317091776847839
1733851535593309200,6.60630908203125,-0.3647632864743471,-0.34272184279710055,0.736858231011033
1733851535603278000,6.616278076171875,-0.16015490612089633,-0.5185919121831655,0.5649392373383045
1733851535613246200,6.62624609375,0.2383954991430044,-0.6585238222256302,0.08205050669908523
1733851535623214300,6.63621435546875,0.7094523376911878,-0.7116670911312103,-0.6697083563238382
1733851535633183200,6.646183349609375,1.0917720313832162,-0.5841279219329357,-1.276259122467041
1733851535643151000,6.656151123046875,1.1625132085606456,-0.33780659822672604,-1.3896417560189962
1733851535653120300,6.666120361328125,0.8808972841113806,-0.0750806676864624,-0.9447796814352274
1733851535663088000,6.676088134765625,0.4241024874106049,0.1250359542056918,-0.3835679401874542
1733851535673056000,6.686055908203125,0.14830518611222504,0.28515169735997914,-0.02496492990851402
1733851535683025200,6.696025146484375,0.13581950628757475,0.3839078396663069,0.13310498663187026
1733851535692993300,6.7059931640625,0.27953093486875297,0.41712358830869195,0.15645195994973182
1733851535702961200,6.715961181640625,0.46927404678463935,0.3666185589522123,0.05106090967357158
1733851535712930300,6.725930419921875,0.6008519699797034,0.2896387796461582,-0.12923019102513789
1733851535722898200,6.735898193359375,0.6333537251338363,0.1275613810300827,-0.2719762817054987
1733851535732867300,6.745867431640625,0.5899100124657154,-0.033898177948594094,-0.39942894166409965
1733851535742835000,6.7558349609375,0.5025625684022903,-0.0782853089466691,-0.5297165327876806
1733851535752803000,6.765802978515625,0.32179858949482437,-0.007958265528082847,-0.5855868885695934
1733851535762772000,6.77577197265625,0.03528115673959255,0.17201543978452682,-0.5202279889523983
1733851535772740000,6.785739990234375,-0.19997531372532248,0.3672334759801626,-0.3554448385089636
1733851535782708200,6.795708251953125,-0.32610826938748355,0.41599867593199014,-0.17403847004473208
1733851535792677000,6.805677001953125,-0.29187165326476094,0.32031594972163435,0.032521044376492496
1733851535802645200,6.815645263671875,-0.09657689857110381,0.17717326093912122,0.14641922623515127
1733851535812614100,6.8256142578125,0.19923779323101043,0.019082593871653078,0.13784545915722846
1733851535822582300,6.835582275390625,0.5281050059378147,-0.08484159872233867,-0.00353051221370697
1733851535832550100,6.845550048828125,0.7098746547564864,-0.12451090741828083,-0.20743279012441634
1733851535842519000,6.85551904296875,0.7844511723130941,-0.10145327243581413,-0.34617841299176216
1733851535852487200,6.865487060546875,0.7135930907577276,-0.03935395913645625,-0.32316870880424975
1733851535862455000,6.875455078125,0.5401327128618956,-0.008295242397487163,-0.17819208259284494
1733851535872424200,6.885424072265625,0.2578144853621721,0.025833237175643443,0.02532616443634033
1733851535882392000,6.89539208984375,-0.06968816099315882,0.06039513972997665,0.21353987482786177
1733851535892361200,6.905361328125,-0.28401626358926296,0.07798910247907043,0.35054712959527967
1733851535902329000,6.9153291015625,-0.4270119451165199,0.04683467028066516,0.3621779461562633
1733851535912297200,6.925297119140625,-0.5215384870290756,-0.01719634173363447,0.24023148239850997
1733851535922266400,6.935266357421875,-0.5179968688994646,-0.07997793820872902,0.07278349665999412
1733851535932234000,6.94523388671875,-0.4516472046792507,-0.16809417468756435,-0.04458440713584423
1733851535942202000,6.9552021484375,-0.3369768694043159,-0.2808383642055094,-0.15537760871648787
1733851535952171000,6.9651708984375,-0.19127046761363745,-0.3869219267904758,-0.21592823126912117
1733851535962139100,6.97513916015625,0.01252864218354225,-0.40848172443062064,-0.18789514596164225
1733851535972108000,6.98510791015625,0.20079262145757673,-0.4110654573135078,-0.1086912608653307
1733851535982076200,6.995076171875,0.35015228505879636,-0.4049079575970769,-0.03964344360232353
1733851535992044300,7.005044189453125,0.3846063433244824,-0.3942341494999826,-0.02330488774180412
1733851536002013200,7.01501318359375,0.3164046214967966,-0.4046319171346724,-0.030259529185295102
1733851536011981300,7.024981201171875,0.20502017602473496,-0.3262845027372241,-0.056017070776224136
1733851536021949000,7.034948974609375,0.07060176870673894,-0.2090694514155388,-0.0930839418888092
1733851536031918000,7.04491796875,-0.04603957438021898,-0.07026756831631065,-0.12521861729621886
1733851536041886200,7.05488623046875,-0.07268705054819584,0.056496378725767134,-0.12325053209364413
1733851536051854000,7.06485400390625,-0.03622895898371935,0.1213883914835751,-0.11929799507558345
1733851536061823200,7.0748232421875,-0.006526771420240402,0.14795198876038193,-0.07367781515121459
1733851536071791000,7.084791015625,0.04386544521152973,0.11451368340849875,0.011509820529818535
1733851536081760300,7.09476025390625,0.09296586846709251,0.04439736013114452,0.13734920007288456
1733851536091728100,7.10472802734375,0.1015320367604494,-0.03369827146232128,0.21831424962282178
1733851536101696000,7.114696044921875,0.07641863829195499,-0.1379341603539884,0.17358780366778373
1733851536111665000,7.124664794921875,0.0500625462859869,-0.22765315585434434,0.07524433381557465
1733851536121633000,7.134633056640625,0.011604805336892603,-0.29743016417473556,-0.02125146234333515
1733851536131601200,7.14460107421875,-0.019147183540463446,-0.2985911707781255,-0.07667056722640991
1733851536141570000,7.154570068359375,-0.018097382226586342,-0.2555314889915287,-0.13155308101475238
1733851536151538200,7.1645380859375,0.05545476071834564,-0.16493687970042228,-0.17590017226338386
1733851536161507000,7.174507080078125,0.11340455312281847,-0.07776537672579288,-0.14622867209911344
1733851536171475200,7.18447509765625,0.11293752013295888,-0.024228286197036503,-0.11576865190565586
1733851536181443300,7.194443359375,0.051637832778692244,0.02053250041902065,-0.06438040997385978
1733851536191412200,7.204412109375,-0.09271920022964476,0.0030802842281758783,0.026377719315886495
1733851536201380000,7.214380126953125,-0.2868371662288904,-0.07020341703891754,0.0578179827183485
1733851536211348000,7.224347900390625,-0.43917935277223585,-0.15367548097372055,0.061147419402003286
1733851536221317000,7.234317138671875,-0.520532524856925,-0.1945667326800525,0.04468786751031875
1733851536231285000,7.244284912109375,-0.5353787963330745,-0.15607260524332522,0.04488017521202564
1733851536241254100,7.254254150390625,-0.367029477840662,-0.11260463491678237,0.04857143094539642
1733851536251222000,7.264221923828125,-0.06270166310667992,-0.039786651465296745,0.038143560433387756
1733851536261190100,7.274190185546875,0.2251394194677472,0.04771554476842284,0.1121416935801506
1733851536271159300,7.2841591796875,0.3721276777625084,0.07610942621231079,0.18274667715728282
1733851536281127200,7.294127197265625,0.3835504045307636,0.07813055677637458,0.21241291662454603
1733851536291095000,7.304094970703125,0.17832710714936256,0.05750292541980743,0.19179098435640335
1733851536301064000,7.31406396484375,-0.133195003002882,0.004186053512990474,0.1596113007634878
1733851536311032000,7.324031982421875,-0.49270636029839515,-0.06968114673048258,0.06062427231073379
1733851536321001000,7.3340009765625,-0.5819286583229899,-0.10590294532105327,-0.08275660914182663
1733851536330969000,7.343968994140625,-0.3107788905695081,-0.08751943962946533,-0.10919804134368896
1733851536340937200,7.353937255859375,0.16595920848548412,-0.07253463646546006,-0.12104630004763603
1733851536350906000,7.363906005859375,0.5765843746855854,-0.040542146007716655,-0.07768354366123675
1733851536360874200,7.373874267578125,0.7926371091172099,-0.03188625360429287,-0.038292028993368143
1733851536370842000,7.383842041015625,0.8091524828493595,-0.022132482961565256,-0.05867080015540123
1733851536380811300,7.393811279296875,0.6000836159557104,0.01576353245154023,-0.08909984068870544
1733851536390779100,7.403779052734375,0.1743073501139879,0.08179068671911954,-0.11026245570480823
1733851536400748000,7.413748046875,-0.3001896920159459,0.1273832479842007,-0.11065817702412604
1733851536410716200,7.423716064453125,-0.6253557121172547,0.16060411119312046,-0.12137012517452239
1733851536420684000,7.43368408203125,-0.7085209020599722,0.2447499827362597,-0.2106757175683975
1733851536430653200,7.443653076171875,-0.5801704164788126,0.29978783321678637,-0.2763157722145319
1733851536440621000,7.45362109375,-0.18049568336009977,0.2929331450164318,-0.13304828800857066
1733851536450589200,7.463589111328125,0.26309710194021463,0.25726167378500103,0.11799217317402362
1733851536460558000,7.47355810546875,0.5586807614654302,0.21865648718923328,0.3019932343065739
1733851536470526200,7.483526123046875,0.5906687218785286,0.20193010105490683,0.36047932554483414
1733851536480495000,7.4934951171875,0.4468272371768951,0.20740181046426295,0.2903875521868467
1733851536490463000,7.503462890625,0.22031565257310867,0.2205386476740241,0.1440484054505825
1733851536500431000,7.51343115234375,0.04759674069434404,0.22972353238761423,-0.02339607315659523
1733851536510400000,7.52339990234375,-0.019472762233018873,0.2262412432298064,-0.1688654513210058
1733851536520368000,7.5333681640625,-0.013328268128633499,0.21190584388524292,-0.21804946120679378
1733851536530336300,7.543336181640625,-0.02847059994190931,0.19764014877602457,-0.21945757443904876
1733851536540305200,7.55330517578125,-0.08507248486876487,0.17618790316358207,-0.19332476979494093
1733851536550273300,7.563273193359375,-0.20117256068587303,0.10485475144237279,-0.13761048135757445
1733851536560242200,7.5732421875,-0.31638562453538177,0.006472995406389236,-0.058878305426239966
1733851536570210300,7.583210205078125,-0.34393443345725533,-0.02554346044883132,-0.0715951636582613
1733851536580178000,7.593177978515625,-0.2811705187693238,-0.020090894131362436,-0.06834113029837607
1733851536590147000,7.60314697265625,-0.1279103405982256,-0.011221505107730626,-0.002359130346775055
1733851536600115000,7.613114990234375,-0.0024424247160553933,0.0007353285372257233,0.07829729164540768
1733851536610083000,7.6230830078125,0.08680179287940264,0.01136471297070384,0.13247136490345002
1733851536620052200,7.63305224609375,0.206146549706161,0.041770372628420586,0.18797697902619837
1733851536630020000,7.64302001953125,0.21055062988400458,0.10139321281164884,0.2670253812998533
1733851536639989200,7.6529892578125,0.1290735391587019,0.1564943377867341,0.2910287726998329
1733851536649957000,7.66295703125,-0.007011047805845737,0.15248466375395656,0.27093641726374623
1733851536659925200,7.67292529296875,-0.1337844933286309,0.1366696933761239,0.21270985374450682
1733851536669894100,7.68289404296875,-0.1921452046215534,0.13529212141260505,0.12824760972857474
1733851536679862000,7.692862060546875,-0.2219873851776123,0.1277495970785618,0.061065001815557476
1733851536689830100,7.702830078125,-0.1958653941884637,0.14311930790692567,0.009738134682178497
1733851536699799000,7.712799072265625,-0.16777502573579547,0.15608473407253623,0.003503624206781387
1733851536709767200,7.72276708984375,-0.14366320552527903,0.14479673959985376,0.06048164896965026
1733851536719736000,7.732736083984375,-0.1470458337008953,0.07708747746422887,0.12677052291333674
1733851536729704200,7.7427041015625,-0.07778963438421488,0.004556201999634504,0.13594225588440895
1733851536739672000,7.752672119140625,0.06072656364142894,-0.03476180904060602,0.03789630767405033
1733851536749641200,7.76264111328125,0.24358663804531097,-0.06830284411460161,-0.08684650880396366
1733851536759609300,7.772609375,0.42813422714471816,-0.10462211173027754,-0.09970832846462727
1733851536769577000,7.782576904296875,0.4527759164482355,-0.10561156115904449,-0.0869143133431673
1733851536779546000,7.792546142578125,0.38874592734724284,-0.058685705463588235,-0.09885083485245703
1733851536789514000,7.802513916015625,0.28964696295261383,-0.012146072606742381,-0.1433212602198124
1733851536799483100,7.812483154296875,0.1142068094164133,0.0610367986343801,-0.14934417377114295
1733851536809451000,7.822450927734375,-0.18075930273234844,0.13118629352897404,-0.13558102135658262
1733851536819419100,7.832419189453125,-0.3053992433577776,0.16660992747917772,-0.10716565873324871
1733851536829388000,7.842387939453125,-0.18500760782659054,0.18541297375708818,-0.056548985695838924
1733851536839356200,7.852356201171875,0.0014677344650030136,0.14309300442188977,-0.04551555050611496
1733851536849324300,7.86232421875,0.08236468721479177,0.09754822782129048,0.005957447099685669
1733851536859293200,7.872293212890625,0.2133814693957567,0.05617883720919489,0.06277122121155261
1733851536869261000,7.882260986328125,0.323235344299674,0.009426438384503126,0.10070786089599132
1733851536879230000,7.89222998046875,0.30399814438819883,-0.0075523150756955145,0.11559154177308081
1733851536889198000,7.902197998046875,0.1618356988146901,0.013064941017329692,0.09988426955342292
1733851536899166200,7.912166259765625,0.0014846855998039245,0.04524009456560015,0.059876084291934965
1733851536909135000,7.922135009765625,-0.19863982733786104,0.07908084323853254,0.02668985400497913
1733851536919103200,7.932103271484375,-0.3449503325015306,0.07808964024409651,-0.02279693821966648
1733851536929071000,7.942071044921875,-0.3486334049284458,0.054936874324083326,0.015406827968358993
1733851536939040300,7.952040283203125,-0.3102957832276821,0.032346126201003786,0.1316653092175722
1733851536949008100,7.962008056640625,-0.16475976956784724,-0.021784692437201738,0.11585691471099853
1733851536958977300,7.971977294921875,-0.06147767426967621,-0.0561383590683341,0.13906710990667343
1733851536968945200,7.981945068359375,-0.047776481175422665,-0.033810791926085944,0.22212416329979895
1733851536978913000,7.9919130859375,0.03707768476754427,-0.04876344638615846,0.27163316735625265
1733851536988882200,8.001882080078126,0.3180199477389455,-0.08643675895929336,0.19442250190377233
1733851536998850000,8.01185009765625,0.6854664819478988,-0.07670943793207406,0.04738835864067077
1733851537008818200,8.021818115234375,0.6468962205350398,-0.05109466581270099,-0.10464695391058922
1733851537018787000,8.031787109375,0.287363820451498,-0.042406186313927174,-0.2525122873008251
1733851537028755200,8.041755126953126,0.10364216078221797,-0.07938800949156284,-0.35662498820424077
1733851537038724000,8.05172412109375,0.14207681311666964,-0.11766703287288546,-0.3887345291703939
1733851537048692200,8.061692138671875,0.04684475328326225,-0.050896805153042075,-0.40330724440217014
1733851537058660000,8.07166015625,-0.18995880049318073,0.041809973986446855,-0.3984083664447069
1733851537068629000,8.08162890625,-0.30032822370380163,0.12356178999990224,-0.3285059781789779
1733851537078597000,8.09159716796875,-0.25660715539902446,0.16511311305016277,-0.16752105097472667
1733851537088565000,8.10156494140625,-0.12332681220024823,0.1935810826435685,-0.07601005749106407
1733851537098533400,8.111533447265625,0.08864040648341179,0.17837109242156146,-0.08210720532238483
1733851537108501500,8.12150146484375,0.20899346356987952,0.14376462007313967,-0.09734919811785221
1733851537118470400,8.131470458984374,0.3054620794609189,0.1317949269466102,-0.06867723038494586
1733851537128438500,8.1414384765625,0.34395664528906345,0.11872501749321818,0.025601474246382712
1733851537138406400,8.151406494140625,0.28404665872752666,0.12905410380586982,0.10434592513740062
1733851537148375600,8.16137548828125,0.24062983406633137,0.1493573255136609,0.16562310839891434
1733851537158343700,8.17134375,0.08949556200802326,0.17293533110842108,0.21749708802103995
1733851537168311600,8.1813115234375,-0.105344873046875,0.21140344732105731,0.2521387778133154
1733851537178280700,8.19128076171875,-0.26092355729341504,0.23646716142892837,0.20558219382166862
1733851537188248300,8.201248291015625,-0.2971481323629617,0.20160963692888617,0.15483400335907935
1733851537198217500,8.211217529296874,-0.2522469143629074,0.12548092149421572,0.10550269395709037
1733851537208185300,8.221185302734375,-0.07635024923086166,0.042208471784740687,0.03848433669507503
1733851537218153500,8.231153564453125,0.12985913657844067,-0.01941094904318452,0.0043932665228843685
1733851537228122400,8.241122314453126,0.2266495317697525,-0.03600011866390705,-0.04795826748311519
1733851537238090500,8.251090576171874,0.26081483622193335,-0.024352789359539745,-0.10454524710178374
1733851537248058600,8.26105859375,0.23244711213260888,-0.005352320813387632,-0.16911913382112978
1733851537258027500,8.271027587890625,0.14028116187155246,0.011026713187992572,-0.19782851095497608
1733851537267995600,8.28099560546875,0.009002806144952774,0.05821078142821789,-0.1826215894728899
1733851537277964500,8.290964599609374,-0.1179042026296258,0.13146730242744087,-0.21600597268044947
1733851537287932400,8.300932373046875,-0.11829057159870862,0.15939283570721743,-0.18823767578899858
1733851537297900500,8.310900634765625,-0.08085019099861383,0.15529036882445216,-0.112525139939785
1733851537307869400,8.320869384765626,-0.015055530312657356,0.13269319096058607,-0.10618190839290619
1733851537317837600,8.330837646484374,0.09876578691750765,0.10621113448739052,-0.07924597067236899
1733851537327805400,8.340805419921875,0.20331337210685013,0.059058630429208274,-0.04944236856102943
1733851537337774600,8.350774658203125,0.3252387930765748,-0.02485299396663904,-0.012331073784828185
1733851537347742500,8.360742431640626,0.4454889743104577,-0.08830795965865254,-0.03858662802577018
1733851537357711600,8.370711669921874,0.4487359934076667,-0.16744988543465733,-0.068671385166049
1733851537367679500,8.380679443359375,0.28159283583462236,-0.19457287015989422,-0.08462181849181652
1733851537377647400,8.3906474609375,0.15443711299598217,-0.16275193687677383,-0.1387245800793171
1733851537387616500,8.400616455078126,0.06287205123752355,-0.08914733309224247,-0.09218903887569904
1733851537397584400,8.41058447265625,-0.061547816896438595,-0.013139175297319889,-0.04754442598521709
1733851537407552500,8.420552490234375,-0.08353636134266852,0.06763225137665868,-0.03624094168245792
1733851537417521400,8.430521484375,0.035198739153146745,0.10266294048652053,-0.041511575561761854
1733851537427489500,8.440489501953126,0.13734510841965675,0.1286171736933291,-0.030679800423979758
1733851537437458400,8.45045849609375,0.17581132493615148,0.12034487378001213,-0.03813011642992496
1733851537447426600,8.460426513671875,0.17431114950627088,0.09215250625759362,-0.053201428833603855
1733851537457394700,8.470394775390625,0.12207856570482253,0.0731776105441153,-0.06536825196743011
1733851537467363600,8.480363525390626,0.1336149819806218,0.034411388167738914,-0.06284545549154281
1733851537477331500,8.49033154296875,0.1591191333323717,-0.03403554059267044,-0.0538093315988779
1733851537487299300,8.50029931640625,0.15887421866059304,-0.08183467199131846,-0.07884265056848526
1733851537497268500,8.5102685546875,0.1802110211998224,-0.07352759302556515,-0.11934943300187587
1733851537507236600,8.520236572265626,0.19207623103857038,-0.007029167984426021,-0.14566986917257307
1733851537517205500,8.53020556640625,0.1466191327214241,0.09716142046079039,-0.13528700684607028
1733851537527173600,8.540173583984375,0.11222118855714798,0.18417349509000777,-0.10278466717004775
1733851537537141500,8.5501416015625,0.16148410889804363,0.2605857036411762,-0.04654840068519115
1733851537547110700,8.560110595703126,0.15737492001354694,0.2892369208469987,-0.01225157880783081
1733851537557078500,8.57007861328125,0.09271627762019634,0.2666870892561972,-0.02872808183431625
1733851537567046400,8.58004638671875,0.00149316116720438,0.20112419149950145,-0.11745850468873976
1733851537577015300,8.590015380859375,0.008806991311907767,0.08449220076277851,-0.196741300240159
1733851537586983400,8.5999833984375,0.10046879144310951,-0.02697173968628049,-0.24112112471461294
1733851537596952300,8.609952392578125,0.25539865639209747,-0.10004106755033135,-0.27361995725929733
1733851537606920400,8.61992041015625,0.3000017682284117,-0.10481924173757433,-0.23918285012841223
1733851537616888600,8.629888671875,0.2841898665904999,-0.054201838047802445,-0.2029810714125633
1733851537626857500,8.639857421875,0.3590694587469101,0.026275427985191342,-0.15959259606301784
1733851537636825600,8.64982568359375,0.34580782611370087,0.14252368010133504,-0.13433832781910895
1733851537646793700,8.659793701171875,0.1800245587170124,0.24653803519681095,-0.08312076627910137
1733851537656762600,8.6697626953125,0.012496785740554331,0.3126009914301336,-0.048185646498203276
1733851537666730500,8.67973046875,-0.1469128549709916,0.31373218741714953,-0.09107026397883891
1733851537676699400,8.689699462890625,-0.1593310225173831,0.2215012090958655,-0.15870353826880454
1733851537686667500,8.69966748046875,-0.017815642675757408,0.11859627654701471,-0.20635493175983427
1733851537696635400,8.709635498046875,0.16220307082235813,0.04859817282184958,-0.2129156054496765
1733851537706604500,8.7196044921875,0.20206629465520382,0.02015416862592101,-0.1653098046660423
1733851537716572400,8.729572509765624,0.1280319211512804,0.021017653587460515,-0.15689035136699675
1733851537726540500,8.73954052734375,0.12669774993807076,0.02176262673586607,-0.18860592457950115
1733851537736509400,8.749509521484375,0.18356091614961623,0.03155541421473026,-0.19687223314344882
1733851537746477600,8.7594775390625,0.17317337764799595,0.05427826428487897,-0.22135785510241984
1733851537756446700,8.76944677734375,0.20912264290750027,0.0830474087819457,-0.22552257356643676
1733851537766414300,8.779414306640625,0.2503735217064619,0.08059227071478962,-0.18197393921911714
1733851537776382500,8.789382568359375,0.1473427708208561,0.09227803233340381,-0.1501256795376539
1733851537786351400,8.799351318359374,0.06415624582916497,0.1163522970125079,-0.1258838032066822
1733851537796319500,8.809319580078125,0.09041676850616931,0.13083689556941389,-0.10431845260858535
1733851537806287600,8.81928759765625,0.1020464160233736,0.10176379968971014,-0.08831307422518729
1733851537816256500,8.829256591796875,0.12079320206940174,0.07141352348104119,-0.042753100055456156
1733851537826224600,8.839224609375,0.12922843745946883,0.03591477846801281,-0.03260638457238674
1733851537836193500,8.849193603515625,0.09962678766101599,0.002368921088427305,-0.04511456848978996
1733851537846161700,8.85916162109375,0.152001702542603,-0.014657178644835948,-0.06178454826176166
1733851537856129300,8.86912939453125,0.22424685454219578,0.024521131663769482,-0.06018588089346885
1733851537866098400,8.879098388671874,0.29815351001322266,0.08663140474855899,-0.03978372885584831
1733851537876066600,8.889066650390625,0.3308732918322086,0.17992387482151387,-0.03650865270793438
1733851537886034400,8.899034423828125,0.2527969494611025,0.24781477713435887,-0.006153261932730674
1733851537896003600,8.909003662109376,0.1689253648146987,0.27478783199489115,-0.04289981504976749
1733851537905971500,8.918971435546876,0.2383300326913595,0.28756606502532955,-0.1272346332937479
1733851537915940600,8.928940673828125,0.34764088675975796,0.2739035965062678,-0.15071312403678894
1733851537925908500,8.938908447265625,0.46299628168940543,0.24353943790271876,-0.22092063272893428
1733851537935876600,8.948876708984375,0.4305500561147928,0.20979951925575732,-0.30863223392963407
1733851537945845500,8.958845458984374,0.09192892663478851,0.1392269766435027,-0.3878682677298784
1733851537955813400,8.9688134765625,-0.23031360723525285,-0.010081102900952101,-0.45556350134015083
1733851537965781500,8.978781494140625,-0.3809688636049628,-0.28896248781979084,-0.39352994675338265
1733851537975750400,8.98875048828125,-0.32600276318639515,-0.4981427061334252,-0.2698953837782144
1733851537985718500,8.998718505859374,-0.07122019286602735,-0.4936594232395291,-0.10381693282723427
1733851537995687400,9.0086875,0.04293956253826618,-0.343621714246273,0.10972294200062752
1733851538005655600,9.018655517578125,0.08380494915097951,-0.19601386274844407,0.2931587704658508
1733851538015623700,9.028623779296876,0.2192161668986082,-0.08600859667509794,0.36134441794157024
1733851538025592600,9.038592529296874,0.3308928733155131,-0.05095788769051432,0.3603852175205946
1733851538035560700,9.048560791015625,0.24407325251847503,-0.052769759418070314,0.35067572441101075
1733851538045528300,9.0585283203125,0.034039632245898246,-0.05536898213103413,0.24661095430254934
1733851538055497500,9.06849755859375,-0.13311492350399493,-0.009954700042307377,0.16410685861706734
1733851538065465300,9.07846533203125,-0.2664811914205551,0.06004077333435416,0.07312544196546077
1733851538075434500,9.0884345703125,-0.31645021420419217,0.12967939609736204,0.009489712879061698
1733851538085402400,9.09840234375,-0.22001023988574742,0.08459916826859117,-0.012207739666104316
1733851538095371000,9.10837109375,-0.12074994744956492,0.01631985116004944,0.012339841613173485
1733851538105340000,9.11833984375,-0.07966361156255006,-0.042655923291295764,0.06169745450019836
1733851538115308000,9.12830810546875,-0.04848842883706093,-0.07531710679084062,0.11041150878667831
1733851538125276200,9.138276123046875,0.006443769311904907,-0.07721987167224288,0.1312169809281826
1733851538135245000,9.1482451171875,0.0896329246520996,-0.0793992615379393,0.14980126988887785
1733851538145213000,9.158212890625,0.16867197457551955,-0.06504311166629195,0.15891221258342264
1733851538155181800,9.168181884765625,0.18424422223865985,-0.01660597462505102,0.1022118357181549
1733851538165150000,9.17814990234375,0.09391922366917133,0.05545768332779407,0.057982817891240115
1733851538175118000,9.1881181640625,0.0454003996938467,0.1138955515101552,0.03163958536684513
1733851538185087000,9.1980869140625,0.029355858343839643,0.162130590108037,0.00783610045313835
1733851538195055000,9.20805517578125,0.06497779134511947,0.20830182804390787,-0.02640928349792957
1733851538205023000,9.21802294921875,0.1280629008114338,0.2273179325506091,-0.055258945885300635
1733851538214992100,9.2279921875,0.1987251675337553,0.22340748110860584,-0.04754501050710678
1733851538224960000,9.2379599609375,0.17691197965443134,0.22297142777889967,-0.018307225584983825
1733851538234929200,9.24792919921875,0.07424713947176932,0.2100276289232075,-0.007874094375967979
1733851538244896800,9.257896728515625,0.12768471514880655,0.17138576357886195,-0.05540390731394291
1733851538254865000,9.267864990234376,0.27986849626004695,0.10145517213195562,-0.09984452206492424
1733851538264834000,9.277833984375,0.2658195126414299,0.0446422748029232,-0.20571195768117903
1733851538274802000,9.287802001953125,0.2800625575274229,-0.03608122107610106,-0.2576537418425083
1733851538284770000,9.29777001953125,0.28566286175251004,-0.08350742750912904,-0.22828093236386773
1733851538294739000,9.307739013671876,0.16345044053494928,-0.05874021212980151,-0.24118366855680942
1733851538304707000,9.31770703125,0.002673603123426437,-0.0024425708465278147,-0.2642664379805326
1733851538314676000,9.327676025390625,-0.10714929212033748,0.06239873463734984,-0.2811123588413
1733851538324644000,9.33764404296875,-0.1331996791779995,0.10399331230744718,-0.2157616425305605
1733851538334612000,9.347612060546876,-0.12677812169790267,0.13318725808784365,-0.10650690256357193
1733851538344580900,9.357580810546875,-0.11367664806246756,0.18606164692416785,0.018148235630989072
1733851538354549000,9.367549072265625,-0.13449614872932433,0.20952114070579408,0.11549568018317222
1733851538364516900,9.377516845703125,-0.12658435269147156,0.19557956298440693,0.1858966656208038
1733851538374486000,9.387486083984374,-0.09376374084651469,0.15753770935982464,0.23909634088873863
1733851538384454000,9.397453857421874,-0.14248071774244309,0.11857552601993084,0.26417817517518993
1733851538394423000,9.407423095703125,-0.2128115605533123,0.07010667866617441,0.23981822542250156
1733851538404391200,9.41739111328125,-0.2685106514215469,-0.02725070275813341,0.19153496376872062
1733851538414359000,9.427359130859376,-0.20757336763888595,-0.1364846921980381,0.18885902255773543
1733851538424328200,9.437328125,-0.13966624484360218,-0.1746906503431499,0.17616086902618408
1733851538434295800,9.4472958984375,-0.10416530787348746,-0.1735186839543283,0.15319675754606724
1733851538444264000,9.457263916015625,-0.12583294980227946,-0.127093617387861,0.1962579006373882
1733851538454232800,9.46723291015625,-0.11537000797688961,-0.08705313729196787,0.20576865630447863
1733851538464201000,9.477200927734375,-0.05721358708441257,-0.04283858638182282,0.15916823317110537
1733851538474169900,9.487169921875,-0.0073816346839070315,-0.01892842622324824,0.08662322144210338
1733851538484138000,9.497137939453125,0.04372165282666683,-0.016325842509418726,0.02617372117638588
1733851538494106000,9.507106201171876,0.04690437451601028,-0.03323401495143771,0.026988544690608976
1733851538504075000,9.517074951171875,0.01841594665646553,-0.03640256198495626,0.06307108094096184
1733851538514043100,9.527043212890625,-0.03918371713608503,-0.028666560905426738,0.0485462965041399
1733851538524011000,9.537010986328125,0.018859306509792804,0.006135580145567655,0.02106324629485607
1733851538533980000,9.54697998046875,0.12702303636968135,0.06549085543379188,0.02315291205048561
1733851538543948000,9.556947998046875,0.08080898220539093,0.1466832839988172,0.04838613750636577
1733851538553917000,9.5669169921875,-0.020291385139524935,0.21648674193471668,0.07364800453484058
1733851538563885000,9.576885009765626,-0.05739771147966385,0.2498031744726002,0.08152677508592605
1733851538573853000,9.58685302734375,-0.13331424546837806,0.26881796380504963,0.048986441487073894
1733851538583822000,9.596822021484375,-0.11441957538425922,0.2700786313906312,-0.002333411383628845
1733851538593790000,9.6067900390625,0.006472995406389236,0.2545475925207138,-0.004994739547371864
1733851538603758000,9.616758056640625,0.06383680461645126,0.23315321457535026,0.05457330170869827
1733851538613727000,9.62672705078125,0.026978023296594617,0.22493059902265666,0.06491232489347458
1733851538623694800,9.63669482421875,-0.0062432783037424085,0.21844225991666316,0.08015724029839039
1733851538633664000,9.6466640625,-0.07283844171762466,0.21909633991122243,0.1080459486991167
1733851538643631900,9.6566318359375,-0.18895634545236825,0.20018457256183028,0.14091186099052427
1733851538653600000,9.66660009765625,-0.3180620333150029,0.1866654580362141,0.16506138286292552
1733851538663569000,9.67656884765625,-0.3711725689947605,0.10282938309460878,0.1872007339566946
1733851538673537000,9.686537109375,-0.22392741332948207,-0.023483897570520638,0.19274024790525435
1733851538683505200,9.696505126953125,-0.011935352465510368,-0.1393403738901019,0.1328641636133194
1733851538693474000,9.70647412109375,0.04292845662236214,-0.23543942581638694,0.04884498718976974
1733851538703442200,9.716442138671875,-0.028306349290907383,-0.2662551275797188,0.013507131826877593
1733851538713411000,9.7264111328125,-0.09331599707901478,-0.19853329822346566,-0.011932429856061934
1733851538723379000,9.73637890625,-0.06599047551900147,-0.05956687221229076,0.016371289086341858
1733851538733346800,9.746346923828124,-0.11320376985371113,0.1096243039317429,0.05477788437008858
1733851538743316000,9.75631591796875,-0.1911196609660983,0.21911460622027515,0.09609130701124667
1733851538753284000,9.7662841796875,-0.21358575979620217,0.23868673717454075,0.10045008674263954
1733851538763252000,9.776251953125,-0.24385376454889773,0.1894615184955299,0.096805008238554
1733851538773221000,9.78622119140625,-0.3018471038341522,0.10526303998231887,0.08655892403423786
1733851538783189000,9.79618896484375,-0.26946342210173607,0.00600011719763279,0.08870470389127731
1733851538793158100,9.806158203125,-0.08277648288607597,-0.09097001847475766,0.12984043187797067
1733851538803126000,9.8161259765625,0.06455693558454513,-0.15243556391522287,0.16518354793787002
1733851538813094000,9.826093994140624,0.13383739255964755,-0.15980945368409155,0.17080664851665495
1733851538823062800,9.836062744140625,0.22212124069035052,-0.13984510854184626,0.1440051508307457
1733851538833031000,9.846031005859375,0.25689941634386776,-0.0635974429026246,0.09097498691082
1733851538842999800,9.855999755859376,0.1801549070984125,0.013506693435460328,0.00281856455206871
1733851538852968000,9.865968017578124,0.09303718013763428,0.11585589179769158,-0.08693418708741664
1733851538862936000,9.87593603515625,-0.024250059637427327,0.1734479568056762,-0.13172493045032024
1733851538872905000,9.885905029296875,-0.15198241332024334,0.18065671914070844,-0.11131868675947189
1733851538882873000,9.895873046875,-0.2623456990510225,0.17431801763847468,-0.07271276951134205
1733851538892841200,9.90584130859375,-0.2829945193260908,0.14720029361024498,0.018089783442020415
1733851538902810000,9.91581005859375,-0.22056202854961154,0.11963424129262566,0.1057932013362646
1733851538912778000,9.925778076171875,-0.12003799978792666,0.10630173538029193,0.15403203932642937
1733851538922747000,9.935746826171876,0.030194647255539893,0.06621230157613754,0.1618815837830305
1733851538932715000,9.945715087890624,0.2070458366334438,0.029807839895039795,0.18192367033660412
1733851538942683000,9.955682861328125,0.30901568028926846,0.007158493452519178,0.18764789320230482
1733851538952652000,9.965652099609375,0.3022460400238633,0.007163461888581514,0.138232412648201
1733851538962620000,9.975619873046876,0.23869565113335847,0.006366174031049013,0.05476210227906703
1733851538972588000,9.985588134765624,0.15710487090051173,-0.005163812503963709,-0.03921148192584514
1733851538982557200,9.99555712890625,0.07198533201962709,0.019643296494334935,-0.14339783258736133
1733851538992525000,10.005525146484375,-0.028622867894172666,0.038055882149934765,-0.21273557270765303
1733851539002494200,10.015494140625,-0.10773907470703124,0.06959229940325021,-0.22317980983257293
1733851539012461800,10.0254619140625,-0.17175649658739567,0.1200901683665812,-0.1991734958231449
1733851539022430000,10.035429931640625,-0.17571107943207023,0.17420082099959253,-0.18571371026933192
1733851539032398800,10.04539892578125,-0.15210048674196003,0.2242057918794453,-0.15020692808032035
1733851539042367000,10.055366943359376,-0.13567162224948406,0.2506488315165043,-0.07798457243442534
1733851539052335000,10.065335205078124,-0.16689707385748623,0.2451389820538461,0.0333662630289793
1733851539062304000,10.075303955078125,-0.17916326571255922,0.22047610383182764,0.09861410348713398
1733851539072272100,10.085272216796875,-0.170817754432559,0.1708797137528658,0.13557576065957547
1733851539082241000,10.095240966796876,-0.15553689093142747,0.119147772949934,0.15056582452058792
1733851539092209200,10.105209228515625,-0.09822861130088567,0.08958484772667288,0.13612521123588084
1733851539102177000,10.115177001953125,-0.03853519009947776,0.04149988512396812,0.1219365268856287
1733851539112146200,10.125146240234375,-0.00768061763048172,0.036187019538134337,0.1110129818111658
1733851539122114000,10.135114013671876,0.046699791854619976,0.0443918071731925,0.08792319812476634
1733851539132082000,10.14508203125,0.03407821069061756,0.03873465819433331,0.052638534253835675
1733851539142051000,10.155051025390625,-0.014492635732889175,0.04373538909107447,0.030238486397266385
1733851539152019000,10.16501904296875,-0.08007248462438583,0.03088949765190482,-0.02955284222066402
1733851539161988000,10.174988037109374,-0.14581892225444315,-0.022131460048258302,-0.061496963492035865
1733851539171956000,10.1849560546875,-0.19787088879197834,-0.07346767953187226,-0.07177870353162288
1733851539181924000,10.194924072265625,-0.210641230776906,-0.10412731395065784,-0.06426467463970184
1733851539191893000,10.20489306640625,-0.19027970301061867,-0.14006225842386483,-0.02900572973191738
1733851539201861000,10.214861083984376,-0.12948387352526186,-0.14365575287118554,-0.013625205248594284
1733851539211829000,10.2248291015625,-0.03134761668294668,-0.10165610153153538,0.004421908095479011
1733851539221798000,10.2347978515625,0.05967150163054466,-0.057322454286366696,0.030264789882302284
1733851539231766000,10.24476611328125,0.10074410125315189,-0.016156038900464773,0.08088204744160175
1733851539241735000,10.25473486328125,0.13431143981218338,0.033962621486932035,0.12149404381513595
1733851539251703000,10.264703125,0.1316262923814356,0.053484775819629425,0.13334230251908302
1733851539261671200,10.274671142578125,0.09642916066348552,0.046940030351281165,0.12300152576863765
1733851539271640000,10.28464013671875,0.06959726783931255,0.03548588553145528,0.12594634704887867
1733851539281608200,10.294608154296874,0.046137481796741486,-0.015312866074591874,0.10268705201447009
1733851539291576000,10.304576171875,0.031461890712380404,-0.06254837224110961,0.07257306877970696
1733851539301545200,10.314545166015625,0.041214638441801066,-0.0786424518212676,0.05397007511854172
1733851539311512800,10.324512939453125,0.02918707764819264,-0.07980170485898852,0.02394552373290062
1733851539321482000,10.33448193359375,0.01877615827098489,-0.06399564843997359,0.011997311785817146
1733851539331450000,10.3444501953125,-0.0014664192907512187,-0.04458543004915118,-0.030147885504364966
1733851539341418000,10.35441796875,-0.0026863164745271205,-0.039045769970119,-0.03988543566465377
1733851539351387100,10.36438720703125,-0.03112929775714874,-0.0173497787296772,-0.04498305106461048
1733851539361355000,10.37435498046875,-0.051604515030980104,-0.02110211700052023,-0.03604103519618511
1733851539371323100,10.3843232421875,-0.08694295491576194,-0.05700257468223571,-0.015575170272588729
1733851539381292000,10.3942919921875,-0.04936170454025268,-0.11044877205714583,0.03860591724812984
1733851539391260200,10.40426025390625,-0.0068760232493281365,-0.1668563034556806,0.12135083595216274
1733851539401229000,10.41422900390625,0.07602700862586498,-0.22255203332304954,0.16358371152579784
1733851539411197000,10.424197021484375,0.1563046604335308,-0.30652649382203817,0.17816636362969873
1733851539421165000,10.4341650390625,0.19920169900432227,-0.40823644443266094,0.1324579208999872
1733851539431134000,10.444134033203126,0.2279302192300558,-0.5452482292447239,0.07679097873568534
1733851539441102000,10.45410205078125,0.2801327001541853,-0.6184944480456411,0.04897007487416267
1733851539451070000,10.464070068359375,0.37653877220302817,-0.6182930071894079,0.06431260543465614
1733851539461039000,10.4740390625,0.5250877039432525,-0.4690198528278619,0.10436579888164997
1733851539471007200,10.48400732421875,0.6701970166236162,-0.1627179615419358,0.14261281968951225
1733851539480976100,10.49397607421875,0.7361006906419992,0.21583317339681088,0.1462958921164274
1733851539490944300,10.5039443359375,0.6552601442545652,0.5696206731528043,0.10608078610599041
1733851539500911900,10.513911865234375,0.4104682220727205,0.7747679826885462,-0.016296470284461975
1733851539510881000,10.523881103515626,0.01663154745772481,0.7633428447674959,-0.26274960367679595
1733851539520849000,10.533848876953124,-0.3890004866302013,0.5366352261349558,-0.5667869110316038
1733851539530817000,10.543817138671875,-0.6409492948293686,0.19996968770213425,-0.7536351782888173
1733851539540786000,10.553785888671875,-0.6646113254457712,-0.1916808019801974,-0.7867372374236583
1733851539550754000,10.563754150390626,-0.49968832814022895,-0.5027343447726219,-0.7137731234997511
1733851539560723000,10.573722900390624,-0.21782427414879202,-0.6216222977425903,-0.5622866770029068
1733851539570691000,10.583691162109375,0.1285727500297129,-0.5339045590620488,-0.4148568124204874
1733851539580659200,10.5936591796875,0.42114802151918407,-0.25516309407055376,-0.29856676698923107
1733851539590628000,10.603628173828126,0.5909212353348732,0.11976108254268765,-0.11316694497466087
1733851539600596000,10.613595947265624,0.6104537649311125,0.45169966551885005,0.03961071037650108
1733851539610564000,10.623564208984375,0.48487318245470523,0.638793431969732,0.1092225912630558
1733851539620533000,10.633532958984375,0.22578385485112665,0.6742256876178085,0.11655541836917399
1733851539630501000,10.643501220703126,-0.06681187490448355,0.5925671028457582,0.06396481491029263
1733851539640470000,10.653469970703124,-0.27370763554275035,0.4507349852051586,-0.03614858722388744
1733851539650438100,10.663438232421875,-0.35915114568099377,0.3161719087194651,-0.09897124636173248
1733851539660406000,10.673406005859375,-0.3666939622759819,0.20369827977120875,-0.10812953532934189
1733851539670375200,10.683375244140626,-0.30763796219527717,0.10451002965793013,-0.1296446170449257
1733851539680343000,10.693343017578124,-0.1797282061189413,0.03819748257771134,-0.1479571033269167
1733851539690311000,10.703310791015625,0.0010983166307210921,0.03764123693443835,-0.14725743062496185
1733851539700280000,10.713280029296875,0.1618849447838962,0.06985168099179863,-0.09417173712551594
1733851539710248000,10.723248046875,0.22780586219802498,0.13047215391024947,-0.04064122246801853
1733851539720217000,10.733217041015624,0.20455577338337896,0.19731551993153987,0.0009533552020788192
1733851539730185000,10.74318505859375,0.15065182230360805,0.2647853472881019,0.018608838880062102
1733851539740153000,10.753153076171875,0.1130361582018435,0.3053188715979457,-0.002329319730401039
1733851539750122000,10.7631220703125,0.043359979907423254,0.3200149209484458,-0.0052080900371074676
1733851539760090000,10.773090087890624,-0.019154197803139685,0.2923770455036312,-0.018459785798192022
1733851539770058200,10.783058349609375,-0.07992460058629512,0.22637100708931684,-0.028681320083141327
1733851539780027100,10.793027099609375,-0.10819960489086806,0.13000877418220042,-0.07214929040968418
1733851539789995000,10.8029951171875,-0.08928396508395671,0.06800488408133387,-0.11967851882576942
1733851539799964000,10.8129638671875,-0.00442534216158092,0.027245222865417598,-0.15074118108749388
1733851539809932000,10.82293212890625,0.14272629000134765,0.007694134699180722,-0.16657704812288282
1733851539819900200,10.832900146484375,0.2724860578585416,-0.04008760717324912,-0.191252639696002
1733851539829869000,10.842869140625,0.3716154904566705,-0.052040203034505246,-0.13418050690889358
1733851539839837200,10.852837158203124,0.44645548125505446,-0.05610321468971669,-0.08643383634984493
1733851539849806000,10.86280615234375,0.42415304855406283,0.004526172187551856,-0.018612346011400223
1733851539859774200,10.872774169921875,0.32926819472312924,0.08491444476284087,0.01918108581006527
1733851539869742000,10.8827421875,0.17441899379491804,0.13325506262704728,0.08369125964343548
1733851539879711200,10.892711181640625,0.0524766947556287,0.12073591892421245,0.10430208599567413
1733851539889678800,10.902678955078125,-0.05014204126298427,0.07701258559711277,0.10970891347527503
1733851539899647000,10.91264697265625,-0.05978022270202636,-0.03694923608228564,0.04274608579277992
1733851539909615900,10.922615966796876,0.043106151276826855,-0.12656930125281213,0.046129883012175556
1733851539919584000,10.932583984375,0.1407061092853546,-0.09858758080638945,0.018445757272839546
1733851539929552100,10.94255224609375,0.21262444048337636,0.030576559245213863,0.07195698270797729
1733851539939521000,10.95252099609375,0.18559103373773395,0.21574768707044423,0.1328197399497032
1733851539949489200,10.9624892578125,0.11343940524049102,0.3451201361104846,0.1323141285151243
1733851539959458000,10.9724580078125,0.035744171141460536,0.39006248983852565,0.06221943254768848
1733851539969426200,10.98242626953125,-0.09610650458037853,0.36385011715218424,-0.1260100599348545
1733851539979394000,10.99239404296875,-0.2568576230287552,0.295829524045065,-0.39165070887804027
1733851539989363000,11.002363037109374,-0.4258930971544236,0.17097805956080556,-0.6026683717519045
1733851539999331000,11.0123310546875,-0.5113671485614031,0.024978812303394077,-0.6381365754961967
1733851540009300000,11.022300048828125,-0.4424672884017229,-0.08635448750331998,-0.45781332609355446
1733851540019268000,11.03226806640625,-0.24653372434787452,-0.1388118199713528,-0.2003805335253477
1733851540029236000,11.042236083984376,0.002179755191877484,-0.15040895345844327,-0.06462474012374878
1733851540039205000,11.052205078125,0.2737018633890897,-0.12156155609339475,0.03548398583531379
1733851540049173000,11.062173095703125,0.4776390664827078,-0.07887618751190602,0.13274842827916145
1733851540059140900,11.072140869140625,0.5917752948809415,-0.05909472465589642,0.1715150890469551
1733851540069110300,11.0821103515625,0.6214584854830056,-0.05160035031251609,0.2423088731944561
1733851540079078000,11.092077880859375,0.43643443797826764,-0.10794314591176807,0.24307693495750426
1733851540089047000,11.102047119140625,0.09370061248242854,-0.18796214678324757,0.19895722272396085
1733851540099014700,11.1120146484375,-0.1657943733125925,-0.27991160474941135,0.1405278301090002
1733851540108982800,11.121982666015626,-0.26240064410865305,-0.3144005151327699,0.130388128888607
1733851540118951700,11.13195166015625,-0.1782902457376942,-0.2759201970256865,0.1493032572388649
1733851540128919800,11.141919921875,-0.01300093587040901,-0.21726276780851184,0.1477303088337183
1733851540138887700,11.1518876953125,0.14384732992053031,-0.15960845121927558,0.15953531291782855
1733851540148856600,11.161856689453124,0.24009824794027954,-0.11626812586039303,0.13587328230142592
1733851540158824700,11.17182470703125,0.28320611625015735,-0.07020034829899668,0.1290636022865772
1733851540168793600,11.181793701171875,0.23818046815283594,-0.043374446824192996,0.11662263838648795
1733851540178761700,11.19176171875,0.1765777061987668,-0.0174112265933305,0.11361702682971954
1733851540188729900,11.201729736328126,0.08088497005105018,-0.040471199663355946,0.05248422047495842
1733851540198698800,11.21169873046875,-0.011439093381166457,-0.07931465199440717,-0.03961538655161857
1733851540208667000,11.2216669921875,-0.07572660090718418,-0.08367226268202066,-0.11993278584778308
1733851540218634800,11.231634765625,-0.12083992728795856,-0.07264774145111441,-0.16408347774147986
1733851540228604000,11.24160400390625,-0.13002510426249353,-0.022352774648740886,-0.23630407982170581
1733851540238571500,11.251571533203125,-0.09952245050370692,0.00015584814883768557,-0.27813889598846436
1733851540248540700,11.261540771484375,-0.043754970574378965,-0.025029300381615757,-0.24425474656522272
1733851540258508800,11.2715087890625,-0.05200491252541542,-0.11224040471427142,-0.15898118616640566
1733851540268476700,11.2814765625,-0.02977963671386242,-0.1974642807524651,-0.03503682658970356
1733851540278445800,11.29144580078125,-0.013033632563613354,-0.2636495481912047,0.0790454796642065
1733851540288413700,11.30141357421875,0.032742578172683716,-0.2479284666419029,0.12455167782008647
1733851540298381800,11.3113818359375,0.10975739225950092,-0.16285612790361045,0.16125205370783804
1733851540308350700,11.321350830078124,0.16972239694390445,-0.03219451583586633,0.18985680142343042
1733851540318318800,11.33131884765625,0.1434416717290878,0.07241261752098799,0.19605214893221853
1733851540328287700,11.341287841796875,0.02298866139948368,0.039889819578826424,0.12192249836027622
1733851540338255600,11.351255615234376,-0.10117547840774059,-0.02664243466667831,0.06714578303396701
1733851540348223700,11.3612236328125,-0.15387650170484557,-0.11593984375409781,0.07199789924025535
1733851540358192600,11.371192626953125,-0.14313947391211987,-0.2221562389384955,0.11057459039390087
1733851540368160800,11.381160888671875,-0.0722591622586362,-0.2973231966689229,0.12032266194820403
1733851540378128600,11.391128662109375,0.04852521718349308,-0.3186213476981968,0.15527940903902052
1733851540388097800,11.401097900390624,0.17162907081544398,-0.30110563781708477,0.1531587636232376
1733851540398066000,11.41106591796875,0.24572657268345355,-0.2664852830737829,0.08488894499540328
1733851540408034800,11.421034912109375,0.2798036325966008,-0.1738029807884246,0.052447980117797846
1733851540418003000,11.4310029296875,0.2541062784940004,-0.05494629973955452,0.014338321954011916
1733851540427970600,11.440970458984374,0.12466682863235473,0.03718231418579816,-0.049013914015889164
1733851540437939700,11.450939697265625,-0.010139692087238654,0.0805536192048341,-0.11960428454577922
1733851540447907600,11.460907470703125,-0.1072124113512691,0.10516926075164228,-0.16704174302518368
1733851540457875700,11.470875732421876,-0.194079972076416,0.042475123364292086,-0.17639175517261027
1733851540467844600,11.4808447265625,-0.2032300777375698,-0.06482917665466666,-0.15803601427078245
1733851540477812700,11.490812744140625,-0.11156183873242698,-0.15510956889744848,-0.20467326228320598
1733851540487782000,11.500781982421875,0.045277074708277354,-0.21787194921541958,-0.2503250063896179
1733851540497749800,11.510749755859376,0.1848778439670801,-0.22537527405023575,-0.23734862043857574
1733851540507718000,11.5207177734375,0.3088280487626791,-0.1701137343490496,-0.11614040782749652
1733851540517686800,11.530686767578125,0.3135965783387422,-0.0519771112030372,0.02140752968788147
1733851540527654700,11.540654541015625,0.1977788265943527,0.11709668563902377,0.1787035392463207
1733851540537622800,11.550622802734376,0.05538344904780387,0.22629848984237758,0.27167992910742755
1733851540547591700,11.560591796875,-0.04354337365031242,0.24983638262245803,0.28596038339436053
1733851540557559800,11.570559814453125,-0.052855976396799086,0.20184969276245682,0.21026947485506534
1733851540567528700,11.58052880859375,-0.06846972511410712,0.09562679477203637,0.0335667540371418
1733851540577496800,11.590496826171876,-0.055036243045330044,-0.019333682555891574,-0.18607669836282728
1733851540587464700,11.600464599609374,-0.01583236447062809,-0.09681571229565888,-0.3984527901083231
1733851540597433900,11.610433837890625,0.05993920808944385,-0.10410707488022744,-0.45916883235573763
1733851540607401700,11.620401611328125,0.139015671980381,-0.09801993698626756,-0.389998850017786
1733851540617369600,11.63036962890625,0.20963760669231413,-0.05706694515533745,-0.17948621405661105
1733851540627338800,11.6403388671875,0.2711561974942684,0.02030040869619697,0.054694297739863396
1733851540637306600,11.650306640625,0.2769792045593262,0.1382615656774491,0.2566764212429523
1733851540647275800,11.66027587890625,0.2006535235141404,0.216420654428564,0.29815584810078144
1733851540657243600,11.67024365234375,0.0637409247602336,0.2025922547580674,0.2030816091775894
1733851540667211800,11.680211669921874,-0.04473579830527305,0.1012032797301188,-0.023862521624565123
1733851540677180700,11.6901806640625,-0.10356442850404418,-0.07332896518092602,-0.32702187710106373
1733851540687148800,11.700148681640625,-0.11734976535094901,-0.2025801259288564,-0.5040788181841374
1733851540697117000,11.710116943359376,-0.06525368567705155,-0.24572368660662322,-0.49299686767756934
1733851540707085800,11.7200859375,0.011095394510030747,-0.1511046075724065,-0.2597363933354616
1733851540717053700,11.7300537109375,0.0925087723493576,0.014276326101087033,0.04053074783086776
1733851540727022600,11.740022705078125,0.14877136058555915,0.18504845129363237,0.29587329012155533
1733851540736990700,11.74999072265625,0.20222239853236823,0.2852865027207881,0.3669359543383121
1733851540746958800,11.759958740234374,0.16705986320376395,0.24623412034679204,0.25432372063696385
1733851540756927700,11.769927734375,0.04328966375072486,0.10308091017026454,0.03503624206781387
1733851540766895900,11.779895751953125,-0.03503040598207153,-0.07377272689305245,-0.15888123292326925
1733851540776863700,11.78986376953125,-0.06444940182315186,-0.21054628250245003,-0.2752560340285301
1733851540786833000,11.7998330078125,-0.010877952367067336,-0.24288517524506895,-0.23034078750312326
1733851540796800800,11.80980078125,0.08290040152668952,-0.23268044596444815,-0.10257774642109871
1733851540806770000,11.81977001953125,0.1893394995510578,-0.18966935255993156,0.10548808090984821
1733851540816737500,11.829737548828126,0.28163784402012826,-0.07238262424152345,0.2530705057054758
1733851540826705700,11.83970556640625,0.29243396332263943,0.0622242913858965,0.3045493485301733
1733851540836674800,11.8496748046875,0.20419103172421454,0.14635631706677377,0.1726560757756233
1733851540846642700,11.859642578125,0.0919113909780979,0.18766966664269566,-0.09161620742380619
1733851540856610800,11.86961083984375,-0.04045125742044765,0.26126612365338947,-0.32126784361898897
1733851540866579700,11.879579833984375,-0.17203882066011428,0.24920319928545503,-0.42663492849767204
1733851540876547800,11.8895478515625,-0.26438743401169773,0.08973726180940866,-0.36561844199895854
1733851540886516700,11.899516845703126,-0.2617266903698444,-0.15529847906567154,-0.19583236870169637
1733851540896484900,11.90948486328125,-0.10007131655812262,-0.3293179156163707,-0.03282031958401203
1733851540906452700,11.91945263671875,0.14975450813770294,-0.3707850309818983,0.1734136161446571
1733851540916421600,11.929421630859375,0.3864320974469185,-0.27325755368769167,0.33297347898185253
1733851540926389800,11.9393896484375,0.5451239452779293,-0.12056651717405766,0.32764322386980055
1733851540936357600,11.949357666015626,0.500440753942728,0.04700085716042667,0.219220258551836
1733851540946326800,11.959326904296875,0.3247872499167919,0.1550510436432436,0.05561550423800945
1733851540956294700,11.969294677734375,0.09498480707406998,0.20463402625136076,-0.07201309680938721
1733851540966263800,11.979263916015626,-0.08898527439832687,0.1903176969334483,-0.17294716767668722
1733851540976232000,11.98923193359375,-0.15264789149165153,0.1833098091990687,-0.2584463535249233
1733851540986199800,11.99919970703125,-0.15227964270114897,0.11324337121173739,-0.30912264779508114
1733851540996169000,12.0091689453125,-0.049721765457722354,0.05211867509819567,-0.3359539560973644
1733851541006136600,12.019136474609375,0.12399813559055328,0.06668276863209903,-0.2873386860102415
1733851541016104700,12.029104736328126,0.25320202313065526,0.1283911098524928,-0.19317337862551212
1733851541026073600,12.039073486328125,0.27410452590584755,0.20956035847133025,-0.1036713868767023
1733851541036041700,12.049041748046875,0.18898878641724584,0.24858550577852873,-0.01308335345685482
1733851541046010600,12.0590107421875,0.09935235463380813,0.22397194659095257,0.03194529031515121
1733851541055978800,12.068978759765624,0.014518354696035385,0.18027798548880963,0.06836568021774292
1733851541065947000,12.07894677734375,-0.030137948632240293,0.14639876796901224,0.06964929028749466
1733851541075915800,12.088915771484375,0.023442837191058788,0.10465113689536228,0.02169277637004852
1733851541085884000,12.0988837890625,0.1455389362692833,0.054410969020146874,-0.0027910920232534406
1733851541095851800,12.108851806640626,0.25544658718705177,0.05189796328591183,-0.014894202271103859
1733851541105822200,12.118822265625,0.3154734781265259,0.062141106614470476,-0.012077975806593894
1733851541115790000,12.1287900390625,0.3322515944480896,0.14427525474270805,-0.04010404685139656
1733851541125759200,12.13875927734375,0.270901345950365,0.2228782148038037,-0.08308627948760985
1733851541135726800,12.148726806640624,0.17901684297919274,0.23796874336460605,-0.16630232283473015
1733851541145695000,12.158695068359375,0.08254793482720851,0.1648717968412675,-0.22213000851869583
1733851541155664000,12.168663818359375,-0.04790390694737434,0.10034772234670818,-0.2528355279058218
1733851541165632000,12.178632080078126,-0.12187456756532192,0.06791066645924002,-0.24736907919347284
1733851541175600000,12.18860009765625,-0.15155073477155528,0.010767623860388993,-0.18417817126512526
1733851541185569000,12.198569091796875,-0.12042203066945076,-0.05513539257086813,-0.07311784318089484
