time,seconds_elapsed,z,y,x
1733851528999237400,0.0122373046875,0.016948090866208076,0.07333626598119736,-0.05318598821759224
1733851529009206300,0.022206298828125,0.019209647551178932,0.11812051385641098,-0.05095585808157921
1733851529019174400,0.03217431640625,0.027160247787833214,0.15924584865570068,-0.04694673418998718
1733851529029142300,0.042142333984375,0.03596652299165726,0.2249729335308075,-0.025439845398068428
1733851529039111400,0.052111328125,0.026802053675055504,0.26818057894706726,-0.008139153011143208
1733851529049079300,0.062079345703125,0.00615270109847188,0.24555703997612,0.0033963292371481657
1733851529059047200,0.072047119140625,-0.009148756973445415,0.19037100672721863,0.006642189808189869
1733851529069016300,0.082016357421875,-0.0132699990645051,0.16329704225063324,0.002665291540324688
1733851529078984200,0.091984130859375,-0.015476161614060402,0.15903998911380768,-0.0008117315010167658
1733851529088952000,0.1019521484375,-0.0191997941583395,0.12081989645957947,-0.010271811857819557
1733851529098921000,0.1119208984375,-0.0031726236920803785,0.07217565923929214,-0.018028268590569496
1733851529108889000,0.12188916015625,0.013978133909404278,0.06081381440162659,-0.026137061417102814
1733851529118857200,0.131857177734375,0.020116453990340233,0.07680875808000565,-0.030972296372056007
1733851529128826000,0.141826171875,0.018206967040896416,0.11899003386497498,-0.03728558495640755
1733851529138794000,0.1517939453125,0.0020927118603140116,0.17386020720005035,-0.044498756527900696
1733851529148763000,0.161762939453125,-0.02207520790398121,0.2208937704563141,-0.0506056547164917
1733851529158731000,0.17173095703125,-0.04275971278548241,0.22603872418403625,-0.0538022443652153
1733851529168699100,0.18169921875,-0.05131405219435692,0.19901350140571594,-0.05523822084069252
1733851529178668000,0.19166796875,-0.049131594598293304,0.1661306470632553,-0.058104582130908966
1733851529188636200,0.20163623046875,-0.04742823541164398,0.14135925471782684,-0.06335233896970749
1733851529198604000,0.21160400390625,-0.048656217753887177,0.12209874391555786,-0.06525064259767532
1733851529208573200,0.2215732421875,-0.05284270644187927,0.10456182807683945,-0.06670179963111877
1733851529218541000,0.231541015625,-0.055024102330207825,0.0939725711941719,-0.0636889636516571
1733851529228509000,0.241509033203125,-0.0547010637819767,0.08766007423400879,-0.05619935691356659
1733851529238477800,0.251477783203125,-0.053518086671829224,0.08507814258337021,-0.055196940898895264
1733851529248446000,0.261446044921875,-0.05209542438387871,0.08584992587566376,-0.061700914055109024
1733851529258415000,0.2714150390625,-0.04957607388496399,0.08111429214477539,-0.06724242120981216
1733851529268383000,0.281383056640625,-0.05161712318658829,0.08389197289943695,-0.06492333859205246
1733851529278351000,0.29135107421875,-0.05416310206055641,0.10225632786750793,-0.06570124626159668
1733851529288320000,0.301320068359375,-0.0588686428964138,0.11939776688814163,-0.07190215587615967
1733851529298288000,0.3112880859375,-0.06263461709022522,0.11230336874723434,-0.06949625164270401
1733851529308256300,0.32125634765625,-0.06371159851551056,0.09846478700637817,-0.06365088373422623
1733851529318225200,0.33122509765625,-0.05928569287061691,0.09862510859966278,-0.06106735020875931
1733851529328193000,0.341193115234375,-0.05495486035943031,0.10649208724498749,-0.06462213397026062
1733851529338161000,0.351160888671875,-0.04952733963727951,0.10482468456029892,-0.06476061791181564
1733851529348130000,0.361130126953125,-0.04724820703268051,0.09343354403972626,-0.06339015811681747
1733851529358098000,0.371097900390625,-0.04566788673400879,0.06997589021921158,-0.06185537949204445
1733851529368066000,0.381066162109375,-0.04327823221683502,0.059426575899124146,-0.061953913420438766
1733851529378035000,0.391034912109375,-0.0451325923204422,0.06923633068799973,-0.05632692202925682
1733851529388003000,0.401003173828125,-0.050765976309776306,0.09139356017112732,-0.04740826040506363
1733851529397972200,0.41097216796875,-0.05843161791563034,0.1019013300538063,-0.035768382251262665
1733851529407940000,0.420940185546875,-0.06752844154834747,0.09874042868614197,-0.02905348874628544
1733851529417908000,0.430907958984375,-0.0717729926109314,0.08283895999193192,-0.02805081009864807
1733851529427876900,0.440876953125,-0.07034793496131897,0.05452502891421318,-0.03278271481394768
1733851529437845000,0.450844970703125,-0.06549272686243057,0.018802715465426445,-0.03283624351024628
1733851529447813000,0.460813232421875,-0.06034856289625168,-0.01384257897734642,-0.02719060890376568
1733851529457782000,0.470781982421875,-0.05572132021188736,-0.03268817067146301,-0.014535000547766685
1733851529467750100,0.480750244140625,-0.04453231394290924,-0.033306289464235306,-0.0020815266761928797
1733851529477718000,0.490718017578125,-0.03580380231142044,-0.016948889940977097,0.014278272166848183
1733851529487687200,0.500687255859375,-0.0273852851241827,0.012489160522818565,0.03074752539396286
1733851529497655000,0.510655029296875,-0.027891019359230995,0.04482446238398552,0.038843270391225815
1733851529507623000,0.520622802734375,-0.036488767713308334,0.06402292102575302,0.03909813240170479
1733851529517592000,0.530592041015625,-0.05847715958952904,0.07606440782546997,0.02660391293466091
1733851529527560000,0.540559814453125,-0.08435855805873871,0.08129991590976715,0.01918621174991131
1733851529537528000,0.550528076171875,-0.10785829275846481,0.08806807547807693,0.02099396474659443
1733851529547497000,0.5604970703125,-0.12350862473249435,0.1146932914853096,0.023742614313960075
1733851529557465000,0.570465087890625,-0.13816852867603302,0.15100735425949097,0.03772953525185585
1733851529567434000,0.58043408203125,-0.1469966322183609,0.16992352902889252,0.05658205226063728
1733851529577402000,0.590402099609375,-0.14457076787948608,0.1629532277584076,0.08295533806085587
1733851529587370000,0.600369873046875,-0.13724254071712494,0.15533393621444702,0.10581298172473907
1733851529597339100,0.610339111328125,-0.1254577934741974,0.17645946145057678,0.11192227154970169
1733851529607307000,0.62030712890625,-0.11692502349615097,0.21246112883090973,0.104063019156456
1733851529617275000,0.63027490234375,-0.10170318931341171,0.22327037155628204,0.10033725947141647
1733851529627244000,0.640244140625,-0.082339346408844,0.21232451498508453,0.11042637377977371
1733851529637212200,0.650212158203125,-0.06118346378207207,0.17012912034988403,0.12310329079627991
1733851529647180000,0.660179931640625,-0.040164995938539505,0.09189769625663757,0.13004988431930542
1733851529657149200,0.670149169921875,-0.01506923045963049,0.03819398954510689,0.12319410592317581
1733851529667117000,0.680116943359375,0.006283728405833244,0.0371183417737484,0.10033965110778809
1733851529677086200,0.690086181640625,0.00902705080807209,0.04908525571227074,0.07676748186349869
1733851529687053800,0.7000537109375,-0.00848616287112236,0.029810626059770584,0.08209273964166641
1733851529697022000,0.71002197265625,-0.03033393807709217,-0.02377377264201641,0.11767656356096268
1733851529706990800,0.719990966796875,-0.04426706209778786,-0.06801633536815643,0.1570466011762619
1733851529716959000,0.729958984375,-0.047140613198280334,-0.07000944763422012,0.2043086588382721
1733851529726927000,0.739927001953125,-0.0334402471780777,-0.017827732488512993,0.25939640402793884
1733851529736896000,0.74989599609375,-0.023920511826872826,0.06796493381261826,0.28208309412002563
1733851529746864000,0.759864013671875,-0.028733644634485245,0.15461167693138123,0.266143798828125
1733851529756832000,0.76983203125,-0.043304331600666046,0.2137996405363083,0.23096024990081787
1733851529766801200,0.77980126953125,-0.060440439730882645,0.23393580317497253,0.19627337157726288
1733851529776769000,0.78976904296875,-0.07828868180513382,0.2245393693447113,0.169499009847641
1733851529786737000,0.79973681640625,-0.0940556600689888,0.2045334279537201,0.14934447407722473
1733851529796706000,0.8097060546875,-0.1076742634177208,0.17364555597305298,0.1330864131450653
1733851529806674000,0.819673828125,-0.10617490857839584,0.1287286877632141,0.12816914916038513
1733851529816642000,0.82964208984375,-0.09443329274654388,0.08203308284282684,0.12167184054851532
1733851529826611000,0.83961083984375,-0.07557385414838791,0.0252827201038599,0.11656069755554199
1733851529836579000,0.8495791015625,-0.04639919102191925,-0.026570357382297516,0.11583365499973297
1733851529846548000,0.8595478515625,-0.004881041590124369,-0.07078149169683456,0.12220527231693268
1733851529856516000,0.86951611328125,0.04318368807435036,-0.10884898900985718,0.13105228543281555
1733851529866484000,0.87948388671875,0.08680599927902222,-0.13886813819408417,0.14025723934173584
1733851529876452900,0.889452880859375,0.12324363738298416,-0.14710795879364014,0.15235544741153717
1733851529886421000,0.8994208984375,0.14715243875980377,-0.1353897750377655,0.15732145309448242
1733851529896389000,0.90938916015625,0.15740133821964264,-0.11057684570550919,0.16445046663284302
1733851529906358000,0.91935791015625,0.15868204832077026,-0.08852054178714752,0.17319256067276
1733851529916326100,0.929326171875,0.16066478192806244,-0.0798245221376419,0.18937233090400696
1733851529926294000,0.9392939453125,0.16103948652744293,-0.07411124557256699,0.2101399153470993
1733851529936263200,0.94926318359375,0.16426563262939453,-0.06873539090156555,0.22490447759628296
1733851529946231000,0.95923095703125,0.16999968886375427,-0.07543909549713135,0.24013137817382812
1733851529956200200,0.9692001953125,0.17940092086791992,-0.09383221715688705,0.26522740721702576
1733851529966167800,0.979167724609375,0.18277567625045776,-0.11156594008207321,0.28904247283935547
1733851529976136000,0.989135986328125,0.1844436079263687,-0.11552419513463974,0.3010874092578888
1733851529986105000,0.99910498046875,0.18746550381183624,-0.11978019773960114,0.29807695746421814
1733851529996073000,1.009072998046875,0.19283470511436462,-0.13987508416175842,0.287733793258667
1733851530006041000,1.019041015625,0.21184886991977692,-0.1780717372894287,0.2777192294597626
1733851530016010000,1.029010009765625,0.23575261235237122,-0.24074390530586243,0.2679542303085327
1733851530025978000,1.03897802734375,0.25992345809936523,-0.3100247085094452,0.2763458490371704
1733851530035946200,1.0489462890625,0.27100861072540283,-0.36402297019958496,0.2940548062324524
1733851530045915100,1.0589150390625,0.2798851728439331,-0.399070680141449,0.3054935932159424
1733851530055883000,1.068883056640625,0.2832077443599701,-0.4272810220718384,0.308657705783844
1733851530065851000,1.078850830078125,0.28624266386032104,-0.4590144455432892,0.3156391680240631
1733851530075820000,1.088820068359375,0.2795237898826599,-0.5001805424690247,0.32837387919425964
1733851530085788000,1.098787841796875,0.2662540674209595,-0.5414496660232544,0.34562477469444275
1733851530095757300,1.10875732421875,0.2547939419746399,-0.5689327120780945,0.36053234338760376
1733851530105725200,1.11872509765625,0.24230638146400452,-0.5639501810073853,0.3752897381782532
1733851530115693300,1.128693359375,0.22611063718795776,-0.5250717401504517,0.3872276246547699
1733851530125662200,1.138662109375,0.2166670560836792,-0.4700404703617096,0.4002416729927063
1733851530135630000,1.148630126953125,0.19873280823230743,-0.41068235039711,0.4179660975933075
1733851530145598200,1.15859814453125,0.18196767568588257,-0.3573994040489197,0.45263510942459106
1733851530155567000,1.168567138671875,0.15709879994392395,-0.31193578243255615,0.4863073229789734
1733851530165535200,1.17853515625,0.1356305330991745,-0.27423369884490967,0.5109513998031616
1733851530175503400,1.18850341796875,0.12981471419334412,-0.2518002688884735,0.527877688407898
1733851530185472300,1.19847216796875,0.13175803422927856,-0.2545161843299866,0.54095059633255
1733851530195440400,1.2084404296875,0.13996616005897522,-0.2751956284046173,0.5527534484863281
1733851530205408300,1.218408203125,0.16673758625984192,-0.3024040758609772,0.5612377524375916
1733851530215377400,1.22837744140625,0.20162180066108704,-0.3304697871208191,0.5586257576942444
1733851530225345000,1.238344970703125,0.2465871423482895,-0.3539503514766693,0.546028733253479
1733851530235313200,1.248313232421875,0.28807333111763,-0.37014901638031006,0.5286862254142761
1733851530245282000,1.258281982421875,0.3244747519493103,-0.38661989569664,0.5085955858230591
1733851530255250200,1.268250244140625,0.34315070509910583,-0.4147103726863861,0.49407869577407837
1733851530265219300,1.27821923828125,0.3496171236038208,-0.46025946736335754,0.49216946959495544
1733851530275187200,1.288187255859375,0.346463680267334,-0.5082024931907654,0.5028902888298035
1733851530285155300,1.2981552734375,0.3436836004257202,-0.5371265411376953,0.5134071111679077
1733851530295124200,1.308124267578125,0.34609296917915344,-0.5407140851020813,0.520174503326416
1733851530305092400,1.31809228515625,0.3433200716972351,-0.5285666584968567,0.5233089923858643
1733851530315060200,1.328060302734375,0.338848352432251,-0.5106794834136963,0.5211188197135925
1733851530325029000,1.338029052734375,0.33974745869636536,-0.4952390491962433,0.5180844068527222
1733851530334997200,1.347997314453125,0.34456777572631836,-0.46522095799446106,0.49942365288734436
1733851530344965000,1.357965087890625,0.3517095744609833,-0.42938998341560364,0.47909975051879883
1733851530354934300,1.367934326171875,0.35737836360931396,-0.40927645564079285,0.4707781672477722
1733851530364902100,1.377902099609375,0.35304728150367737,-0.4154089093208313,0.481700599193573
1733851530374870300,1.387870361328125,0.34882670640945435,-0.4433603882789612,0.495522141456604
1733851530384839400,1.39783935546875,0.344749391078949,-0.4690074324607849,0.5117554068565369
1733851530394807300,1.407807373046875,0.34635183215141296,-0.47733646631240845,0.5200895071029663
1733851530404776400,1.4177763671875,0.34876278042793274,-0.46369603276252747,0.5203137397766113
1733851530414744000,1.427744140625,0.3473435938358307,-0.41817086935043335,0.510179340839386
1733851530424712200,1.437712158203125,0.33869096636772156,-0.35313063859939575,0.49378281831741333
1733851530434681000,1.44768115234375,0.32561084628105164,-0.3009569048881531,0.4761761426925659
1733851530444649200,1.457649169921875,0.3144676685333252,-0.2676716446876526,0.45321354269981384
1733851530454617300,1.467617431640625,0.3056139647960663,-0.25289270281791687,0.4356532096862793
1733851530464586200,1.477586181640625,0.28697317838668823,-0.24136361479759216,0.4293878376483917
1733851530474554400,1.487554443359375,0.27007222175598145,-0.23967570066452026,0.44068923592567444
1733851530484522200,1.497522216796875,0.2620164453983307,-0.2518618106842041,0.4650622308254242
1733851530494491400,1.507491455078125,0.26831695437431335,-0.2757128179073334,0.48068273067474365
1733851530504459300,1.517459228515625,0.2725449800491333,-0.31478989124298096,0.4788307547569275
1733851530514427100,1.52742724609375,0.26859790086746216,-0.38766783475875854,0.46854376792907715
1733851530524396300,1.537396240234375,0.2603839039802551,-0.475534051656723,0.45393872261047363
1733851530534364200,1.5473642578125,0.2654670774936676,-0.5329270362854004,0.42868292331695557
1733851530544333300,1.557333251953125,0.27962526679039,-0.5230600237846375,0.4009056091308594
1733851530554301200,1.56730126953125,0.3041186034679413,-0.4648483693599701,0.3830632269382477
1733851530564269300,1.577269287109375,0.3340642750263214,-0.39102715253829956,0.38237878680229187
1733851530574238200,1.58723828125,0.35343262553215027,-0.322706937789917,0.3848896324634552
1733851530584206300,1.597206298828125,0.3413538634777069,-0.28889358043670654,0.39330655336380005
1733851530594174200,1.60717431640625,0.3072566092014313,-0.2984143793582916,0.3934386372566223
1733851530604143000,1.61714306640625,0.25559741258621216,-0.3529580533504486,0.3929520845413208
1733851530614111200,1.627111328125,0.2127029448747635,-0.42143139243125916,0.3896732032299042
1733851530624079000,1.6370791015625,0.18361003696918488,-0.4720327854156494,0.37992069125175476
1733851530634048300,1.64704833984375,0.1579906940460205,-0.46648383140563965,0.37090909481048584
1733851530644016400,1.657016357421875,0.1460951566696167,-0.39823684096336365,0.3597922623157501
1733851530653984300,1.666984375,0.14502297341823578,-0.3061375617980957,0.3588186204433441
1733851530663953400,1.676953369140625,0.14220161736011505,-0.22183918952941895,0.3569365441799164
1733851530673921300,1.68692138671875,0.13270558416843414,-0.157616525888443,0.3599078357219696
1733851530683890400,1.696890380859375,0.11683740466833115,-0.11563045531511307,0.3613336980342865
1733851530693858000,1.706858154296875,0.1019013300538063,-0.1012834757566452,0.3600223660469055
1733851530703826200,1.716826171875,0.08698416501283646,-0.12432967126369476,0.35120144486427307
1733851530713795000,1.726795166015625,0.0732497125864029,-0.17624346911907196,0.3360632359981537
1733851530723763200,1.73676318359375,0.0653529092669487,-0.22938765585422516,0.3076731264591217
1733851530733731300,1.7467314453125,0.0728188157081604,-0.2563726603984833,0.269918292760849
1733851530743700200,1.7567001953125,0.07281827926635742,-0.2606257200241089,0.23976705968379974
1733851530753668400,1.76666845703125,0.07173943519592285,-0.25206634402275085,0.2224559783935547
1733851530763636200,1.77663623046875,0.05819406360387802,-0.23394405841827393,0.21396848559379578
1733851530773605400,1.78660546875,0.031210117042064667,-0.20837637782096863,0.20499655604362488
1733851530783573200,1.7965732421875,-0.005087969359010458,-0.1850995421409607,0.1946328729391098
1733851530793541000,1.806541015625,-0.03287006542086601,-0.16662760078907013,0.19181124866008759
1733851530803510300,1.81651025390625,-0.04874010756611824,-0.14352813363075256,0.19008764624595642
1733851530813478100,1.82647802734375,-0.04795021563768387,-0.1102500781416893,0.18392403423786163
1733851530823447300,1.836447265625,-0.04078551381826401,-0.07088322937488556,0.17463891208171844
1733851530833415200,1.846415283203125,-0.03057894855737686,-0.030887342989444733,0.15794329345226288
1733851530843383300,1.85638330078125,-0.03099413402378559,-0.0024311996530741453,0.1364515870809555
1733851530853352200,1.866352294921875,-0.04588839411735535,-0.0017994979862123728,0.12015277147293091
1733851530863320300,1.8763203125,-0.06835908442735672,-0.015427425503730774,0.10665640234947205
1733851530873288200,1.8862880859375,-0.09071312844753265,-0.01212990004569292,0.0935286208987236
1733851530883257000,1.896257080078125,-0.11023382842540741,0.006337790749967098,0.08161203563213348
1733851530893225200,1.90622509765625,-0.12357360124588013,0.026825223118066788,0.06715160608291626
1733851530903193300,1.916193359375,-0.12002866715192795,0.050575826317071915,0.04635072126984596
1733851530913162200,1.926162353515625,-0.10262597352266312,0.07303746044635773,0.022533005103468895
1733851530923130400,1.93613037109375,-0.08681026101112366,0.0751405581831932,0.004244545940309763
1733851530933098200,1.94609814453125,-0.08527521789073944,0.06551589071750641,-0.005023254547268152
1733851530943067400,1.9560673828125,-0.08962415903806686,0.054674163460731506,-0.012011389248073101
1733851530953035300,1.96603515625,-0.09979024529457092,0.05699004977941513,-0.017667677253484726
1733851530963004400,1.97600439453125,-0.10821914672851562,0.06932874023914337,-0.02851632982492447
1733851530972972000,1.985971923828125,-0.11274439096450806,0.08634208142757416,-0.04188007116317749
1733851530982940200,1.995940185546875,-0.11366424709558487,0.1056249663233757,-0.06180504336953163
1733851530992909300,2.005909423828125,-0.11455134302377701,0.12181511521339417,-0.07870839536190033
1733851531002877200,2.015877197265625,-0.11557293683290482,0.12748125195503235,-0.0956554189324379
1733851531012845300,2.02584521484375,-0.12479892373085022,0.12908980250358582,-0.11565788835287094
1733851531022814200,2.035814208984375,-0.14383812248706818,0.1446826159954071,-0.14292067289352417
1733851531032782300,2.0457822265625,-0.1695067435503006,0.1600935310125351,-0.16176334023475647
1733851531042750500,2.05575048828125,-0.2053944319486618,0.17073845863342285,-0.1724170446395874
1733851531052719400,2.06571923828125,-0.23546205461025238,0.18864847719669342,-0.16760657727718353
1733851531062687200,2.075687255859375,-0.24873657524585724,0.21850544214248657,-0.1601899415254593
1733851531072655000,2.085655029296875,-0.2503299415111542,0.2571612298488617,-0.15177834033966064
1733851531082624300,2.095624267578125,-0.2365129441022873,0.29836511611938477,-0.14933888614177704
1733851531092592000,2.105592041015625,-0.21956858038902283,0.32444146275520325,-0.16123256087303162
1733851531102561300,2.115561279296875,-0.21397167444229126,0.3213103711605072,-0.18265636265277863
1733851531112529200,2.125529052734375,-0.22191429138183594,0.28786560893058777,-0.2067297399044037
1733851531122497300,2.135497314453125,-0.23795583844184875,0.25321149826049805,-0.22895196080207825
1733851531132466400,2.145466552734375,-0.2557002007961273,0.23874200880527496,-0.2476566731929779
1733851531142434300,2.155434326171875,-0.272868275642395,0.24710512161254883,-0.2606246769428253
1733851531152402200,2.165402099609375,-0.2826998829841614,0.26256051659584045,-0.26962560415267944
1733851531162371000,2.17537109375,-0.28654229640960693,0.2797195315361023,-0.27537617087364197
1733851531172339200,2.185339111328125,-0.28066495060920715,0.30941110849380493,-0.2792052626609802
1733851531182307300,2.195307373046875,-0.2723718583583832,0.35339242219924927,-0.2860272228717804
1733851531192276200,2.205276123046875,-0.27299371361732483,0.3861714005470276,-0.2906635105609894
1733851531202244400,2.215244384765625,-0.27691522240638733,0.3887733221054077,-0.2934896647930145
1733851531212212200,2.225212158203125,-0.28051820397377014,0.3831106424331665,-0.29800185561180115
1733851531222181400,2.235181396484375,-0.2857814133167267,0.38284510374069214,-0.3038187325000763
1733851531232149200,2.245149169921875,-0.2942092716693878,0.398470938205719,-0.3086150884628296
1733851531242118400,2.255118408203125,-0.31120607256889343,0.4220002293586731,-0.3066081404685974
1733851531252086300,2.265086181640625,-0.3276500403881073,0.4465753734111786,-0.29770493507385254
1733851531262054100,2.27505419921875,-0.34533342719078064,0.4741065800189972,-0.2953245937824249
1733851531272023300,2.285023193359375,-0.3645324110984802,0.4848359227180481,-0.2969203591346741
1733851531281991200,2.2949912109375,-0.38185760378837585,0.46876561641693115,-0.30125224590301514
1733851531291959300,2.304959228515625,-0.39889970421791077,0.4318470060825348,-0.31520241498947144
1733851531301928200,2.31492822265625,-0.41254761815071106,0.39102473855018616,-0.3359620273113251
1733851531311896300,2.324896240234375,-0.4196028709411621,0.3718411922454834,-0.3660387098789215
1733851531321864200,2.3348642578125,-0.42067399621009827,0.37969300150871277,-0.3975108861923218
1733851531331833300,2.344833251953125,-0.41472741961479187,0.4107414484024048,-0.4157505929470062
1733851531341801200,2.35480126953125,-0.4075659215450287,0.46188026666641235,-0.4252423644065857
1733851531351770000,2.36477001953125,-0.40255996584892273,0.5132220387458801,-0.4243693947792053
1733851531361738200,2.37473828125,-0.40488943457603455,0.5498002767562866,-0.40969857573509216
1733851531371706400,2.384706298828125,-0.4063831865787506,0.5558121204376221,-0.3924306333065033
1733851531381675300,2.39467529296875,-0.4009423553943634,0.5623003840446472,-0.3854009509086609
1733851531391643400,2.404643310546875,-0.39314916729927063,0.5756076574325562,-0.40124064683914185
1733851531401611300,2.414611328125,-0.3909917175769806,0.595204770565033,-0.42249399423599243
1733851531411580400,2.424580322265625,-0.3883970081806183,0.6051639318466187,-0.442287415266037
1733851531421548000,2.434548095703125,-0.3815939724445343,0.6068369150161743,-0.45753931999206543
1733851531431516200,2.44451611328125,-0.373435378074646,0.6180317997932434,-0.4659266769886017
1733851531441485000,2.454485107421875,-0.3721325397491455,0.6506824493408203,-0.4646736681461334
1733851531451453200,2.464453125,-0.37878113985061646,0.6847405433654785,-0.4524356424808502
1733851531461421300,2.47442138671875,-0.3905254006385803,0.6938086152076721,-0.42776253819465637
1733851531471390200,2.48439013671875,-0.3972640037536621,0.6853938102722168,-0.409341961145401
1733851531481358300,2.4943583984375,-0.3948701024055481,0.6694220304489136,-0.4109225571155548
1733851531491327200,2.5043271484375,-0.384649395942688,0.6583475470542908,-0.41915491223335266
1733851531501295400,2.51429541015625,-0.3668877184391022,0.6555101871490479,-0.42466339468955994
1733851531511263200,2.52426318359375,-0.34287160634994507,0.6615092158317566,-0.4265742301940918
1733851531521232100,2.534232177734375,-0.3115754723548889,0.6705954074859619,-0.42803284525871277
1733851531531200300,2.5442001953125,-0.28488659858703613,0.6766394376754761,-0.4331863224506378
1733851531541168000,2.554168212890625,-0.2750084102153778,0.6708244681358337,-0.43579089641571045
1733851531551137300,2.56413720703125,-0.2824234366416931,0.6573251485824585,-0.43492642045021057
1733851531561105200,2.574105224609375,-0.30315056443214417,0.6346209049224854,-0.4337538480758667
1733851531571073300,2.5840732421875,-0.333540678024292,0.6050211787223816,-0.44550424814224243
1733851531581042200,2.594042236328125,-0.36532044410705566,0.5705614686012268,-0.4604208767414093
1733851531591010300,2.60401025390625,-0.385314404964447,0.5282118916511536,-0.46754908561706543
1733851531600978200,2.613978271484375,-0.39279788732528687,0.4894661009311676,-0.4634965658187866
1733851531610947000,2.623947021484375,-0.3857671320438385,0.46711739897727966,-0.4497293531894684
1733851531620915200,2.633915283203125,-0.37142494320869446,0.47370365262031555,-0.43539300560951233
1733851531630884000,2.643884033203125,-0.3568316400051117,0.5064184665679932,-0.43219056725502014
1733851531640852200,2.653852294921875,-0.35141634941101074,0.5504689812660217,-0.4351770281791687
1733851531650820400,2.6638203125,-0.3623933792114258,0.5955851078033447,-0.44795992970466614
1733851531660789200,2.673789306640625,-0.38405925035476685,0.6309499740600586,-0.4671141803264618
1733851531670757400,2.68375732421875,-0.4198787808418274,0.6424788236618042,-0.48483434319496155
1733851531680725200,2.693725341796875,-0.46864205598831177,0.6196624636650085,-0.4934440553188324
1733851531690694400,2.7036943359375,-0.5199909806251526,0.5802591443061829,-0.49044269323349
1733851531700662000,2.713662109375,-0.5653267502784729,0.5393713712692261,-0.47505971789360046
1733851531710630100,2.723630126953125,-0.5999230742454529,0.5138928890228271,-0.46060383319854736
1733851531720599300,2.733599365234375,-0.6090266108512878,0.5029550194740295,-0.457004576921463
1733851531730567200,2.743567138671875,-0.6073221564292908,0.5218730568885803,-0.4561592638492584
1733851531740536300,2.753536376953125,-0.5945099592208862,0.5453045964241028,-0.44972002506256104
1733851531750504200,2.763504150390625,-0.5708496570587158,0.5574667453765869,-0.4473000168800354
1733851531760472300,2.773472412109375,-0.5437842011451721,0.546486496925354,-0.4530729353427887
1733851531770441200,2.783441162109375,-0.5204690098762512,0.5046873688697815,-0.46109145879745483
1733851531780409300,2.793409423828125,-0.5119474530220032,0.4615439176559448,-0.4697059690952301
1733851531790377200,2.803377197265625,-0.5152694582939148,0.4278101921081543,-0.4723811149597168
1733851531800346000,2.81334619140625,-0.5224930047988892,0.39380374550819397,-0.4502244293689728
1733851531810314200,2.823314208984375,-0.5367023348808289,0.32469871640205383,-0.3508906364440918
1733851531820282000,2.8332822265625,-0.5745655298233032,0.1875738948583603,-0.1019870862364769
1733851531830251300,2.843251220703125,-0.6209996342658997,0.08559346199035645,0.16845957934856415
1733851531840219100,2.85321923828125,-0.6464295983314514,0.14869466423988342,0.22516654431819916
1733851531850187300,2.863187255859375,-0.5875117182731628,0.3564862012863159,0.06589432805776596
1733851531860156400,2.873156494140625,-0.45586633682250977,0.5752848982810974,-0.17629487812519073
1733851531870124300,2.883124267578125,-0.32925352454185486,0.6675410270690918,-0.3942708671092987
1733851531880093400,2.893093505859375,-0.2475741058588028,0.543487548828125,-0.5240414142608643
1733851531890061000,2.90306103515625,-0.2200053334236145,0.25018614530563354,-0.5513638257980347
1733851531900029200,2.913029296875,-0.2247505486011505,-0.03934580832719803,-0.5123075246810913
1733851531909998000,2.922998046875,-0.24557194113731384,-0.19565898180007935,-0.43994274735450745
1733851531919966200,2.93296630859375,-0.264385849237442,-0.1920304298400879,-0.3639358878135681
1733851531929934300,2.942934326171875,-0.2572408616542816,0.011326690204441547,-0.3472735285758972
1733851531939903200,2.9529033203125,-0.25537583231925964,0.31137892603874207,-0.358492374420166
1733851531949871400,2.962871337890625,-0.2874176502227783,0.48766714334487915,-0.36577558517456055
1733851531959839200,2.972839111328125,-0.33947500586509705,0.45757076144218445,-0.4046388268470764
1733851531969808400,2.982808349609375,-0.39896976947784424,0.3124348521232605,-0.44735780358314514
1733851531979776300,2.9927763671875,-0.44141948223114014,0.15745753049850464,-0.4714157283306122
1733851531989745200,3.0027451171875,-0.4568359851837158,0.051118046045303345,-0.4666619896888733
1733851531999713300,3.01271337890625,-0.4383389949798584,0.02930515818297863,-0.4402037560939789
1733851532009681200,3.02268115234375,-0.38826093077659607,0.0937320813536644,-0.4213014245033264
1733851532019650300,3.032650390625,-0.32693949341773987,0.20368202030658722,-0.4129164516925812
1733851532029618200,3.0426181640625,-0.28928932547569275,0.28016722202301025,-0.4011514186859131
1733851532039586300,3.05258642578125,-0.2768305242061615,0.25985342264175415,-0.37802931666374207
1733851532049555200,3.06255517578125,-0.27743294835090637,0.1714164912700653,-0.3583187460899353
1733851532059523300,3.0725234375,-0.287736713886261,0.09668739140033722,-0.35293570160865784
1733851532069491200,3.0824912109375,-0.2957291305065155,0.05913682281970978,-0.362339049577713
1733851532079460000,3.092460205078125,-0.29221853613853455,0.05696981027722359,-0.36325252056121826
1733851532089428500,3.102428466796875,-0.28397712111473083,0.07949855178594589,-0.3440873324871063
1733851532099397400,3.1123974609375,-0.27245762944221497,0.124721959233284,-0.3117222189903259
1733851532109365500,3.122365478515625,-0.266550213098526,0.16926759481430054,-0.2719998359680176
1733851532119333400,3.13233349609375,-0.25635188817977905,0.18414346873760223,-0.2521829903125763
1733851532129302300,3.14230224609375,-0.23867648839950562,0.1810387670993805,-0.24674613773822784
1733851532139270400,3.1522705078125,-0.22103971242904663,0.1842004656791687,-0.2458353340625763
1733851532149238300,3.16223828125,-0.20823416113853455,0.16950248181819916,-0.23406043648719788
1733851532159207400,3.17220751953125,-0.20215283334255219,0.13448937237262726,-0.20849408209323883
1733851532169175300,3.18217529296875,-0.19275639951229095,0.10204487293958664,-0.1970219910144806
1733851532179143400,3.192143310546875,-0.17875750362873077,0.09443782269954681,-0.18018122017383575
1733851532189112300,3.2021123046875,-0.169234037399292,0.09297467768192291,-0.1613612025976181
1733851532199080400,3.21208056640625,-0.16337507963180542,0.08137954771518707,-0.1463731974363327
1733851532209049300,3.22204931640625,-0.16029353439807892,0.061053235083818436,-0.15102653205394745
1733851532219017200,3.232017333984375,-0.15155650675296783,0.023900272324681282,-0.17335394024848938
1733851532228985300,3.2419853515625,-0.1288842111825943,-0.03916657716035843,-0.19774556159973145
1733851532238954200,3.251954345703125,-0.1036643460392952,-0.13238494098186493,-0.2053195983171463
1733851532248922400,3.26192236328125,-0.08229593932628632,-0.24836213886737823,-0.19626325368881226
1733851532258890500,3.271890380859375,-0.06120370328426361,-0.3771957457065582,-0.17330174148082733
1733851532268859400,3.281859375,-0.03820331022143364,-0.46695199608802795,-0.17429697513580322
1733851532278827500,3.29182763671875,-0.0221436507999897,-0.5342751145362854,-0.1958608478307724
1733851532288795400,3.30179541015625,-0.0068025123327970505,-0.5838538408279419,-0.2159416228532791
1733851532298764500,3.3117646484375,0.01239275373518467,-0.5739929676055908,-0.214214026927948
1733851532308732200,3.321732177734375,0.029142972081899643,-0.4967232048511505,-0.18466731905937195
1733851532318700300,3.3317001953125,0.03465864434838295,-0.3677593767642975,-0.14243650436401367
1733851532328669200,3.341669189453125,0.03765150532126427,-0.22263973951339722,-0.12426522374153137
1733851532338637300,3.35163720703125,0.04482286423444748,-0.11334067583084106,-0.1343247890472412
1733851532348606500,3.3616064453125,0.041248369961977005,-0.07160893827676773,-0.15488119423389435
1733851532358574300,3.37157421875,0.030612504109740257,-0.08712185174226761,-0.18271149694919586
1733851532368542500,3.38154248046875,0.020499415695667267,-0.1357293426990509,-0.21650327742099762
1733851532378511400,3.391511474609375,0.0035952674224972725,-0.17550337314605713,-0.25343358516693115
1733851532388479500,3.4014794921875,-0.020252007991075516,-0.20123723149299622,-0.29179883003234863
1733851532398447400,3.411447265625,-0.04848897084593773,-0.21049731969833374,-0.32483959197998047
1733851532408416300,3.421416259765625,-0.08162295818328857,-0.18679624795913696,-0.3328762352466583
1733851532418384400,3.43138427734375,-0.1147361695766449,-0.13867639005184174,-0.31870928406715393
1733851532428352300,3.441352294921875,-0.14013127982616425,-0.07885699719190598,-0.29137325286865234
1733851532438321400,3.4513212890625,-0.1585020273923874,-0.010774617083370686,-0.26778778433799744
1733851532448289300,3.461289306640625,-0.15896062552928925,0.047027431428432465,-0.25233423709869385
1733851532458258400,3.471258544921875,-0.15140549838542938,0.06715133786201477,-0.25356197357177734
1733851532468226600,3.4812265625,-0.13806413114070892,0.017002684995532036,-0.26848870515823364
1733851532478194400,3.4911943359375,-0.11503923684358597,-0.08579932898283005,-0.28608208894729614
1733851532488163600,3.50116357421875,-0.0909552052617073,-0.1744847148656845,-0.2913559377193451
1733851532498131200,3.511131103515625,-0.0712110623717308,-0.21364358067512512,-0.30068153142929077
1733851532508099300,3.521099365234375,-0.05449599772691727,-0.2053520828485489,-0.320088267326355
1733851532518068200,3.531068115234375,-0.0508304238319397,-0.1523655652999878,-0.3348674774169922
1733851532528036400,3.541036376953125,-0.06072832643985748,-0.08198754489421844,-0.3408161699771881
1733851532538004500,3.55100439453125,-0.08621104806661606,-0.015398663468658924,-0.3346749246120453
1733851532547973400,3.560973388671875,-0.12190859764814377,0.01507002953439951,-0.3268042206764221
1733851532557941500,3.57094140625,-0.14283359050750732,-0.03443200886249542,-0.3304266631603241
1733851532567910400,3.580910400390625,-0.15456773340702057,-0.1393994390964508,-0.34429851174354553
1733851532577878500,3.59087841796875,-0.16651654243469238,-0.21911025047302246,-0.34935852885246277
1733851532587846400,3.600846435546875,-0.18113090097904205,-0.24452745914459229,-0.3494008779525757
1733851532597815300,3.610815185546875,-0.19708722829818726,-0.2650202214717865,-0.35861727595329285
1733851532607783400,3.620783447265625,-0.21052208542823792,-0.2959011495113373,-0.36662885546684265
1733851532617751300,3.630751220703125,-0.22348181903362274,-0.31879740953445435,-0.36590102314949036
1733851532627720400,3.640720458984375,-0.23760829865932465,-0.3321622312068939,-0.34665942192077637
1733851532637688300,3.650688232421875,-0.2454928457736969,-0.31822669506073,-0.33395692706108093
1733851532647656400,3.660656494140625,-0.25662487745285034,-0.27443236112594604,-0.3195396363735199
1733851532657625300,3.670625244140625,-0.2667299509048462,-0.23125000298023224,-0.2993616759777069
1733851532667593500,3.680593505859375,-0.26956650614738464,-0.19757433235645294,-0.28650206327438354
1733851532677562400,3.690562255859375,-0.26380661129951477,-0.17081435024738312,-0.28160983324050903
1733851532687530200,3.7005302734375,-0.25203436613082886,-0.16375111043453217,-0.27859461307525635
1733851532697498400,3.710498291015625,-0.2367590069770813,-0.17337657511234283,-0.27376788854599
1733851532707467300,3.72046728515625,-0.22742091119289398,-0.1713472455739975,-0.27173325419425964
1733851532717435400,3.730435302734375,-0.2286670058965683,-0.15419143438339233,-0.2675004005432129
1733851532727403500,3.740403564453125,-0.2291807234287262,-0.13825348019599915,-0.26911401748657227
1733851532737372400,3.750372314453125,-0.22372975945472717,-0.12349104881286621,-0.27428561449050903
1733851532747340500,3.760340576171875,-0.22098910808563232,-0.10491656512022018,-0.26437145471572876
1733851532757308400,3.770308349609375,-0.21931584179401398,-0.12450890243053436,-0.24522599577903748
1733851532767277600,3.780277587890625,-0.22170709073543549,-0.1617007553577423,-0.22942599654197693
1733851532777245200,3.7902451171875,-0.2262733429670334,-0.1635276824235916,-0.22012704610824585
1733851532787214300,3.80021435546875,-0.23063720762729645,-0.11624111980199814,-0.20141033828258514
1733851532797182200,3.81018212890625,-0.22628027200698853,-0.05263551324605942,-0.1759265512228012
1733851532807150300,3.820150390625,-0.21256738901138306,-0.006734601687639952,-0.15663275122642517
1733851532817119200,3.830119140625,-0.18980002403259277,0.03453134372830391,-0.14419925212860107
1733851532827087400,3.84008740234375,-0.17071208357810974,0.091407410800457,-0.13094016909599304
1733851532837055500,3.850055419921875,-0.1514318585395813,0.14473481476306915,-0.12488094717264175
1733851532847024400,3.8600244140625,-0.14908215403556824,0.1720026582479477,-0.12528201937675476
1733851532856992500,3.869992431640625,-0.15680186450481415,0.17359896004199982,-0.1313609480857849
1733851532866960400,3.87996044921875,-0.16705556213855743,0.1587904393672943,-0.13488911092281342
1733851532876929300,3.88992919921875,-0.17815375328063965,0.13606755435466766,-0.14076431095600128
1733851532886897400,3.8998974609375,-0.1882822960615158,0.11563258618116379,-0.15476055443286896
1733851532896866300,3.9098662109375,-0.187295064330101,0.11899510025978088,-0.17040368914604187
1733851532906834400,3.91983447265625,-0.180738627910614,0.1473923772573471,-0.17557822167873383
1733851532916802300,3.92980224609375,-0.15706099569797516,0.1672891229391098,-0.175418421626091
1733851532926771500,3.939771484375,-0.12983949482440948,0.13595624268054962,-0.1699453592300415
1733851532936739300,3.9497392578125,-0.1214103177189827,0.10431788116693497,-0.15263400971889496
1733851532946707500,3.95970751953125,-0.12160792201757431,0.09532225877046585,-0.12088833749294281
1733851532956676600,3.969676513671875,-0.11855380982160568,0.1017220988869667,-0.0838264599442482
1733851532966644200,3.979644287109375,-0.10523214936256409,0.12639309465885162,-0.04556402191519737
1733851532976612400,3.9896123046875,-0.07003740966320038,0.19046129286289215,-0.014104633592069149
1733851532986581200,3.999581298828125,-0.025369804352521896,0.2789003551006317,0.012648683041334152
1733851532996549400,4.00954931640625,0.019039737060666084,0.33058562874794006,0.04288754612207413
1733851533006518300,4.019518310546875,0.053466156125068665,0.3241804838180542,0.08812879025936127
1733851533016486400,4.029486328125,0.07083955407142639,0.3173880875110626,0.13566914200782776
1733851533026454500,4.03945458984375,0.07893343269824982,0.3376917541027069,0.17012380063533783
1733851533036423400,4.04942333984375,0.08352632075548172,0.3640133738517761,0.18277913331985474
1733851533046391600,4.0593916015625,0.08660440146923065,0.3405280113220215,0.17780248820781708
1733851533056359200,4.069359130859375,0.09552119672298431,0.24482040107250214,0.15903545916080475
1733851533066328300,4.079328369140625,0.09853802621364594,0.10973155498504639,0.13142193853855133
1733851533076296400,4.08929638671875,0.10581644624471664,-0.011423896066844463,0.09233605861663818
1733851533086265300,4.099265380859375,0.11268500238656998,-0.10105124861001968,0.0420830063521862
1733851533096232700,4.109232666015625,0.11920388787984848,-0.17437393963336945,0.002406165935099125
1733851533106200600,4.11920068359375,0.116951122879982,-0.2260134220123291,-0.016378706321120262
1733851533116169700,4.129169677734375,0.11390233039855957,-0.2767333388328552,-0.02274339646100998
1733851533126137900,4.139137939453125,0.11330977827310562,-0.3183377683162689,-0.014708106406033039
1733851533136105500,4.14910546875,0.11175795644521713,-0.31756386160850525,0.004898884799331427
1733851533146074600,4.15907470703125,0.1120772659778595,-0.2721305787563324,0.020254937931895256
1733851533156042500,4.16904248046875,0.11613885313272476,-0.2164076715707779,0.03338725119829178
1733851533166010600,4.1790107421875,0.12496697157621384,-0.17770127952098846,0.047140881419181824
1733851533175979500,4.1889794921875,0.12414085865020752,-0.15547508001327515,0.07858695089817047
1733851533185947600,4.19894775390625,0.1267094761133194,-0.1385919600725174,0.10372772812843323
1733851533195916500,4.20891650390625,0.14181040227413177,-0.12313125282526016,0.10571311414241791
1733851533205884700,4.218884765625,0.15997529029846191,-0.10854964703321457,0.09758833795785904
1733851533215852800,4.228852783203125,0.17183753848075867,-0.10928680747747421,0.10224355012178421
1733851533225821700,4.23882177734375,0.17674601078033447,-0.12742426991462708,0.1251549869775772
1733851533235789600,4.24878955078125,0.1787194162607193,-0.16524328291416168,0.1412932127714157
1733851533245757700,4.2587578125,0.18391257524490356,-0.20865653455257416,0.1437222808599472
1733851533255726600,4.2687265625,0.1911901980638504,-0.2326526790857315,0.1328829526901245
1733851533265694700,4.27869482421875,0.20445433259010315,-0.22664858400821686,0.10974220931529999
1733851533275662600,4.28866259765625,0.21737439930438995,-0.21202491223812103,0.09836439043283463
1733851533285631700,4.2986318359375,0.22926488518714905,-0.19475483894348145,0.10199454426765442
1733851533295599600,4.308599609375,0.23346495628356934,-0.16498468816280365,0.11473537236452103
1733851533305568800,4.31856884765625,0.22778655588626862,-0.1113763228058815,0.12996172904968262
1733851533315536600,4.32853662109375,0.21779757738113403,-0.0383782833814621,0.14620354771614075
1733851533325504500,4.33850439453125,0.2089761197566986,0.025910958647727966,0.15619146823883057
1733851533335473700,4.3484736328125,0.20863257348537445,0.06499231606721878,0.15318821370601654
1733851533345441500,4.358441650390625,0.2133980244398117,0.07679145038127899,0.1585417091846466
1733851533355409700,4.36840966796875,0.21976111829280853,0.04493578150868416,0.16664330661296844
1733851533365378600,4.378378662109375,0.22993838787078857,-0.01161404512822628,0.16836531460285187
1733851533375346700,4.3883466796875,0.23740269243717194,-0.05465126037597656,0.16560786962509155
1733851533385314800,4.398314697265625,0.24862553179264069,-0.09447403997182846,0.16120193898677826
1733851533395283700,4.40828369140625,0.26573446393013,-0.14786189794540405,0.16725237667560577
1733851533405251600,4.41825146484375,0.27724385261535645,-0.21084779500961304,0.18609343469142914
1733851533415220700,4.428220703125,0.28140610456466675,-0.2613903284072876,0.2163192480802536
1733851533425188600,4.438188720703125,0.28085216879844666,-0.28590020537376404,0.24306458234786987
1733851533435156500,4.448156494140625,0.28040051460266113,-0.30029618740081787,0.24705559015274048
1733851533445125600,4.458125732421875,0.28170517086982727,-0.3071383833885193,0.23647326231002808
1733851533455093500,4.468093505859375,0.2757200002670288,-0.31865495443344116,0.23701414465904236
1733851533465061600,4.4780615234375,0.2637874484062195,-0.3358624279499054,0.25475984811782837
1733851533475030800,4.48803076171875,0.24899651110172272,-0.36791250109672546,0.2764582335948944
1733851533484998700,4.49799853515625,0.2308441400527954,-0.3922117054462433,0.2949890196323395
1733851533494966500,4.507966552734375,0.21625639498233795,-0.3827870488166809,0.30751946568489075
1733851533504935400,4.517935302734375,0.20126387476921082,-0.3405053913593292,0.3204967975616455
1733851533514903600,4.527903564453125,0.18898776173591614,-0.2885470986366272,0.3291033208370209
1733851533524872400,4.53787255859375,0.16983909904956818,-0.22874848544597626,0.33597826957702637
1733851533534840600,4.547840576171875,0.14390577375888824,-0.17289401590824127,0.3420731723308563
1733851533544808700,4.55780859375,0.11913331598043442,-0.14148841798305511,0.3569362759590149
1733851533554777600,4.567777587890625,0.10333970189094543,-0.13512666523456573,0.3704821765422821
1733851533564745700,4.577745849609375,0.09915135055780411,-0.13693414628505707,0.37608814239501953
1733851533574713600,4.587713623046875,0.10279428958892822,-0.14682964980602264,0.3869461119174957
1733851533584682800,4.597682861328125,0.11083730310201645,-0.16123922169208527,0.4081731140613556
1733851533594650600,4.607650634765625,0.1177482008934021,-0.1735808402299881,0.4408213198184967
1733851533604619500,4.61761962890625,0.13009755313396454,-0.16822496056556702,0.460334837436676
1733851533614587600,4.627587646484375,0.1421336978673935,-0.14692473411560059,0.467691570520401
1733851533624555500,4.637555419921875,0.14905552566051483,-0.11447092145681381,0.4764384627342224
1733851533634524700,4.647524658203125,0.1541871726512909,-0.09272913634777069,0.49413755536079407
1733851533644492500,4.657492431640625,0.16113989055156708,-0.10020250082015991,0.5118832588195801
1733851533654460700,4.667460693359375,0.17719262838363647,-0.12488041818141937,0.5236789584159851
1733851533664429600,4.6774296875,0.19372659921646118,-0.14273664355278015,0.5261804461479187
1733851533674397700,4.687397705078125,0.21252025663852692,-0.14857402443885803,0.5216085910797119
1733851533684365600,4.697365478515625,0.22999431192874908,-0.16357135772705078,0.5164836049079895
1733851533694334500,4.70733447265625,0.23983895778656006,-0.19214947521686554,0.5102611184120178
1733851533704302600,4.717302490234375,0.24642042815685272,-0.22231855988502502,0.5109474062919617
1733851533714271500,4.727271484375,0.24682842195034027,-0.22710318863391876,0.5115610361099243
1733851533724239600,4.737239501953125,0.23659630119800568,-0.20502345263957977,0.5157893300056458
1733851533734207700,4.747207763671875,0.21927429735660553,-0.19570478796958923,0.523776650428772
1733851533744176600,4.7571767578125,0.21040570735931396,-0.21842262148857117,0.5317445993423462
1733851533754144800,4.767144775390625,0.21025416254997253,-0.26029524207115173,0.5333331823348999
1733851533764112600,4.777112548828125,0.21574880182743073,-0.28734976053237915,0.5404075980186462
1733851533774081800,4.787081787109375,0.2129136025905609,-0.28316378593444824,0.5455043315887451
1733851533784049400,4.79704931640625,0.2090245932340622,-0.25994688272476196,0.5638583302497864
1733851533794017500,4.807017578125,0.20659898221492767,-0.22206954658031464,0.5841590762138367
1733851533803986400,4.816986328125,0.20904162526130676,-0.1720881462097168,0.6077530384063721
1733851533813954600,4.82695458984375,0.21829745173454285,-0.11817244440317154,0.6221383810043335
1733851533823923700,4.836923828125,0.23121723532676697,-0.0812477171421051,0.6267432570457458
1733851533833891600,4.8468916015625,0.24356472492218018,-0.08037393540143967,0.6252875924110413
1733851533843859700,4.856859619140625,0.2616366744041443,-0.11551567912101746,0.6187995672225952
1733851533853828600,4.86682861328125,0.27450504899024963,-0.15457066893577576,0.5937643051147461
1733851533863796700,4.876796630859375,0.2692253589630127,-0.1660694032907486,0.5474631190299988
1733851533873764600,4.8867646484375,0.2624492049217224,-0.16091245412826538,0.4901641011238098
1733851533883733500,4.8967333984375,0.2575220763683319,-0.1660187989473343,0.4326488971710205
1733851533893701600,4.90670166015625,0.26755261421203613,-0.18783462047576904,0.37945252656936646
1733851533903670500,4.91667041015625,0.28827574849128723,-0.23808394372463226,0.3422657251358032
1733851533913638700,4.926638671875,0.29876700043678284,-0.31641441583633423,0.33379316329956055
1733851533923606500,4.9366064453125,0.29861384630203247,-0.4188358783721924,0.361219197511673
1733851533933575700,4.94657568359375,0.3053085207939148,-0.5208078026771545,0.40730199217796326
1733851533943543600,4.95654345703125,0.3155827224254608,-0.5892587304115295,0.44718337059020996
1733851533953511700,4.96651171875,0.33545202016830444,-0.604011058807373,0.48227638006210327
1733851533963480800,4.976480712890625,0.35728195309638977,-0.563442051410675,0.5166412591934204
1733851533973448400,4.986448486328125,0.37016767263412476,-0.4884202778339386,0.5627642869949341
1733851533983417600,4.99641748046875,0.3639790117740631,-0.4278078079223633,0.6077274680137634
1733851533993385500,5.006385498046875,0.3378177285194397,-0.3973473608493805,0.6166027188301086
1733851534003353600,5.016353515625,0.3054986596107483,-0.39197948575019836,0.6117967963218689
1733851534013322500,5.026322509765625,0.27913814783096313,-0.42134031653404236,0.6079291105270386
1733851534023290600,5.03629052734375,0.26926714181900024,-0.4932403266429901,0.6124122738838196
1733851534033258800,5.0462587890625,0.2682993710041046,-0.5810967087745667,0.6174773573875427
1733851534043227600,5.0562275390625,0.2737590968608856,-0.6321178078651428,0.6070153713226318
1733851534053195800,5.06619580078125,0.29196926951408386,-0.6103003621101379,0.5940159559249878
1733851534063163400,5.076163330078125,0.311907559633255,-0.5190492868423462,0.5914614200592041
1733851534073132500,5.086132568359375,0.3242776691913605,-0.392979234457016,0.5887532830238342
1733851534083100700,5.0961005859375,0.31550124287605286,-0.28419336676597595,0.5907495617866516
1733851534093070000,5.106070068359375,0.2852320075035095,-0.2194652408361435,0.5972873568534851
1733851534103038000,5.116037841796875,0.23558802902698517,-0.2040703147649765,0.5949227809906006
1733851534113006000,5.126006103515625,0.19564352929592133,-0.2237902134656906,0.5860264897346497
1733851534122975200,5.135975341796875,0.16522809863090515,-0.2606326639652252,0.5737218856811523
1733851534132943000,5.145943115234375,0.15160709619522095,-0.3094763457775116,0.5516562461853027
1733851534142911200,5.1559111328125,0.16462942957878113,-0.35184699296951294,0.5270001888275146
1733851534152880000,5.165880126953125,0.1968265175819397,-0.36985528469085693,0.49564889073371887
1733851534162848300,5.17584814453125,0.23858487606048584,-0.34365323185920715,0.45754945278167725
1733851534172817200,5.185817138671875,0.2715955674648285,-0.2981235682964325,0.4268607795238495
1733851534182785000,5.195784912109375,0.29838696122169495,-0.2613879144191742,0.41760602593421936
1733851534192753200,5.205753173828125,0.304061621427536,-0.26355788111686707,0.4276235103607178
1733851534202722000,5.21572216796875,0.29973798990249634,-0.2928025722503662,0.4355256259441376
1733851534212690200,5.225690185546875,0.2942073941230774,-0.34435656666755676,0.436276912689209
1733851534222658000,5.235657958984375,0.3018573224544525,-0.4040031433105469,0.43192291259765625
1733851534232627200,5.245627197265625,0.3081192076206207,-0.44767364859580994,0.4238993525505066
1733851534242595000,5.255594970703125,0.31101006269454956,-0.46037745475769043,0.40888896584510803
1733851534252563200,5.265563232421875,0.29588037729263306,-0.4256373345851898,0.4035400152206421
1733851534262532400,5.275532470703125,0.2662647068500519,-0.3605011999607086,0.4194052517414093
1733851534272500000,5.2855,0.2296457141637802,-0.290275514125824,0.4436549246311188
1733851534282469000,5.29546923828125,0.19502009451389313,-0.24236150085926056,0.4584714472293854
1733851534292437000,5.30543701171875,0.16053615510463715,-0.240944966673851,0.4678228497505188
1733851534302405000,5.315405029296875,0.1342611312866211,-0.2759237289428711,0.4599494934082031
1733851534312374000,5.3253740234375,0.13183605670928955,-0.3318716883659363,0.43189653754234314
1733851534322342100,5.335342041015625,0.1588655412197113,-0.3760226368904114,0.3949848711490631
1733851534332310300,5.345310302734375,0.20480774343013763,-0.3912804126739502,0.3507119417190552
1733851534342279200,5.355279052734375,0.25206393003463745,-0.367088258266449,0.3057338297367096
1733851534352247300,5.365247314453125,0.2858485281467438,-0.3214006721973419,0.2685648798942566
1733851534362216200,5.37521630859375,0.2885385751724243,-0.28281012177467346,0.24703428149223328
1733851534372184000,5.38518408203125,0.27075159549713135,-0.27030766010284424,0.23731960356235504
1733851534382152200,5.395152099609375,0.2509206533432007,-0.3013595640659332,0.23124893009662628
1733851534392121000,5.40512109375,0.23977157473564148,-0.3570907413959503,0.2266046404838562
1733851534402089200,5.415089111328125,0.24130024015903473,-0.4103555679321289,0.22555376589298248
1733851534412057000,5.42505712890625,0.2571377754211426,-0.4387459456920624,0.22961002588272095
1733851534422026200,5.435026123046875,0.27092257142066956,-0.4254969656467438,0.23725329339504242
1733851534431994000,5.444994140625,0.28428179025650024,-0.35858824849128723,0.25337713956832886
1733851534441963300,5.45496337890625,0.2888840138912201,-0.25033634901046753,0.29094448685646057
1733851534451931100,5.46493115234375,0.2695193588733673,-0.1548798531293869,0.3444870710372925
1733851534461899000,5.47489892578125,0.21827134490013123,-0.12249235808849335,0.3862699270248413
1733851534471868200,5.4848681640625,0.15363696217536926,-0.15594859421253204,0.40891239047050476
1733851534481836000,5.4948359375,0.09837823361158371,-0.1905776709318161,0.4284970164299011
1733851534491804200,5.50480419921875,0.06492626667022705,-0.2036503255367279,0.44417932629585266
1733851534501773000,5.51477294921875,0.05536072701215744,-0.21268349885940552,0.4357927441596985
1733851534511741200,5.5247412109375,0.06682457029819489,-0.23282365500926971,0.3891693353652954
1733851534521709300,5.534709228515625,0.09548444300889969,-0.2561228573322296,0.30505871772766113
1733851534531678200,5.54467822265625,0.12901337444782257,-0.2657616436481476,0.21282652020454407
1733851534541646000,5.55464599609375,0.1556905210018158,-0.24101048707962036,0.1413659155368805
1733851534551615200,5.564615234375,0.1686425507068634,-0.19421660900115967,0.10574107617139816
1733851534561583000,5.5745830078125,0.17045269906520844,-0.14317180216312408,0.09689299017190933
1733851534571551000,5.584551025390625,0.1604999303817749,-0.11983106285333633,0.10361986607313156
1733851534581520100,5.59452001953125,0.14889679849147797,-0.12891483306884766,0.11102186143398285
1733851534591488000,5.604488037109375,0.13814881443977356,-0.16401450335979462,0.10166537761688232
1733851534601456000,5.6144560546875,0.13063710927963257,-0.19338171184062958,0.08109112083911896
1733851534611425300,5.62442529296875,0.1319977194070816,-0.18861572444438934,0.05281314626336098
1733851534621393200,5.63439306640625,0.13641643524169922,-0.14085032045841217,0.03515718877315521
1733851534631361000,5.644361083984375,0.14129161834716797,-0.07647959142923355,0.03339284285902977
1733851534641330000,5.654329833984375,0.1282607614994049,-0.022409968078136444,0.04633660614490509
1733851534651298000,5.664298095703125,0.09854308515787125,0.022668028250336647,0.07525373995304108
1733851534661267000,5.674266845703125,0.06125989556312561,0.06174458935856819,0.10877840965986252
1733851534671235000,5.684235107421875,0.018692728132009506,0.07706202566623688,0.12748658657073975
1733851534681203200,5.694203125,-0.031915321946144104,0.07099881023168564,0.13046853244304657
1733851534691172000,5.704172119140625,-0.07078202813863754,0.053045108914375305,0.11674019694328308
1733851534701140200,5.71414013671875,-0.08666831254959106,0.040826261043548584,0.07457490265369415
1733851534711108000,5.724108154296875,-0.07169735431671143,0.05118488892912865,0.02503611147403717
1733851534721077200,5.7340771484375,-0.03819265961647034,0.08625659346580505,-0.014375210739672184
1733851534731045000,5.744045166015625,-0.005311142187565565,0.11076832562685013,-0.04580477252602577
1733851534741014000,5.754013916015625,0.02263500541448593,0.0979289636015892,-0.0668589249253273
1733851534750982100,5.763982177734375,0.028257204219698906,0.06060235947370529,-0.08313190191984177
1733851534760950000,5.773949951171875,0.0269559845328331,0.01306120678782463,-0.08230818808078766
1733851534770919200,5.783919189453125,0.014552044682204723,-0.030252177268266678,-0.06866135448217392
1733851534780887000,5.793886962890625,-0.0025723471771925688,-0.04812891408801079,-0.06255792081356049
1733851534790855200,5.803855224609375,-0.020302075892686844,-0.04984612017869949,-0.06296645104885101
1733851534800824000,5.813823974609375,-0.03798013925552368,-0.02569497749209404,-0.06566343456506729
1733851534810792200,5.823792236328125,-0.04854676127433777,0.019510850310325623,-0.07060332596302032
1733851534820761000,5.833760986328125,-0.05065092816948891,0.06532520800828934,-0.07638398557901382
1733851534830729000,5.84372900390625,-0.048356879502534866,0.09760937839746475,-0.08855196833610535
1733851534840697000,5.853697021484375,-0.048474591225385666,0.12708790600299835,-0.09660829603672028
1733851534850666000,5.863666015625,-0.04972175136208534,0.14205513894557953,-0.09916999191045761
1733851534860634000,5.873634033203125,-0.05246507376432419,0.1325916051864624,-0.09808235615491867
1733851534870602200,5.883602294921875,-0.05177078768610954,0.1147787794470787,-0.08891788870096207
1733851534880571100,5.893571044921875,-0.04198659956455231,0.09778541326522827,-0.08024610579013824
1733851534890539300,5.903539306640625,-0.03020424209535122,0.07950068265199661,-0.07267793267965317
1733851534900508200,5.913508056640625,-0.02437671273946762,0.06386633217334747,-0.06181676313281059
1733851534910476300,5.923476318359375,-0.02659113146364689,0.06719288229942322,-0.05170580372214317
1733851534920444000,5.93344384765625,-0.03846802935004234,0.08935011923313141,-0.04357224330306053
1733851534930413000,5.9434130859375,-0.06738995760679245,0.11419767886400223,-0.04983067139983177
1733851534940381000,5.953380859375,-0.10528328269720078,0.14697213470935822,-0.07087497413158417
1733851534950349000,5.96334912109375,-0.13452531397342682,0.18919283151626587,-0.08784809708595276
1733851534960318200,5.973318115234375,-0.14036083221435547,0.22971974313259125,-0.08978820592164993
1733851534970286000,5.9832861328125,-0.13262009620666504,0.24959838390350342,-0.08360088616609573
1733851534980254200,5.993254150390625,-0.11307781934738159,0.24186402559280396,-0.0760745257139206
1733851534990223000,6.00322314453125,-0.08374869078397751,0.2219981700181961,-0.0707830935716629
1733851535000191200,6.013191162109375,-0.05438334867358208,0.20486658811569214,-0.0683809220790863
1733851535010160000,6.02316015625,-0.03344344347715378,0.18345078825950623,-0.062846340239048
1733851535020128000,6.0331279296875,-0.02371944487094879,0.16057395935058594,-0.06347218155860901
1733851535030096100,6.04309619140625,-0.01769670471549034,0.1372271031141281,-0.06281837821006775
1733851535040065000,6.05306494140625,-0.02088424190878868,0.12888021767139435,-0.06120423600077629
1733851535050033200,6.063033203125,-0.03297312930226326,0.13667209446430206,-0.05555940046906471
1733851535060001000,6.0730009765625,-0.04766445606946945,0.13539351522922516,-0.05007701367139816
1733851535069970200,6.08297021484375,-0.06748104095458984,0.11662914603948593,-0.055512528866529465
1733851535079938000,6.09293798828125,-0.08003091812133789,0.09577872604131699,-0.07467211037874222
1733851535089907200,6.1029072265625,-0.0784817561507225,0.09393155574798584,-0.10040570050477982
1733851535099875300,6.112875244140625,-0.0643124133348465,0.10387606173753738,-0.12676779925823212
1733851535109843200,6.12284326171875,-0.03983183577656746,0.11138298362493515,-0.14722779393196106
1733851535119812400,6.132812255859375,-0.011281150393188,0.11559237539768219,-0.16251140832901
1733851535129780000,6.142780029296875,0.014238590374588966,0.10773977637290955,-0.16079527139663696
1733851535139748000,6.152748046875,0.027454527094960213,0.10433173179626465,-0.14101597666740417
1733851535149717000,6.162717041015625,0.027835626155138016,0.11527119576931,-0.1155305877327919
1733851535159685000,6.17268505859375,0.02069329470396042,0.13964471220970154,-0.08901109546422958
1733851535169654000,6.182654052734375,0.015410381369292736,0.16849100589752197,-0.06583866477012634
1733851535179622100,6.1926220703125,0.016022110357880592,0.1894247829914093,-0.058750398457050323
1733851535189590300,6.20259033203125,0.022964704781770706,0.18444468080997467,-0.06355394423007965
1733851535199559200,6.21255908203125,0.04113944619894028,0.16400384902954102,-0.07251468300819397
1733851535209527300,6.22252734375,0.06793617457151413,0.14718785881996155,-0.07086405158042908
1733851535219495200,6.2324951171875,0.08385921269655228,0.13968785107135773,-0.06232436001300812
1733851535229464000,6.242464111328125,0.0859585851430893,0.13450774550437927,-0.052858952432870865
1733851535239432200,6.25243212890625,0.07897604256868362,0.12340395897626877,-0.047504402697086334
1733851535249401000,6.262401123046875,0.07496052980422974,0.11000586301088333,-0.048227716237306595
1733851535259369200,6.272369140625,0.06975005567073822,0.09863656014204025,-0.04590064659714699
1733851535269337000,6.282337158203125,0.06532760709524155,0.07633604854345322,-0.041910964995622635
1733851535279306200,6.29230615234375,0.06012485548853874,0.03720435872673988,-0.043953608721494675
1733851535289274000,6.302274169921875,0.056280314922332764,0.007013434544205666,-0.05283711478114128
1733851535299242200,6.3122421875,0.06094857305288315,0.010353305377066135,-0.0574723482131958
1733851535309211100,6.322211181640625,0.06774070113897324,0.03320988640189171,-0.05764998123049736
1733851535319179000,6.332178955078125,0.07149975001811981,0.04435441642999649,-0.058214303106069565
1733851535329147100,6.342147216796875,0.06463439017534256,0.04429023340344429,-0.06581763178110123
1733851535339116000,6.352115966796875,0.05705023556947708,0.04381512477993965,-0.07993504405021667
1733851535349084200,6.362084228515625,0.04637628793716431,0.038953524082899094,-0.08620546013116837
1733851535359053000,6.372052978515625,0.03832262009382248,0.02008902281522751,-0.0799771249294281
1733851535369021200,6.382021240234375,0.034156106412410736,-0.00021385183208622038,-0.06308922171592712
1733851535378989300,6.3919892578125,0.03868001699447632,-0.00547386147081852,-0.04369474947452545
1733851535388958200,6.401958251953125,0.06107507273554802,0.001377653214149177,-0.028718730434775352
1733851535398926300,6.41192626953125,0.08510983735322952,0.004534031730145216,-0.01967090740799904
1733851535408894000,6.42189404296875,0.09863816201686859,-0.0029944581910967827,-0.011112039908766747
1733851535418863000,6.431863037109375,0.09982539713382721,-0.011365572921931744,-0.011199657805263996
1733851535428831000,6.4418310546875,0.09631428867578506,-0.02142486535012722,-0.020015519112348557
1733851535438800100,6.451800048828125,0.0878819152712822,-0.02750486135482788,-0.031128358095884323
1733851535448768300,6.461768310546875,0.07946206629276276,-0.017558487132191658,-0.03362720087170601
1733851535458736000,6.471736083984375,0.08303070068359375,-0.0033422671258449554,-0.02358229085803032
1733851535468705300,6.481705322265625,0.09811671078205109,-0.001978195970878005,-0.008653142489492893
1733851535478673200,6.491673095703125,0.11832105368375778,-0.006354568526148796,0.0014674017438665032
1733851535488641300,6.501641357421875,0.14089800417423248,-0.00896712951362133,-0.002621349412947893
1733851535498610200,6.511610107421875,0.14952051639556885,-0.010721353814005852,-0.013408216647803783
1733851535508578000,6.521578125,0.1372009962797165,-0.013228453695774078,-0.02581801451742649
1733851535518547000,6.531546875,0.10967935621738434,-0.0036187032237648964,-0.03205753490328789
1733851535528515000,6.54151513671875,0.08366906642913818,0.0030919299460947514,-0.03423387184739113
1733851535538483200,6.551483154296875,0.07201506942510605,-0.027581026777625084,-0.03002714179456234
1733851535548452000,6.5614521484375,0.07896432280540466,-0.0889277383685112,-0.015675365924835205
1733851535558420200,6.571420166015625,0.10780129581689835,-0.15270192921161652,0.011981029063463211
1733851535568388000,6.58138818359375,0.1689424216747284,-0.21770089864730835,0.04811932519078255
1733851535578357200,6.591357177734375,0.23709644377231598,-0.25081199407577515,0.07890919595956802
1733851535588325400,6.601325439453125,0.29450833797454834,-0.23631346225738525,0.08767738938331604
1733851535598294300,6.611294189453125,0.32033538818359375,-0.19529838860034943,0.0679103434085846
1733851535608262100,6.62126220703125,0.29237326979637146,-0.1423206627368927,0.020966799929738045
1733851535618230000,6.63122998046875,0.19865290820598602,-0.11036139726638794,-0.051526039838790894
1733851535628199200,6.64119921875,0.07329365611076355,-0.11099469661712646,-0.13534396886825562
1733851535638167000,6.6511669921875,-0.017424795776605606,-0.12381727993488312,-0.20069049298763275
1733851535648135200,6.66113525390625,-0.04054316505789757,-0.11006205528974533,-0.22752690315246582
1733851535658104000,6.67110400390625,-0.020915402099490166,-0.06070196256041527,-0.22233906388282776
1733851535668072200,6.681072265625,0.012367719784379005,-0.01065370999276638,-0.21626386046409607
1733851535678041300,6.691041259765625,0.04662928730249405,0.01010909304022789,-0.22549836337566376
1733851535688009200,6.70100927734375,0.0729125589132309,0.00643712654709816,-0.2528255879878998
1733851535697977000,6.71097705078125,0.08598335087299347,0.010771687142550945,-0.2917996346950531
1733851535707946000,6.720946044921875,0.08341047167778015,0.032936111092567444,-0.3254052698612213
1733851535717914000,6.7309140625,0.07302281260490417,0.07594615966081619,-0.3486945927143097
1733851535727882200,6.74088232421875,0.04933213070034981,0.1241200864315033,-0.3630397319793701
1733851535737851100,6.75085107421875,0.016211992129683495,0.1413685828447342,-0.3710169494152069
1733851535747819300,6.7608193359375,-0.012049471959471703,0.10461243242025375,-0.3603706955909729
1733851535757788200,6.7707880859375,-0.022538332268595695,0.03933302313089371,-0.34998011589050293
1733851535767756300,6.78075634765625,-0.011358382180333138,0.0007632619817741215,-0.3395935297012329
1733851535777724200,6.79072412109375,0.028192488476634026,0.016765663400292397,-0.33363255858421326
1733851535787693300,6.800693359375,0.07670516520738602,0.08431461453437805,-0.3232523500919342
1733851535797661200,6.8106611328125,0.1153753250837326,0.18044407665729523,-0.3172205686569214
1733851535807629000,6.820629150390625,0.12379970401525497,0.270964652299881,-0.3290146291255951
1733851535817598200,6.83059814453125,0.10792913287878036,0.3294884264469147,-0.35257455706596375
1733851535827566000,6.840566162109375,0.06299813836812973,0.3528890907764435,-0.3850390315055847
1733851535837534200,6.8505341796875,0.011590609326958656,0.36227646470069885,-0.42372915148735046
1733851535847503000,6.860503173828125,-0.02804867923259735,0.36021968722343445,-0.46593841910362244
1733851535857471200,6.87047119140625,-0.03891890496015549,0.34856465458869934,-0.4917793273925781
1733851535867440000,6.880440185546875,-0.02112366072833538,0.32722845673561096,-0.4972284138202667
1733851535877408300,6.890408203125,0.02225630357861519,0.3120367228984833,-0.49373728036880493
1733851535887376100,6.900376220703125,0.08109725266695023,0.2965376675128937,-0.49104082584381104
1733851535897345000,6.910344970703125,0.12812946736812592,0.2746664583683014,-0.4844100773334503
1733851535907313200,6.920313232421875,0.1449505239725113,0.24326005578041077,-0.4677693247795105
1733851535917281000,6.930281005859375,0.1380542814731598,0.21122649312019348,-0.4503658413887024
1733851535927250200,6.940250244140625,0.11372017115354538,0.19005276262760162,-0.4367869198322296
1733851535937218300,6.95021826171875,0.08407972007989883,0.19066768884658813,-0.43295276165008545
1733851535947187200,6.960187255859375,0.04578613117337227,0.20980621874332428,-0.435374915599823
1733851535957155300,6.9701552734375,0.008726113475859165,0.23158688843250275,-0.44183972477912903
1733851535967123200,6.980123291015625,-0.016210129484534264,0.2626265585422516,-0.4547707140445709
1733851535977092400,6.99009228515625,-0.03015151061117649,0.300105482339859,-0.4786757826805115
1733851535987060000,7.00006005859375,-0.030300114303827286,0.34223270416259766,-0.5077193975448608
1733851535997028000,7.010028076171875,-0.03339444100856781,0.385733038187027,-0.5401705503463745
1733851536006997000,7.0199970703125,-0.04145396500825882,0.4091441035270691,-0.5560981035232544
1733851536016965000,7.029965087890625,-0.05631626769900322,0.38466644287109375,-0.5474165081977844
1733851536026934300,7.039934326171875,-0.07068055868148804,0.32402974367141724,-0.5217132568359375
1733851536036902100,7.049902099609375,-0.08361925929784775,0.2601112127304077,-0.49387070536613464
1733851536046870300,7.059870361328125,-0.08916077017784119,0.21292132139205933,-0.47612711787223816
1733851536056839200,7.069839111328125,-0.09335365146398544,0.20743867754936218,-0.4658193588256836
1733851536066807300,7.079807373046875,-0.08490290492773056,0.24660524725914001,-0.46308615803718567
1733851536076775200,7.089775146484375,-0.06920916587114334,0.31185269355773926,-0.4679807722568512
1733851536086744000,7.099744140625,-0.04969991371035576,0.3792991042137146,-0.4662902057170868
1733851536096712200,7.109712158203125,-0.036973465234041214,0.43660154938697815,-0.47277528047561646
1733851536106681000,7.11968115234375,-0.02761831134557724,0.4731598198413849,-0.4794137477874756
1733851536116649200,7.129649169921875,-0.02021392434835434,0.4782733619213104,-0.48230114579200745
1733851536126617000,7.1396171875,-0.01674063131213188,0.44055768847465515,-0.47830745577812195
1733851536136586200,7.149586181640625,-0.02166215144097805,0.36929547786712646,-0.47057604789733887
1733851536146554000,7.15955419921875,-0.03592950478196144,0.28822141885757446,-0.4645112156867981
1733851536156522000,7.16952197265625,-0.04512539878487587,0.22762756049633026,-0.4718612730503082
1733851536166491100,7.1794912109375,-0.04995078220963478,0.2056431770324707,-0.4869059920310974
1733851536176459000,7.189458984375,-0.05295083299279213,0.22052544355392456,-0.5021169185638428
1733851536186428200,7.19942822265625,-0.05964788421988487,0.2518532872200012,-0.49822762608528137
1733851536196396000,7.20939599609375,-0.07454826682806015,0.2883191406726837,-0.4728570282459259
1733851536206364200,7.2193642578125,-0.09413235634565353,0.31997907161712646,-0.4368782639503479
1733851536216333000,7.2293330078125,-0.10890118032693863,0.3354496359825134,-0.4029029905796051
1733851536226301200,7.23930126953125,-0.12085717916488647,0.3175193667411804,-0.37280553579330444
1733851536236269300,7.249269287109375,-0.13298813998699188,0.2686794102191925,-0.3560294806957245
1733851536246238200,7.25923828125,-0.14420777559280396,0.2069838047027588,-0.3638541102409363
1733851536256206000,7.2692060546875,-0.15776672959327698,0.15570490062236786,-0.3957923352718353
1733851536266175000,7.279175048828125,-0.16225016117095947,0.12704770267009735,-0.44515350461006165
1733851536276143000,7.28914306640625,-0.1650102585554123,0.09983018785715103,-0.48696431517601013
1733851536286111200,7.299111328125,-0.16337960958480835,0.07586227357387543,-0.5093034505844116
1733851536296080100,7.309080078125,-0.1668688803911209,0.037512488663196564,-0.4953112006187439
1733851536306048300,7.31904833984375,-0.18161986768245697,-0.006000102031975985,-0.4525624215602875
1733851536316016000,7.32901611328125,-0.2009943574666977,-0.0361446887254715,-0.40984582901000977
1733851536325985300,7.3389853515625,-0.2169637382030487,-0.03904833272099495,-0.3897552192211151
1733851536335953200,7.348953125,-0.2309703677892685,-0.0075780246406793594,-0.40450993180274963
1733851536345922300,7.35892236328125,-0.23320423066616058,0.03765390068292618,-0.4455873370170593
1733851536355890000,7.368889892578125,-0.2353547215461731,0.05914587900042534,-0.490254670381546
1733851536365858000,7.378858154296875,-0.23890632390975952,0.027729365974664688,-0.5208615660667419
1733851536375827200,7.3888271484375,-0.24876321852207184,-0.037869617342948914,-0.5348570346832275
1733851536385795000,7.398795166015625,-0.2596651315689087,-0.09913110733032227,-0.5391769409179688
1733851536395763200,7.40876318359375,-0.26689136028289795,-0.12976039946079254,-0.5318934321403503
1733851536405732000,7.418732177734375,-0.27340224385261536,-0.14911651611328125,-0.5070613622665405
1733851536415700200,7.4287001953125,-0.2877444326877594,-0.1904783397912979,-0.4570152163505554
1733851536425668000,7.438668212890625,-0.3010442554950714,-0.22234944999217987,-0.4019607603549957
1733851536435637200,7.44863720703125,-0.29216182231903076,-0.19876235723495483,-0.37587615847587585
1733851536445605000,7.458605224609375,-0.261325865983963,-0.11174596846103668,-0.38622865080833435
1733851536455574000,7.468573974609375,-0.22343628108501434,-0.024353809654712677,-0.41079020500183105
1733851536465542100,7.478542236328125,-0.1996190994977951,0.01161537691950798,-0.4296658933162689
1733851536475510000,7.488510009765625,-0.2008068710565567,-0.006311958190053701,-0.4402924180030823
1733851536485479200,7.498479248046875,-0.22325731813907623,-0.0765317901968956,-0.4443223178386688
1733851536495447000,7.508447021484375,-0.2519662082195282,-0.16169223189353943,-0.44095689058303833
1733851536505416200,7.518416259765625,-0.26910391449928284,-0.227289080619812,-0.4409414529800415
1733851536515384300,7.52838427734375,-0.27128422260284424,-0.24959757924079895,-0.43431204557418823
1733851536525352000,7.53835205078125,-0.26447585225105286,-0.22672954201698303,-0.42709699273109436
1733851536535321300,7.5483212890625,-0.24668487906455994,-0.1539275199174881,-0.4158720374107361
1733851536545289000,7.5582890625,-0.21933874487876892,-0.056173257529735565,-0.39706718921661377
1733851536555257000,7.568257080078125,-0.19414684176445007,0.0328357107937336,-0.3680379390716553
1733851536565226000,7.57822607421875,-0.1809902936220169,0.08738097548484802,-0.3353542983531952
1733851536575194000,7.588194091796875,-0.17796361446380615,0.11550316214561462,-0.31395605206489563
1733851536585162200,7.598162353515625,-0.1764083206653595,0.11839854717254639,-0.3072294592857361
1733851536595131100,7.608131103515625,-0.1758916676044464,0.09616141766309738,-0.30983829498291016
1733851536605099300,7.618099365234375,-0.17748770117759705,0.04745353385806084,-0.31611907482147217
1733851536615068200,7.628068115234375,-0.17007878422737122,-0.02033456601202488,-0.3265826404094696
1733851536625036000,7.6380361328125,-0.15359142422676086,-0.08051455020904541,-0.33579665422439575
1733851536635004200,7.648004150390625,-0.1357698142528534,-0.12059725075960159,-0.3440955877304077
1733851536644973000,7.65797314453125,-0.12459039688110352,-0.134212926030159,-0.3451688587665558
1733851536654941200,7.667941162109375,-0.1154128760099411,-0.12215307354927063,-0.33727577328681946
1733851536664910000,7.67791015625,-0.11109136790037155,-0.09603172540664673,-0.31860700249671936
1733851536674878200,7.687878173828125,-0.11296170204877853,-0.07210242003202438,-0.2966921329498291
1733851536684846000,7.69784619140625,-0.11116939783096313,-0.061827946454286575,-0.2739633619785309
1733851536694815200,7.707815185546875,-0.1027412936091423,-0.04821839556097984,-0.2601945698261261
1733851536704783000,7.717783203125,-0.08506882190704346,-0.02576368674635887,-0.25261175632476807
1733851536714751000,7.7277509765625,-0.06533799320459366,-0.0002426139690214768,-0.2509153187274933
1733851536724720000,7.73772021484375,-0.0509694404900074,-0.0010484865633770823,-0.2575415372848511
1733851536734688000,7.74768798828125,-0.05134041979908943,-0.05279424041509628,-0.25830504298210144
1733851536744656100,7.75765625,-0.05686168372631073,-0.12231525778770447,-0.26548439264297485
1733851536754625000,7.767625,-0.05548030138015747,-0.1614091396331787,-0.2816162407398224
1733851536764593200,7.77759326171875,-0.05018514022231102,-0.16293752193450928,-0.3007656931877136
1733851536774562000,7.78756201171875,-0.04585563763976097,-0.14840731024742126,-0.3141781687736511
1733851536784530200,7.7975302734375,-0.04344441369175911,-0.12799018621444702,-0.3121935725212097
1733851536794498300,7.807498291015625,-0.040586307644844055,-0.093405582010746,-0.2942042052745819
1733851536804467200,7.81746728515625,-0.03369804099202156,-0.03856656700372696,-0.2614577114582062
1733851536814435000,7.82743505859375,-0.02304779551923275,0.018644258379936218,-0.22644725441932678
1733851536824404000,7.837404052734375,-0.020372916013002396,0.06439097225666046,-0.20019620656967163
1733851536834372000,7.8473720703125,-0.02135961689054966,0.08768857270479202,-0.18528170883655548
1733851536844340000,7.857340087890625,-0.021868813782930374,0.08356093615293503,-0.1802493929862976
1733851536854309000,7.86730908203125,-0.01944373920559883,0.043782901018857956,-0.1878202259540558
1733851536864277200,7.87727734375,-0.01121989730745554,-0.004614192992448807,-0.2059885859489441
1733851536874245000,7.8872451171875,-0.00484295841306448,-0.042280346155166626,-0.22208952903747559
1733851536884214300,7.89721435546875,0.0015211976133286953,-0.0625629797577858,-0.2299032360315323
1733851536894182100,7.90718212890625,0.0052016861736774445,-0.06447406113147736,-0.22039921581745148
1733851536904150000,7.91714990234375,0.010128800757229328,-0.03399658203125,-0.20044948160648346
1733851536914119000,7.927118896484375,0.014536865055561066,0.008787899278104305,-0.17591243982315063
1733851536924087000,7.937087158203125,0.024947693571448326,0.05438201501965523,-0.15189792215824127
1733851536934056000,7.947055908203125,0.038170553743839264,0.08417639881372452,-0.13392584025859833
1733851536944024000,7.957024169921875,0.032520391047000885,0.07231947034597397,-0.12198849022388458
1733851536953992200,7.9669921875,0.035584624856710434,0.0359761118888855,-0.11788402497768402
1733851536963961000,7.976961181640625,0.04782531410455704,0.0016386429779231548,-0.12258663773536682
1733851536973929200,7.98692919921875,0.0595722496509552,-0.04180869832634926,-0.14125193655490875
1733851536983897000,7.99689697265625,0.06318003684282303,-0.12945972383022308,-0.17433051764965057
1733851536993866200,8.0068662109375,0.05700523033738136,-0.2329200655221939,-0.21441935002803802
1733851537003834000,8.016834228515625,0.05285016447305679,-0.28308895230293274,-0.24875043332576752
1733851537013803000,8.026802978515626,0.04620131850242615,-0.2728206217288971,-0.26148512959480286
1733851537023771100,8.036771240234375,0.037511955946683884,-0.23767141997814178,-0.2535251975059509
1733851537033739000,8.046739013671875,0.026464097201824188,-0.1778663992881775,-0.23337920010089874
1733851537043708200,8.056708251953125,0.007272027432918549,-0.08887181431055069,-0.20485274493694305
1733851537053676000,8.066676025390626,-0.013020460493862629,0.0002492718631401658,-0.16401024162769318
1733851537063644200,8.07664404296875,-0.027058515697717667,0.06589033454656601,-0.11669305711984634
1733851537073613000,8.086613037109375,-0.03588050231337547,0.11699133366346359,-0.07153996080160141
1733851537083581200,8.096581298828125,-0.051842689514160156,0.13812138140201569,-0.05074413865804672
1733851537093550000,8.106550048828124,-0.06983394175767899,0.11618519574403763,-0.04520422965288162
1733851537103517400,8.116517333984374,-0.083580382168293,0.05126292258501053,-0.04713821783661842
1733851537113485600,8.126485595703125,-0.08162029087543488,-0.034692466259002686,-0.056709617376327515
1733851537123454500,8.136454345703125,-0.06624693423509598,-0.08832134306430817,-0.07597971707582474
1733851537133422600,8.146422607421876,-0.04261084273457527,-0.108527272939682,-0.100186787545681
1733851537143390500,8.156390380859374,-0.01997317560017109,-0.10382919013500214,-0.11802463978528976
1733851537153359400,8.166359375,-0.0015073491958901286,-0.08587495982646942,-0.11539716273546219
1733851537163327500,8.176327392578125,0.011051053181290627,-0.06512946635484695,-0.09729113429784775
1733851537173296400,8.18629638671875,0.017736919224262238,-0.04923918470740318,-0.06865895539522171
1733851537183264500,8.196264404296874,0.021649368107318878,-0.03627678006887436,-0.045045237988233566
1733851537193232600,8.206232666015625,0.017967814579606056,-0.030220752581954002,-0.030725954100489616
1733851537203201500,8.216201416015625,0.010540259070694447,-0.04733822122216225,-0.03381308913230896
1733851537213169700,8.226169677734376,0.0033803503029048443,-0.08150871098041534,-0.05217478796839714
1733851537223137300,8.23613720703125,-0.004628574009984732,-0.11556867510080338,-0.0818602442741394
1733851537233106700,8.246106689453125,-0.014201040379703045,-0.13775840401649475,-0.11162187159061432
1733851537243074300,8.25607421875,-0.02605450339615345,-0.14212705194950104,-0.13356845080852509
1733851537253043500,8.26604345703125,-0.037698641419410706,-0.1255725771188736,-0.14216166734695435
1733851537263011300,8.27601123046875,-0.04797338321805,-0.10162515938282013,-0.13874615728855133
1733851537272979500,8.2859794921875,-0.054376956075429916,-0.0716419592499733,-0.12480051815509796
1733851537282948600,8.295948486328125,-0.05468694865703583,-0.03513641655445099,-0.1064625233411789
1733851537292916500,8.30591650390625,-0.04959018900990486,-0.007839281111955643,-0.08862946927547455
1733851537302884600,8.315884521484374,-0.04456773400306702,-0.008160457946360111,-0.07232160121202469
1733851537312853500,8.325853515625,-0.04217781499028206,-0.0325361043214798,-0.06102340668439865
1733851537322821400,8.3358212890625,-0.03393160179257393,-0.0596926249563694,-0.06414223462343216
1733851537332790500,8.34579052734375,-0.027236947789788246,-0.08675939589738846,-0.08305520564317703
1733851537342758400,8.35575830078125,-0.023858994245529175,-0.11180216819047928,-0.10748305171728134
1733851537352726500,8.3657265625,-0.023132216185331345,-0.1172667071223259,-0.129579558968544
1733851537362695400,8.3756953125,-0.027230022475123405,-0.10435037314891815,-0.14294996857643127
1733851537372663600,8.38566357421875,-0.0315328910946846,-0.08781560510396957,-0.14396409690380096
1733851537382631400,8.39563134765625,-0.028485171496868134,-0.062301456928253174,-0.13413569331169128
1733851537392600600,8.4056005859375,-0.023385217413306236,-0.033783528953790665,-0.11985476315021515
1733851537402568700,8.415568603515625,-0.021098626777529716,-0.021338844671845436,-0.10680340975522995
1733851537412537600,8.42553759765625,-0.019327625632286072,-0.03038533590734005,-0.09685623645782471
1733851537422505500,8.43550537109375,-0.017462080344557762,-0.043061982840299606,-0.09832923114299774
1733851537432473300,8.445473388671875,-0.018132664263248444,-0.06333210319280624,-0.10023126006126404
1733851537442442500,8.4554423828125,-0.013591974973678589,-0.07361030578613281,-0.09892338514328003
1733851537452410400,8.465410400390626,-0.008916529826819897,-0.07177005708217621,-0.09655769914388657
1733851537462378500,8.47537841796875,-0.002286856295540929,-0.06697797030210495,-0.09542372077703476
1733851537472347400,8.485347412109375,-0.0014713965356349945,-0.05146745219826698,-0.09840752929449081
1733851537482315500,8.4953154296875,-0.005934055428951979,-0.04590144380927086,-0.0993976965546608
1733851537492284400,8.505284423828124,-0.013963486067950726,-0.06415075808763504,-0.10204567760229111
1733851537502252500,8.51525244140625,-0.016999490559101105,-0.09374939650297165,-0.10405902564525604
1733851537512220400,8.525220458984375,-0.015731558203697205,-0.11328288167715073,-0.10207416862249374
1733851537522189300,8.535189208984375,-0.007435545790940523,-0.12212830781936646,-0.09881739318370819
1733851537532157400,8.545157470703124,0.0060206083580851555,-0.10660047829151154,-0.09341569989919662
1733851537542125600,8.55512548828125,0.021673070266842842,-0.07402602583169937,-0.09071392565965652
1733851537552094500,8.565094482421875,0.0331512950360775,-0.03976232558488846,-0.07866125553846359
1733851537562062600,8.5750625,0.039205726236104965,-0.020005399361252785,-0.060153618454933167
1733851537572031500,8.585031494140624,0.036197420209646225,-0.0064776064828038216,-0.04553819075226784
1733851537581999600,8.59499951171875,0.025021996349096298,0.0011768508702516556,-0.044077713042497635
1733851537591967500,8.604967529296875,0.011235610581934452,-0.006628075148910284,-0.05246693640947342
1733851537601936600,8.6149365234375,0.002659166231751442,-0.01889565959572792,-0.0625390112400055
1733851537611904300,8.624904296875,-0.0006804376607760787,-0.039748210459947586,-0.07327155023813248
1733851537621872400,8.634872314453125,0.002499643014743924,-0.05619429796934128,-0.08182749152183533
1733851537631841500,8.644841552734375,0.00908697210252285,-0.04352936893701553,-0.08786433935165405
1733851537641809400,8.654809326171875,0.016597885638475418,-0.018757974728941917,-0.08044903725385666
1733851537651778600,8.664778564453124,0.019278889521956444,0.00890667550265789,-0.060986388474702835
1733851537661746400,8.674746337890625,0.014812768436968327,0.03566425293684006,-0.029890254139900208
1733851537671714600,8.684714599609375,0.0065042381174862385,0.049303632229566574,0.0004159857635386288
1733851537681683500,8.694683349609376,0.0008602010202594101,0.05254736542701721,0.012855344451963902
1733851537691651600,8.704651611328124,0.0008199872681871057,0.051903411746025085,0.005555620416998863
1733851537701619500,8.714619384765625,-0.0014623417519032955,0.06473958492279053,-0.005023520905524492
1733851537711588400,8.72458837890625,-0.006897054612636566,0.06668742001056671,-0.008548214100301266
1733851537721556500,8.734556396484376,-0.01877022534608841,0.04495948553085327,-0.00987207144498825
1733851537731525400,8.744525390625,-0.029648173600435257,0.033004820346832275,-0.012825783342123032
1733851537741493500,8.754493408203125,-0.04223879799246788,0.04276717081665993,-0.019645340740680695
1733851537751461600,8.764461669921875,-0.05263471603393555,0.05868275463581085,-0.022108497098088264
1733851537761430500,8.774430419921876,-0.05644969269633293,0.0841556265950203,-0.015412778593599796
1733851537771398700,8.784398681640624,-0.05469759926199913,0.11842704564332962,-0.004733768757432699
1733851537781366500,8.794366455078125,-0.04578852653503418,0.1313769370317459,0.010603642091155052
1733851537791335700,8.804335693359375,-0.03718358650803566,0.1298528015613556,0.020179037004709244
1733851537801303300,8.81430322265625,-0.02478577382862568,0.13164378702640533,0.022661635652184486
1733851537811272400,8.8242724609375,-0.013725665397942066,0.12937690317630768,0.02454395964741707
1733851537821240300,8.834240234375,-0.01278823334723711,0.12092216312885284,0.021978270262479782
1733851537831208400,8.84420849609375,-0.022527679800987244,0.10301879048347473,0.018324678763747215
1733851537841177300,8.85417724609375,-0.039921317249536514,0.07244623452425003,0.013950436376035213
1733851537851145500,8.8641455078125,-0.05257772281765938,0.03983183577656746,0.0018309232546016574
1733851537861113600,8.874113525390625,-0.05614396184682846,0.017190437763929367,-0.0123070003464818
1733851537871082500,8.88408251953125,-0.0521196611225605,0.008205997757613659,-0.020127106457948685
1733851537881050600,8.894050537109376,-0.04422019049525261,0.021566543728113174,-0.013978400267660618
1733851537891019500,8.90401953125,-0.035592082887887955,0.02256842516362667,0.000752875639591366
1733851537900987400,8.9139873046875,-0.027050793170928955,0.006115682888776064,0.017663948237895966
1733851537910955500,8.92395556640625,-0.014545120298862457,-0.014734471216797829,0.02972407266497612
1733851537920924400,8.93392431640625,-0.0003150519623886794,-0.024879783391952515,0.03702592849731445
1733851537930892500,8.943892578125,0.01816701889038086,0.014809838496148586,0.04362630844116211
1733851537940860400,8.9538603515625,0.029136579483747482,0.11983532458543777,0.052570801228284836
1733851537950829600,8.96382958984375,0.024926388636231422,0.26214319467544556,0.05541372299194336
1733851537960797400,8.97379736328125,0.0031734227668493986,0.38940662145614624,0.059545885771512985
1733851537970766600,8.9837666015625,-0.030472155660390854,0.41268104314804077,0.0661044493317604
1733851537980734500,8.993734375,-0.06404928863048553,0.36435267329216003,0.06553985923528671
1733851537990702300,9.003702392578125,-0.07672247290611267,0.3117443025112152,0.04634113237261772
1733851538000671500,9.01367138671875,-0.0698443278670311,0.2602379620075226,0.01468466967344284
1733851538010639400,9.023639404296874,-0.051849350333213806,0.18988817930221558,-0.025605760514736176
1733851538020607500,9.033607421875,-0.030887873843312263,0.11659452319145203,-0.06244659796357155
1733851538030576400,9.043576416015625,-0.014582937583327293,0.06672603636980057,-0.08402379602193832
1733851538040544500,9.05354443359375,-0.0029949909076094627,0.04740959405899048,-0.08036354929208755
1733851538050513400,9.063513427734375,-0.001044225413352251,0.06337843835353851,-0.057966362684965134
1733851538060481500,9.0734814453125,0.0019345202017575502,0.10021688044071198,-0.033672209829092026
1733851538070449700,9.08344970703125,0.001332645770162344,0.1295742392539978,-0.010142914950847626
1733851538080418600,9.09341845703125,-0.0002580603177193552,0.14544162154197693,0.004252003040164709
1733851538090386400,9.103386474609374,-0.007215036079287529,0.15310992300510406,0.008991098031401634
1733851538100354800,9.113354736328125,-0.010567955672740936,0.1484547108411789,0.008893626742064953
1733851538110324000,9.123323974609375,-0.012851616367697716,0.12283990532159805,0.007342068944126368
1733851538120291800,9.133291748046876,-0.016263924539089203,0.08775222301483154,-0.0002748382103163749
1733851538130261000,9.143260986328125,-0.014758439734578133,0.05628271400928497,-0.011502458713948727
1733851538140228900,9.153228759765625,-0.009749299846589565,0.030772292986512184,-0.029082784429192543
1733851538150197000,9.163197021484375,-0.0057039582170546055,0.018123343586921692,-0.044626589864492416
1733851538160166100,9.173166259765624,-0.007881891913712025,0.010088587179780006,-0.04808230698108673
1733851538170134000,9.183134033203125,-0.010720554739236832,-0.004011253360658884,-0.038839541375637054
1733851538180102100,9.19310205078125,-0.017472466453909874,-0.023483488708734512,-0.02365659363567829
1733851538190071000,9.203071044921876,-0.023792413994669914,-0.05598071217536926,-0.008585232309997082
1733851538200039000,9.213038818359376,-0.029623406007885933,-0.08392978459596634,0.000800279900431633
1733851538210007800,9.2230078125,-0.026510436087846756,-0.08862680196762085,0.0032402679789811373
1733851538219976000,9.232975830078125,-0.015513179823756218,-0.05922044813632965,0.002177400514483452
1733851538229944000,9.242944091796875,0.0027683558873832226,-0.0365351065993309,0.005123123060911894
1733851538239913000,9.252912841796874,0.015017298981547356,-0.0629616528749466,0.01423486229032278
1733851538249881000,9.262881103515625,0.021021129563450813,-0.08668775856494904,0.01258130557835102
1733851538259849000,9.272848876953125,0.02147439867258072,-0.07321775704622269,-0.00618146313354373
1733851538269818000,9.282818115234376,0.017502561211586,-0.04249073565006256,-0.028138693422079086
1733851538279786000,9.292785888671874,0.006268814671784639,-0.016658339649438858,-0.03732287138700485
1733851538289755100,9.302755126953125,-0.007193997036665678,0.008224640041589737,-0.03257045894861221
1733851538299723000,9.312722900390625,-0.023687485605478287,0.03314197435975075,-0.015455921180546284
1733851538309691000,9.32269091796875,-0.035956136882305145,0.06937268376350403,0.00145195540972054
1733851538319660000,9.332659912109374,-0.04273361340165138,0.10634215176105499,0.014058028347790241
1733851538329628000,9.3426279296875,-0.042336005717515945,0.1264125257730484,0.024897359311580658
1733851538339597000,9.35259716796875,-0.041007354855537415,0.12113042175769806,0.040894970297813416
1733851538349565000,9.36256494140625,-0.03988243639469147,0.1022653877735138,0.054790545254945755
1733851538359533000,9.372532958984374,-0.037395309656858444,0.07073409110307693,0.0679156705737114
1733851538369502000,9.382501953125,-0.028920065611600876,0.04752996936440468,0.07704392075538635
1733851538379470000,9.392469970703125,-0.017655959352850914,0.0484013557434082,0.07716056704521179
1733851538389438000,9.40243798828125,-0.01016635075211525,0.06501016020774841,0.07879681140184402
1733851538399406800,9.41240673828125,-0.0038836877793073654,0.07508276402950287,0.07930654287338257
1733851538409375000,9.422375,-0.0027739484794437885,0.06264793127775192,0.07906073331832886
1733851538419344000,9.43234375,-0.005604888778179884,0.03193609416484833,0.07600102573633194
1733851538429312000,9.44231201171875,-0.008315986953675747,-0.0002008023438975215,0.06774921715259552
1733851538439280000,9.452280029296874,-0.005432582460343838,-0.04929990693926811,0.06947388499975204
1733851538449249000,9.4622490234375,0.0017781927017495036,-0.1103382259607315,0.07789666205644608
1733851538459217200,9.472217041015625,0.006697850301861763,-0.16359318792819977,0.08424803614616394
1733851538469184800,9.482184814453126,0.0049161952920258045,-0.1837911307811737,0.08031454682350159
1733851538479154200,9.492154296875,0.0025715483352541924,-0.16980475187301636,0.06961715966463089
1733851538489121800,9.502121826171875,0.00014913702034391463,-0.13731497526168823,0.05959062650799751
1733851538499091000,9.512091064453125,0.0013528858544304967,-0.10206244885921478,0.0592779703438282
1733851538509059000,9.52205908203125,0.00318940170109272,-0.09003029018640518,0.0625709667801857
1733851538519027000,9.53202685546875,0.004159857518970966,-0.10321985930204391,0.06370014697313309
1733851538528996000,9.54199609375,0.005571332760155201,-0.12033066898584366,0.06058638170361519
1733851538538964000,9.5519638671875,0.01344363670796156,-0.12381967902183533,0.0550488717854023
1733851538548932000,9.56193212890625,0.01745702140033245,-0.12199035286903381,0.05780604109168053
1733851538558901000,9.57190087890625,0.018130533397197723,-0.12494219839572906,0.06965311616659164
1733851538568869000,9.581869140625,0.01278983149677515,-0.13381558656692505,0.08492634445428848
1733851538578838000,9.591838134765625,0.003316967049613595,-0.15520289540290833,0.10041049122810364
1733851538588806000,9.601805908203126,-0.0010492854053154588,-0.1741640716791153,0.11164716631174088
1733851538598774000,9.61177392578125,0.004387824330478907,-0.17505650222301483,0.11249272525310516
1733851538608743000,9.621742919921875,0.01733984239399433,-0.17060182988643646,0.11215449869632721
1733851538618711000,9.6317109375,0.03328472003340721,-0.16662360727787018,0.11733381450176239
1733851538628679000,9.641678955078126,0.05493089184165001,-0.1685890108346939,0.1313849240541458
1733851538638648000,9.65164794921875,0.07987166196107864,-0.16014039516448975,0.14974474906921387
1733851538648616200,9.6616162109375,0.10216471552848816,-0.13419854640960693,0.16953763365745544
1733851538658585000,9.671585205078125,0.11775059998035431,-0.10935898125171661,0.182458758354187
1733851538668553000,9.681552978515626,0.12376614660024643,-0.11296463757753372,0.179976686835289
1733851538678520800,9.691520751953124,0.11510048806667328,-0.13222675025463104,0.16379372775554657
1733851538688490000,9.701489990234375,0.09308546781539917,-0.15198500454425812,0.14219816029071808
1733851538698457900,9.711457763671875,0.07329738140106201,-0.165069118142128,0.12640294432640076
1733851538708426000,9.721426025390626,0.06210331991314888,-0.1874455213546753,0.12166038900613785
1733851538718395000,9.731394775390624,0.059122174978256226,-0.21039505302906036,0.1247110366821289
1733851538728363000,9.741363037109375,0.07435359060764313,-0.21479539573192596,0.12712253630161285
1733851538738332200,9.751332275390626,0.09461066126823425,-0.20465034246444702,0.13555489480495453
1733851538748300000,9.761300048828126,0.1114218682050705,-0.18676002323627472,0.14710955321788788
1733851538758268000,9.771267822265624,0.1142626628279686,-0.17282450199127197,0.17019197344779968
1733851538768236800,9.78123681640625,0.11330471932888031,-0.1624714732170105,0.19477029144763947
1733851538778205000,9.791204833984375,0.10766920447349548,-0.15232083201408386,0.2076312154531479
1733851538788173000,9.801173095703126,0.10463346540927887,-0.14845259487628937,0.2059779316186905
1733851538798142000,9.811141845703125,0.10501909255981445,-0.153898224234581,0.19250553846359253
1733851538808110000,9.821110107421875,0.1048358678817749,-0.17598114907741547,0.16846837103366852
1733851538818079000,9.831078857421875,0.10995206981897354,-0.2129247933626175,0.14370417594909668
1733851538828047000,9.841047119140624,0.11269405484199524,-0.2543222904205322,0.12393845617771149
1733851538838015000,9.851014892578124,0.11581714451313019,-0.2851012349128723,0.11239685118198395
1733851538847984000,9.860984130859375,0.1139284297823906,-0.3064672648906708,0.11131028085947037
1733851538857952000,9.870951904296875,0.11360885202884674,-0.31100207567214966,0.11616335809230804
1733851538867920000,9.880919921875,0.11902572214603424,-0.2918480932712555,0.13759487867355347
1733851538877889000,9.890888916015625,0.13175563514232635,-0.26094743609428406,0.16208797693252563
1733851538887857000,9.90085693359375,0.14539074897766113,-0.23030458390712738,0.18750758469104767
1733851538897826000,9.910825927734376,0.15778057277202606,-0.20553851127624512,0.20837371051311493
1733851538907794000,9.9207939453125,0.16325736045837402,-0.20118370652198792,0.21705535054206848
1733851538917762000,9.930761962890625,0.16611599922180176,-0.22453004121780396,0.2102230042219162
1733851538927731000,9.94073095703125,0.17279547452926636,-0.2657134234905243,0.19393111765384674
1733851538937699000,9.950698974609375,0.17793218791484833,-0.3170280158519745,0.17222556471824646
1733851538947667000,9.9606669921875,0.17400215566158295,-0.364917516708374,0.15223853290081024
1733851538957635800,9.9706357421875,0.16573010385036469,-0.39831382036209106,0.13486087322235107
1733851538967604000,9.98060400390625,0.15232908725738525,-0.4135894477367401,0.12708178162574768
1733851538977572900,9.99057275390625,0.13880981504917145,-0.41115719079971313,0.1245131641626358
1733851538987541000,10.000541015625,0.12013066560029984,-0.3910577595233917,0.13193300366401672
1733851538997509000,10.010509033203125,0.10583987832069397,-0.36250096559524536,0.15100549161434174
1733851539007478000,10.02047802734375,0.09398534893989563,-0.3349321782588959,0.17634627223014832
1733851539017446100,10.030446044921876,0.08519558608531952,-0.3119238018989563,0.2006406933069229
1733851539027414000,10.0404140625,0.07739438861608505,-0.29119056463241577,0.22358489036560059
1733851539037383200,10.050383056640625,0.0778316780924797,-0.27200594544410706,0.2443050742149353
1733851539047350800,10.060350830078125,0.08204293996095657,-0.2486252635717392,0.26081615686416626
1733851539057320000,10.07031982421875,0.09048276394605637,-0.23724237084388733,0.2772952616214752
1733851539067287800,10.080287841796874,0.09794973582029343,-0.23455923795700073,0.29531073570251465
1733851539077256000,10.090255859375,0.10988974571228027,-0.23542317748069763,0.30707019567489624
1733851539087225000,10.10022509765625,0.12058953195810318,-0.2454845905303955,0.3122828006744385
1733851539097193000,10.11019287109375,0.1278085559606552,-0.2584323585033417,0.3126966655254364
1733851539107161000,10.1201611328125,0.12983736395835876,-0.2750760316848755,0.3086281418800354
1733851539117130000,10.1301298828125,0.1333972066640854,-0.2912307679653168,0.29745087027549744
1733851539127098000,10.14009814453125,0.13454049825668335,-0.30117157101631165,0.28883233666419983
1733851539137067000,10.15006689453125,0.13603347539901733,-0.30577510595321655,0.28517502546310425
1733851539147035100,10.16003515625,0.12867063283920288,-0.2970085144042969,0.28146710991859436
1733851539157003000,10.1700029296875,0.12782081961631775,-0.2812711000442505,0.2849947214126587
1733851539166972000,10.179971923828125,0.12440477311611176,-0.25613299012184143,0.292703241109848
1733851539176940000,10.18993994140625,0.12089712917804718,-0.2252107411623001,0.3025233745574951
1733851539186908000,10.199907958984374,0.11476839333772659,-0.19860416650772095,0.3106555938720703
1733851539196877000,10.209876953125,0.10537249594926834,-0.18850013613700867,0.31751298904418945
1733851539206845000,10.219844970703125,0.09350331872701645,-0.2015610784292221,0.3218584656715393
1733851539216814000,10.22981396484375,0.0923195406794548,-0.2299780696630478,0.31781259179115295
1733851539226782200,10.2397822265625,0.10663110762834549,-0.25786057114601135,0.3100145757198334
1733851539236750000,10.24975,0.12993936240673065,-0.2788686454296112,0.3023947477340698
1733851539246719200,10.25971923828125,0.15469610691070557,-0.2844277322292328,0.29005420207977295
1733851539256686800,10.269686767578126,0.17828665673732758,-0.27686887979507446,0.28068891167640686
1733851539266655000,10.279655029296874,0.20159730315208435,-0.2732435166835785,0.27727875113487244
1733851539276624000,10.289623779296875,0.21182116866111755,-0.2709936797618866,0.2805754840373993
1733851539286592000,10.299592041015625,0.21294157207012177,-0.2682945728302002,0.28388869762420654
1733851539296561000,10.309560791015626,0.2107580453157425,-0.2738717496395111,0.2887878715991974
1733851539306529000,10.319529052734374,0.21154527366161346,-0.2831438183784485,0.29177114367485046
1733851539316497200,10.3294970703125,0.2185155600309372,-0.2894483208656311,0.2920811176300049
1733851539326466000,10.339466064453125,0.22558678686618805,-0.293675035238266,0.2908528745174408
1733851539336434200,10.34943408203125,0.23177197575569153,-0.2855127155780792,0.2929181456565857
1733851539346403000,10.359403076171875,0.24058304727077484,-0.2656655013561249,0.2890150249004364
1733851539356371000,10.369370849609375,0.24684280157089233,-0.23578935861587524,0.28684693574905396
1733851539366339000,10.379339111328125,0.2516932189464569,-0.21530431509017944,0.29053860902786255
1733851539376308000,10.389307861328126,0.25820571184158325,-0.2035675048828125,0.29742714762687683
1733851539386276000,10.399276123046874,0.2660846710205078,-0.1889539361000061,0.2983883023262024
1733851539396244000,10.409243896484375,0.2661246359348297,-0.16582651436328888,0.28406208753585815
1733851539406213000,10.419213134765625,0.2588003873825073,-0.13807904720306396,0.26264333724975586
1733851539416181000,10.429180908203126,0.24671071767807007,-0.11234039068222046,0.22856499254703522
1733851539426150100,10.439150146484375,0.22559237480163574,-0.09919023513793945,0.19541743397712708
1733851539436118000,10.449117919921875,0.20312514901161194,-0.12282951921224594,0.1664680689573288
1733851539446086000,10.4590859375,0.18133702874183655,-0.197925865650177,0.15049682557582855
1733851539456055000,10.469054931640626,0.15775234997272491,-0.31270596385002136,0.13231995701789856
1733851539466023000,10.47902294921875,0.14247459173202515,-0.4339493215084076,0.10605772584676743
1733851539475991000,10.488990966796875,0.14456863701343536,-0.5272273421287537,0.05804945528507233
1733851539485960000,10.4989599609375,0.16858342289924622,-0.575928270816803,0.0070461914874613285
1733851539495928000,10.508927978515626,0.1977815181016922,-0.5950953364372253,-0.020260529592633247
1733851539505897000,10.51889697265625,0.21774084866046906,-0.5865468382835388,-0.009349026717245579
1733851539515865000,10.528864990234375,0.22115448117256165,-0.5353981852531433,0.034324418753385544
1733851539525833200,10.538833251953125,0.2115119844675064,-0.42528390884399414,0.08633542060852051
1733851539535802000,10.548802001953124,0.19004397094249725,-0.2872014045715332,0.14632712304592133
1733851539545770000,10.55877001953125,0.14929787814617157,-0.1680728942155838,0.2092999517917633
1733851539555737900,10.56873779296875,0.09795452654361725,-0.1007939875125885,0.2661384642124176
1733851539565707000,10.57870703125,0.04640904441475868,-0.09730365127325058,0.2957400381565094
1733851539575675100,10.588675048828126,0.013075854629278183,-0.11973412334918976,0.2861654460430145
1733851539585644000,10.59864404296875,0.0076185050420463085,-0.15662290155887604,0.24760393798351288
1733851539595612200,10.608612060546875,0.015912387520074844,-0.19578760862350464,0.20709753036499023
1733851539605580000,10.618580078125,0.031015707179903984,-0.2242024689912796,0.1836199015378952
1733851539615549200,10.628549072265624,0.03861450403928757,-0.2202407568693161,0.1816081404685974
1733851539625517000,10.63851708984375,0.037337783724069595,-0.186417818069458,0.1956390142440796
1733851539635485000,10.64848486328125,0.030012227594852448,-0.14059439301490784,0.21918241679668427
1733851539645453800,10.658453857421875,0.02797144651412964,-0.10112421959638596,0.24725373089313507
1733851539655422000,10.668421875,0.02781032584607601,-0.07490912824869156,0.27304139733314514
1733851539665390800,10.678390869140625,0.02213752642273903,-0.07162172347307205,0.29610010981559753
1733851539675359000,10.68835888671875,0.016531305387616158,-0.094368577003479,0.3129246234893799
1733851539685327000,10.6983271484375,0.011859589256346226,-0.1234969049692154,0.3141941428184509
1733851539695296000,10.7082958984375,0.015275625512003899,-0.14743205904960632,0.30425283312797546
1733851539705264000,10.71826416015625,0.023208383470773697,-0.16740097105503082,0.28971225023269653
1733851539715232300,10.728232177734375,0.02370000258088112,-0.1839224249124527,0.2781466543674469
1733851539725201200,10.738201171875,0.02340785413980484,-0.20136719942092896,0.2756025493144989
1733851539735169000,10.7481689453125,0.01690468192100525,-0.21264329552650452,0.28188440203666687
1733851539745138000,10.758137939453125,0.012190086767077446,-0.2035730928182602,0.29091253876686096
1733851539755106000,10.76810595703125,0.011205516755580902,-0.17738837003707886,0.3046232759952545
1733851539765074000,10.778073974609375,0.016294019296765327,-0.13796718418598175,0.3136734962463379
1733851539775043000,10.78804296875,0.021472269669175148,-0.10441642254590988,0.32798346877098083
1733851539785011000,10.798010986328125,0.024820661172270775,-0.08607017248868942,0.3447994589805603
1733851539794979000,10.80797900390625,0.025956233963370323,-0.0876811146736145,0.3543194532394409
1733851539804948000,10.817947998046876,0.022287461906671524,-0.10453519970178604,0.3583618700504303
1733851539814916000,10.827916015625,0.012397280894219875,-0.12822695076465607,0.3555562496185303
1733851539824885200,10.83788525390625,0.00452843913808465,-0.1573219746351242,0.34478482604026794
1733851539834852900,10.847852783203125,0.007196660153567791,-0.1830529123544693,0.3292276859283447
1733851539844821000,10.857821044921875,0.020687168464064598,-0.1904173493385315,0.31113550066947937
1733851539854790000,10.867789794921874,0.04716245085000992,-0.17169132828712463,0.2951751947402954
1733851539864758000,10.877758056640625,0.07806577533483505,-0.13510136306285858,0.28816893696784973
1733851539874726100,10.88772607421875,0.10348990559577942,-0.0860494002699852,0.28986218571662903
1733851539884695000,10.897695068359376,0.11952906101942062,-0.04291843995451927,0.3015561103820801
1733851539894663200,10.9076630859375,0.1153915748000145,-0.021288244053721428,0.31422051787376404
1733851539904632000,10.917632080078125,0.10050716251134872,-0.02243846282362938,0.3223128020763397
1733851539914600200,10.92760009765625,0.08498147130012512,-0.064218670129776,0.31977027654647827
1733851539924568000,10.937568115234376,0.08571064472198486,-0.12815983593463898,0.31254804134368896
1733851539934537000,10.947536865234374,0.10022593289613724,-0.18698106706142426,0.3038046360015869
1733851539944505000,10.957505126953125,0.11787497252225876,-0.22417931258678436,0.30635592341423035
1733851539954473000,10.967472900390625,0.13287203013896942,-0.2314465343952179,0.31360772252082825
1733851539964442000,10.977442138671876,0.13623107969760895,-0.22815486788749695,0.3321494460105896
1733851539974410000,10.987409912109374,0.12341727316379547,-0.2105868011713028,0.35668888688087463
1733851539984379100,10.997379150390625,0.08899751305580139,-0.15951935946941376,0.38989582657814026
1733851539994347000,11.007346923828125,0.052860550582408905,-0.088419608771801,0.43028372526168823
1733851540004315100,11.017315185546876,0.03075072169303894,-0.015982428565621376,0.4745611846446991
1733851540014284000,11.027283935546874,0.015299594029784203,0.020357735455036163,0.508009672164917
1733851540024252000,11.037251953125,0.006324208807200193,0.011141601018607616,0.5180364847183228
1733851540034220000,11.047219970703125,0.006358030717819929,-0.027997545897960663,0.5025874972343445
1733851540044189000,11.05718896484375,0.015740614384412766,-0.08083918690681458,0.46325206756591797
1733851540054157000,11.067156982421874,0.03489193692803383,-0.12401595711708069,0.4109039008617401
1733851540064126000,11.0771259765625,0.05903802067041397,-0.1390945017337799,0.3532520830631256
1733851540074094000,11.087093994140625,0.08574339747428894,-0.1273539662361145,0.3097730278968811
1733851540084062200,11.097062255859376,0.10728225111961365,-0.0992664024233818,0.2845478355884552
1733851540094031000,11.107031005859374,0.11743129044771194,-0.07128190249204636,0.2783258855342865
1733851540103998700,11.116998779296875,0.11697482317686081,-0.06880436092615128,0.28081753849983215
1733851540113966600,11.126966552734375,0.10967429727315903,-0.0847921222448349,0.2801333963871002
1733851540123935700,11.136935791015626,0.10783857852220535,-0.1189357116818428,0.27500200271606445
1733851540133903600,11.146903564453124,0.10990413278341293,-0.1591704785823822,0.26400500535964966
1733851540143872800,11.156872802734375,0.11630024760961533,-0.18396957218647003,0.24968253076076508
1733851540153841000,11.1668408203125,0.12709297239780426,-0.19291698932647705,0.232743501663208
1733851540163808800,11.176808837890626,0.13789129257202148,-0.19557055830955505,0.21973688900470734
1733851540173778000,11.18677783203125,0.15453284978866577,-0.18175914883613586,0.20858223736286163
1733851540183745800,11.196745849609375,0.16680656373500824,-0.1572362184524536,0.2026742845773697
1733851540193713700,11.206713623046875,0.1718500554561615,-0.1291143149137497,0.20052777230739594
1733851540203682600,11.2166826171875,0.1671820729970932,-0.10577622801065445,0.2033216953277588
1733851540213650700,11.226650634765624,0.14881451427936554,-0.10271172970533371,0.20826691389083862
1733851540223619600,11.23661962890625,0.11680944263935089,-0.1123632937669754,0.21471922099590302
1733851540233587700,11.246587646484375,0.07767828553915024,-0.12032188475131989,0.22320859134197235
1733851540243555800,11.256555908203126,0.05302273854613304,-0.09742642194032669,0.23170992732048035
1733851540253524700,11.266524658203124,0.045832470059394836,-0.051895420998334885,0.23301807045936584
1733851540263492900,11.276492919921875,0.05384086072444916,-0.01695954240858555,0.23056769371032715
1733851540273460700,11.286460693359375,0.06252409517765045,-0.0037558560725301504,0.2208210527896881
1733851540283430000,11.296429931640626,0.06797052919864655,-0.023032881319522858,0.20357495546340942
1733851540293397800,11.306397705078124,0.06533932685852051,-0.07839440554380417,0.19019363820552826
1733851540303366700,11.31636669921875,0.06522587686777115,-0.12073307484388351,0.1718817502260208
1733851540313334800,11.326334716796875,0.0649089589715004,-0.1332230418920517,0.1602115035057068
1733851540323302700,11.336302734375,0.07410725206136703,-0.13221023976802826,0.1627628207206726
1733851540333271800,11.346271728515624,0.08653409034013748,-0.12577204406261444,0.16942711174488068
1733851540343239700,11.35623974609375,0.1038355827331543,-0.11855088174343109,0.17314700782299042
1733851540353207800,11.366207763671875,0.12223536521196365,-0.10324569791555405,0.16694851219654083
1733851540363176700,11.3761767578125,0.13850460946559906,-0.09287827461957932,0.15380580723285675
1733851540373144600,11.38614453125,0.1493508666753769,-0.10395968705415726,0.13634824752807617
1733851540383114000,11.396114013671875,0.14567917585372925,-0.1371016651391983,0.11837831139564514
1733851540393081600,11.40608154296875,0.13285231590270996,-0.1883118599653244,0.10698743909597397
1733851540403049700,11.4160498046875,0.11322109401226044,-0.23043906688690186,0.09749007225036621
1733851540413018600,11.4260185546875,0.0962599590420723,-0.24478818476200104,0.09171607345342636
1733851540422986800,11.43598681640625,0.09209424257278442,-0.238778755068779,0.09499336034059525
1733851540432955000,11.445954833984375,0.10024058073759079,-0.21597783267498016,0.10517328977584839
1733851540442923800,11.455923828125,0.11401232331991196,-0.16640308499336243,0.11045008152723312
1733851540452892000,11.465891845703124,0.11939404159784317,-0.11108364164829254,0.11347728967666626
1733851540462860800,11.47586083984375,0.10976777970790863,-0.07173437625169754,0.11894556134939194
1733851540472828700,11.48582861328125,0.07832542806863785,-0.056783922016620636,0.1196795254945755
1733851540482796500,11.495796630859376,0.03961265832185745,-0.0676347017288208,0.11333747953176498
1733851540492765700,11.505765625,0.0028850024100393057,-0.09812044352293015,0.1025194525718689
1733851540502733800,11.51573388671875,-0.02058383822441101,-0.14197498559951782,0.08545577526092529
1733851540512702700,11.52570263671875,-0.014904913492500782,-0.18360204994678497,0.07364199310541153
1733851540522670800,11.5356708984375,0.017374463379383087,-0.20836226642131805,0.0681028887629509
1733851540532638700,11.545638671875,0.05826863273978233,-0.1990337371826172,0.07341189682483673
1733851540542608000,11.55560791015625,0.09582266211509705,-0.16510532796382904,0.08027619868516922
1733851540552575700,11.56557568359375,0.12302552163600922,-0.12057461589574814,0.07924102246761322
1733851540562543600,11.575543701171876,0.12496670335531235,-0.0799475610256195,0.06574518978595734
1733851540572512500,11.585512451171875,0.09772948920726776,-0.0641012191772461,0.0521705262362957
1733851540582480600,11.595480712890625,0.0586172416806221,-0.08155371248722076,0.044254545122385025
1733851540592448800,11.60544873046875,0.01683863438665867,-0.10492801666259766,0.04111095145344734
1733851540602417700,11.615417724609374,-0.007992679253220558,-0.1224079355597496,0.04182707518339157
1733851540612385800,11.6253857421875,-0.014357101172208786,-0.14388500154018402,0.04635178670287132
1733851540622354700,11.635354736328125,-0.0032461269292980433,-0.15640053153038025,0.04842452332377434
1733851540632322800,11.64532275390625,0.02515675127506256,-0.14569008350372314,0.04692010581493378
1733851540642291000,11.655291015625,0.061158161610364914,-0.09928743541240692,0.04013064131140709
1733851540652259800,11.665259765625,0.09411611407995224,-0.04350912943482399,0.028733909130096436
1733851540662227700,11.675227783203125,0.10615892708301544,0.00999111495912075,0.013680658303201199
1733851540672195600,11.685195556640625,0.08996797353029251,0.03615161404013634,0.0038807583041489124
1733851540682164700,11.695164794921874,0.05121605098247528,0.025653697550296783,0.004759068600833416
1733851540692132600,11.705132568359375,0.001193362521007657,-0.0023369237314909697,0.014250041916966438
1733851540702101800,11.715101806640625,-0.03244342654943466,-0.027339212596416473,0.027517911046743393
1733851540712069600,11.725069580078125,-0.035407524555921555,-0.03888801112771034,0.037449903786182404
1733851540722037800,11.735037841796874,-0.009502691216766834,-0.038851525634527206,0.0382150299847126
1733851540732007000,11.7450068359375,0.03611379489302635,-0.02232714369893074,0.029325131326913834
1733851540741974800,11.754974853515625,0.07752035558223724,0.00942013319581747,0.015661517158150673
1733851540751942700,11.764942626953125,0.106537364423275,0.04294320568442345,0.004518052563071251
1733851540761911600,11.77491162109375,0.11814874410629272,0.07327847182750702,-0.005488774739205837
1733851540771879700,11.784879638671875,0.12353792041540146,0.09728820621967316,-0.015120097436010838
1733851540781848600,11.7948486328125,0.12196239084005356,0.10535811632871628,-0.024391092360019684
1733851540791816700,11.804816650390626,0.11681476980447769,0.09844854474067688,-0.031565915793180466
1733851540801784800,11.814784912109374,0.11352603137493134,0.08010894805192947,-0.035466380417346954
1733851540811753700,11.824753662109375,0.11567999422550201,0.06064097583293915,-0.047510262578725815
1733851540821721900,11.834721923828125,0.1112828478217125,0.05624356493353844,-0.06346472352743149
1733851540831689700,11.844689697265625,0.09789860248565674,0.05084933340549469,-0.06838012486696243
1733851540841659000,11.854658935546874,0.07013115286827087,0.049436260014772415,-0.06081647798418999
1733851540851626800,11.864626708984375,0.042033202946186066,0.06480589509010315,-0.0417700819671154
1733851540861595600,11.874595703125,0.016828780993819237,0.10361241549253464,-0.017294567078351974
1733851540871563800,11.884563720703126,0.011956261470913887,0.14747174084186554,0.009869941510260105
1733851540881531600,11.89453173828125,0.013038836419582367,0.16283951699733734,0.0326804481446743
1733851540891500800,11.904500732421875,0.008989233523607254,0.13703028857707977,0.04351898282766342
1733851540901468700,11.91446875,0.006491188891232014,0.07587851583957672,0.033185649663209915
1733851540911437800,11.924437744140626,0.013530989177525043,-0.01380902249366045,0.0006817692192271352
1733851540921405700,11.93440576171875,0.020132165402173996,-0.09329186379909515,-0.03399658203125
1733851540931373800,11.944373779296875,0.028731247410178185,-0.13515356183052063,-0.054845403879880905
1733851540941342700,11.9543427734375,0.043483294546604156,-0.12615419924259186,-0.057126667350530624
1733851540951310600,11.964310546875,0.0621643029153347,-0.07810385525226593,-0.04649479687213898
1733851540961278700,11.97427880859375,0.07486651837825775,-0.023738086223602295,-0.03236193582415581
1733851540971247600,11.98424755859375,0.07485959678888321,0.03104420192539692,-0.01925279013812542
1733851540981215700,11.9942158203125,0.05642705783247948,0.06881661713123322,-0.009412409737706184
1733851540991184600,12.0041845703125,0.024647023528814316,0.07609610259532928,-0.005820871330797672
1733851541001152800,12.01415283203125,-0.014376276172697544,0.04880881682038307,-0.005498894955962896
1733851541011121000,12.024120849609375,-0.04092532768845558,0.01798991858959198,-0.009281382896006107
1733851541021089800,12.03408984375,-0.04592860862612724,0.0020008329302072525,-0.003939880523830652
1733851541031058000,12.044057861328126,-0.03196299448609352,0.0011012171162292361,0.00196434766985476
1733851541041025500,12.054025634765624,-0.0059846555814146996,0.015799470245838165,0.006642456166446209
1733851541050994700,12.06399462890625,0.01660907082259655,0.032230641692876816,0.005428054835647345
1733851541060962600,12.073962646484375,0.024593492969870567,0.041183121502399445,0.00296303303912282
1733851541070931700,12.083931640625,0.022051505744457245,0.046056173741817474,-0.0026786073576658964
1733851541080899800,12.09389990234375,0.01575366221368313,0.045820217579603195,-0.016590427607297897
1733851541090867700,12.10386767578125,0.0033273533917963505,0.038710109889507294,-0.030181603506207466
1733851541100838000,12.113837890625,-0.011521900072693825,0.024452611804008484,-0.04404069483280182
1733851541110806000,12.123805908203124,-0.016384299844503403,0.022191854193806648,-0.05136784911155701
1733851541120774100,12.133774169921875,-0.01512915175408125,0.038305044174194336,-0.05179794877767563
1733851541130743000,12.143742919921875,-0.007463775109499693,0.07046964019536972,-0.0431637167930603
1733851541140711200,12.153711181640626,-0.0020636834669858217,0.12036209553480148,-0.030439132824540138
1733851541150680000,12.16368017578125,0.0011494202772155404,0.16089141368865967,-0.013346964493393898
1733851541160648200,12.173648193359375,-0.0019800602458417416,0.18288247287273407,-0.0020684772171080112
