time,seconds_elapsed,z,y,x
1733851529004221200,0.01722119140625,0.01973310112953186,0.0949171930551529,-0.05041142553091049
1733851529014190000,0.027190185546875,0.022673767060041428,0.13221584260463715,-0.04966188967227936
1733851529024158200,0.037158203125,0.03271894156932831,0.19019897282123566,-0.03329410031437874
1733851529034126300,0.047126220703125,0.03411736711859703,0.25266069173812866,-0.011968187056481838
1733851529044095200,0.05709521484375,0.01678311638534069,0.2609308660030365,0.0029220792930573225
1733851529054063400,0.0670634765625,-0.0025273305363953114,0.21525821089744568,0.007801800966262817
1733851529064031500,0.077031494140625,-0.01224946603178978,0.17033815383911133,0.006231068633496761
1733851529074000400,0.08700048828125,-0.013134706765413284,0.15958935022354126,0.002936887089163065
1733851529083968500,0.096968505859375,-0.018798718228936195,0.14333954453468323,-0.004374288953840733
1733851529093937000,0.10693701171875,-0.013139499351382256,0.08973044157028198,-0.011832448653876781
1733851529103905000,0.116905029296875,0.007496803533285856,0.06005563586950302,-0.021255776286125183
1733851529113873000,0.126872802734375,0.018312696367502213,0.06451498717069626,-0.025759762153029442
1733851529123842000,0.136842041015625,0.019821111112833023,0.09069439023733139,-0.0316498763859272
1733851529133810000,0.146809814453125,0.013107947073876858,0.1445482224225998,-0.03858451172709465
1733851529143778000,0.156778076171875,-0.007132610306143761,0.19798801839351654,-0.04586106911301613
1733851529153747200,0.166747314453125,-0.03179588168859482,0.22620037198066711,-0.050158388912677765
1733851529163715000,0.176715087890625,-0.048135172575712204,0.21319721639156342,-0.05255017429590225
1733851529173683000,0.186682861328125,-0.04844488576054573,0.17905832827091217,-0.05289129167795181
1733851529183651800,0.19665185546875,-0.04665151238441467,0.14981095492839813,-0.05763757601380348
1733851529193620000,0.206619873046875,-0.047255657613277435,0.1289994865655899,-0.060682568699121475
1733851529203588000,0.216588134765625,-0.050930287688970566,0.11025111377239227,-0.06448156386613846
1733851529213557000,0.226556884765625,-0.053863223642110825,0.09518076479434967,-0.06388439238071442
1733851529223525000,0.236525146484375,-0.055118102580308914,0.08695346117019653,-0.05908963829278946
1733851529233494000,0.246493896484375,-0.05490065738558769,0.08391162008047104,-0.05242959409952164
1733851529243462100,0.256462158203125,-0.05236905813217163,0.08236619085073471,-0.055009931325912476
1733851529253430000,0.266429931640625,-0.048332907259464264,0.08286454528570175,-0.061941687017679214
1733851529263399200,0.276399169921875,-0.04939098283648491,0.07938246428966522,-0.06455344706773758
1733851529273367000,0.286366943359375,-0.05103800818324089,0.0897708386182785,-0.06207316368818283
1733851529283335000,0.2963349609375,-0.05553102865815163,0.11027824878692627,-0.06690120697021484
1733851529293304000,0.306303955078125,-0.060771193355321884,0.11568412184715271,-0.0683956891298294
1733851529303272000,0.31627197265625,-0.06293634325265884,0.1004180833697319,-0.06373515725135803
1733851529313240000,0.326239990234375,-0.06181368976831436,0.09325841069221497,-0.0580567792057991
1733851529323209000,0.336208984375,-0.056242622435092926,0.10013362765312195,-0.059522584080696106
1733851529333177000,0.346177001953125,-0.052457474172115326,0.10400490462779999,-0.06273415684700012
1733851529343146000,0.35614599609375,-0.04951148480176926,0.09910096228122711,-0.06220898777246475
1733851529353114000,0.366114013671875,-0.04498851299285889,0.07916466891765594,-0.059452787041664124
1733851529363082000,0.37608203125,-0.042574889957904816,0.059352610260248184,-0.058791257441043854
1733851529373051000,0.38605078125,-0.044457871466875076,0.059292033314704895,-0.05872797220945358
1733851529383019000,0.39601904296875,-0.04735139384865761,0.07884788513183594,-0.05088549107313156
1733851529392987100,0.405987060546875,-0.054186541587114334,0.09519418329000473,-0.03806070238351822
1733851529402956000,0.4159560546875,-0.06296591460704803,0.09960730373859406,-0.029263751581311226
1733851529412924200,0.425924072265625,-0.06957148760557175,0.08957983553409576,-0.02578560635447502
1733851529422892000,0.43589208984375,-0.0704769641160965,0.06755629181861877,-0.02837180346250534
1733851529432861200,0.445861083984375,-0.06770593672990799,0.03433980420231819,-0.02927245944738388
1733851529442829000,0.4558291015625,-0.06356605142354965,-0.0004336221609264612,-0.026999451220035553
1733851529452797000,0.465796875,-0.05651560053229332,-0.027903221547603607,-0.017408030107617378
1733851529462765800,0.475765869140625,-0.04933491721749306,-0.03755984455347061,-0.004808615893125534
1733851529472734000,0.48573388671875,-0.04048164188861847,-0.029887890443205833,0.009097578004002571
1733851529482702800,0.495702880859375,-0.03187137469649315,-0.005024618469178677,0.025316229090094566
1733851529492671000,0.5056708984375,-0.027157045900821686,0.026981303468346596,0.0365380123257637
1733851529502639000,0.51563916015625,-0.029554424807429314,0.05324406921863556,0.043178871273994446
1733851529512608000,0.52560791015625,-0.046632613986730576,0.06873426586389542,0.03468921408057213
1733851529522576100,0.535576171875,-0.07118828594684601,0.07743187993764877,0.02320539578795433
1733851529532544300,0.545544189453125,-0.09638526290655136,0.08282557874917984,0.021262506023049355
1733851529542513200,0.55551318359375,-0.11526654660701752,0.09668014198541641,0.023239370435476303
1733851529552481000,0.56548095703125,-0.13021151721477509,0.13031329214572906,0.03377604857087135
1733851529562449000,0.575448974609375,-0.14379417896270752,0.16148798167705536,0.04797149449586868
1733851529572418000,0.58541796875,-0.14520712196826935,0.16550448536872864,0.07093217223882675
1733851529582386000,0.595385986328125,-0.14049147069454193,0.15460389852523804,0.09760186821222305
1733851529592354000,0.60535400390625,-0.13276654481887817,0.1597614586353302,0.1146497130393982
1733851529602323000,0.615322998046875,-0.12069445103406906,0.19347894191741943,0.11134739220142365
1733851529612291000,0.625291015625,-0.1085112914443016,0.21871419250965118,0.10219690203666687
1733851529622260000,0.635260009765625,-0.09071924537420273,0.21770086884498596,0.10586806386709213
1733851529632228000,0.64522802734375,-0.07208377122879028,0.1953446865081787,0.11878637224435806
1733851529642196000,0.655196044921875,-0.05079792067408562,0.1307382881641388,0.12993969023227692
1733851529652164900,0.665164794921875,-0.027279281988739967,0.05537369102239609,0.13121560215950012
1733851529662133000,0.675133056640625,-0.0028080285992473364,0.029428647831082344,0.11484913527965546
1733851529672101000,0.68510107421875,0.011331894434988499,0.04286416247487068,0.08878510445356369
1733851529682070000,0.695070068359375,0.0017450470477342606,0.042888663709163666,0.07725654542446136
1733851529692038100,0.7050380859375,-0.017706286162137985,0.0012980459723621607,0.09850018471479416
1733851529702006000,0.715006103515625,-0.03801768645644188,-0.05264135077595711,0.13826730847358704
1733851529711975200,0.72497509765625,-0.048094283789396286,-0.07910215109586716,0.18252801895141602
1733851529721943000,0.734943115234375,-0.040755145251750946,-0.05288385599851608,0.23466472327709198
1733851529731911000,0.744910888671875,-0.025903761386871338,0.020200740545988083,0.2765887379646301
1733851529741880000,0.754880126953125,-0.023161236196756363,0.11067849397659302,0.2795685827732086
1733851529751848000,0.764847900390625,-0.03272757679224014,0.1862713098526001,0.2534339427947998
1733851529761816000,0.774816162109375,-0.050737734884023666,0.22601819038391113,0.21563568711280823
1733851529771785000,0.784784912109375,-0.06835348159074783,0.22861482203006744,0.18489432334899902
1733851529781753000,0.794753173828125,-0.08695486187934875,0.21381963789463043,0.1605982929468155
1733851529791722000,0.804721923828125,-0.10368271172046661,0.1884678304195404,0.14317265152931213
1733851529801690000,0.814690185546875,-0.10775548964738846,0.15113404393196106,0.13249178230762482
1733851529811658200,0.824658203125,-0.10272624343633652,0.10369320958852768,0.12710031867027283
1733851529821627100,0.834627197265625,-0.08659813553094864,0.05061427503824234,0.12098970264196396
1733851529831595000,0.844594970703125,-0.05996985360980034,-0.0035150309558957815,0.11939723789691925
1733851529841563000,0.85456298828125,-0.026179132983088493,-0.05234968289732933,0.12058687210083008
1733851529851532000,0.864531982421875,0.018969032913446426,-0.09338273853063583,0.12747400999069214
1733851529861500000,0.8745,0.06758850812911987,-0.12803712487220764,0.13857485353946686
1733851529871468000,0.884468017578125,0.1067538857460022,-0.1488659828901291,0.14953628182411194
1733851529881437200,0.894437255859375,0.13743482530117035,-0.1460220068693161,0.15862591564655304
1733851529891405000,0.904405029296875,0.15385428071022034,-0.12537285685539246,0.16123422980308533
1733851529901374200,0.914374267578125,0.15881600975990295,-0.09981770068407059,0.16956806182861328
1733851529911342000,0.924342041015625,0.16100075840950012,-0.08586052805185318,0.18310308456420898
1733851529921310000,0.93431005859375,0.16087132692337036,-0.07923164963722229,0.20347866415977478
1733851529931278800,0.94427880859375,0.1635642945766449,-0.07272426784038544,0.21967464685440063
1733851529941247000,0.9542470703125,0.16821230947971344,-0.0743141770362854,0.23405252397060394
1733851529951215000,0.964215087890625,0.17587782442569733,-0.08682931214570999,0.25446122884750366
1733851529961184000,0.97418408203125,0.183392733335495,-0.1067710593342781,0.28143957257270813
1733851529971152100,0.984152099609375,0.18374107778072357,-0.11704234033823013,0.30095401406288147
1733851529981120000,0.9941201171875,0.18768814206123352,-0.11985490471124649,0.30311623215675354
1733851529991089200,1.004089111328125,0.1904168277978897,-0.12987248599529266,0.29794031381607056
1733851530001057000,1.01405712890625,0.20116747915744781,-0.15976247191429138,0.28612998127937317
1733851530011025000,1.02402490234375,0.22603073716163635,-0.20957642793655396,0.2752191424369812
1733851530020994000,1.033994140625,0.24981489777565002,-0.2779235243797302,0.27286437153816223
1733851530030962000,1.0439619140625,0.26738935708999634,-0.3398447632789612,0.285942018032074
1733851530040931000,1.05393115234375,0.2768137454986572,-0.3864160180091858,0.30311277508735657
1733851530050899000,1.06389892578125,0.28281906247138977,-0.41627198457717896,0.3107045888900757
1733851530060867000,1.0738671875,0.2864079475402832,-0.44488897919654846,0.3135131597518921
1733851530070836000,1.0838359375,0.28463053703308105,-0.48195886611938477,0.3242916464805603
1733851530080804000,1.09380419921875,0.27260929346084595,-0.5233685970306396,0.3396055996417999
1733851530090772200,1.103772216796875,0.26071590185165405,-0.5631598234176636,0.3559708297252655
1733851530100741000,1.1137412109375,0.2510688602924347,-0.5734880566596985,0.372036337852478
1733851530110709200,1.123709228515625,0.23454299569129944,-0.5510396957397461,0.38325265049934387
1733851530120677000,1.133677001953125,0.2215781956911087,-0.5009384751319885,0.3944683074951172
1733851530130646300,1.143646240234375,0.20828622579574585,-0.4419231414794922,0.408759742975235
1733851530140614100,1.1536142578125,0.19034264981746674,-0.38674139976501465,0.4364217221736908
1733851530150582300,1.163582275390625,0.17111438512802124,-0.33612069487571716,0.47252994775772095
1733851530160551400,1.173551513671875,0.14545854926109314,-0.2943381071090698,0.502493679523468
1733851530170519300,1.183519287109375,0.1309436410665512,-0.2621823251247406,0.5219544768333435
1733851530180488400,1.193488525390625,0.12801070511341095,-0.25209346413612366,0.5355156064033508
1733851530190456000,1.2034560546875,0.13470855355262756,-0.266104519367218,0.5502356886863708
1733851530200424200,1.213424072265625,0.15398691594600677,-0.29022982716560364,0.5604313611984253
1733851530210393000,1.22339306640625,0.18362122774124146,-0.3185509443283081,0.5634713172912598
1733851530220361200,1.233361328125,0.22488638758659363,-0.3447979986667633,0.5552884936332703
1733851530230329300,1.243329345703125,0.2698456048965454,-0.36498087644577026,0.5406807661056519
1733851530240298200,1.25329833984375,0.30803772807121277,-0.3801973760128021,0.5203808546066284
1733851530250266400,1.263266357421875,0.33691534399986267,-0.4014044404029846,0.5014747381210327
1733851530260234200,1.273234130859375,0.3473687767982483,-0.43678879737854004,0.4935518205165863
1733851530270203400,1.283203369140625,0.35104790329933167,-0.48743128776550293,0.4996013939380646
1733851530280171300,1.293171142578125,0.34653759002685547,-0.5273840427398682,0.5101834535598755
1733851530290139100,1.30313916015625,0.3447396755218506,-0.5439805388450623,0.520490288734436
1733851530300108300,1.3131083984375,0.3471091091632843,-0.5394187569618225,0.524384081363678
1733851530310076200,1.323076171875,0.34172672033309937,-0.5221843719482422,0.5244699716567993
1733851530320045300,1.33304541015625,0.33946678042411804,-0.508450984954834,0.522339403629303
1733851530330013200,1.34301318359375,0.34090444445610046,-0.48440444469451904,0.5133664608001709
1733851530339981300,1.352981201171875,0.34859272837638855,-0.4482605457305908,0.49222925305366516
1733851530349950200,1.3629501953125,0.35757145285606384,-0.4186214208602905,0.4745076596736908
1733851530359918300,1.37291845703125,0.35767504572868347,-0.41158533096313477,0.4755377769470215
1733851530369886200,1.38288623046875,0.3507322072982788,-0.4313211143016815,0.49184927344322205
1733851530379855000,1.392855224609375,0.34867438673973083,-0.4605671465396881,0.507509708404541
1733851530389823200,1.4028232421875,0.3466326594352722,-0.4777641296386719,0.518648087978363
1733851530399791400,1.412791259765625,0.3497365713119507,-0.4764450490474701,0.5246529579162598
1733851530409760300,1.42276025390625,0.3485077917575836,-0.4472801983356476,0.5200607776641846
1733851530419728400,1.432728271484375,0.34488216042518616,-0.38889971375465393,0.5060580968856812
1733851530429696300,1.4426962890625,0.3321130871772766,-0.3272644281387329,0.48750317096710205
1733851530439665400,1.45266552734375,0.3208300769329071,-0.28451988101005554,0.4666575491428375
1733851530449633300,1.46263330078125,0.31126973032951355,-0.2614009380340576,0.4452061653137207
1733851530459601200,1.47260107421875,0.29681116342544556,-0.24788326025009155,0.43367600440979004
1733851530469570000,1.482570068359375,0.2768338620662689,-0.24131041765213013,0.4350352883338928
1733851530479538200,1.4925380859375,0.2626331150531769,-0.24593207240104675,0.45560741424560547
1733851530489507000,1.502507080078125,0.2663462162017822,-0.26529747247695923,0.4773387908935547
1733851530499475200,1.51247509765625,0.27089035511016846,-0.29597705602645874,0.4840494394302368
1733851530509443300,1.522443359375,0.27144429087638855,-0.3494870066642761,0.47813719511032104
1733851530519412200,1.532412109375,0.26343029737472534,-0.4348416030406952,0.4648061990737915
1733851530529380400,1.54238037109375,0.2616867423057556,-0.5134355425834656,0.4438011050224304
1733851530539348200,1.55234814453125,0.27093881368637085,-0.5390706062316895,0.41845473647117615
1733851530549317400,1.5623173828125,0.2904507517814636,-0.500551164150238,0.39040514826774597
1733851530559285200,1.57228515625,0.31898438930511475,-0.4321103096008301,0.3848111629486084
1733851530569253000,1.582253173828125,0.3482595980167389,-0.356934517621994,0.3852676749229431
1733851530579222300,1.59222216796875,0.3513912260532379,-0.3030017614364624,0.39260387420654297
1733851530589190100,1.602190185546875,0.3282434046268463,-0.2900264859199524,0.397140771150589
1733851530599159300,1.6121591796875,0.28241679072380066,-0.32197242975234985,0.39437827467918396
1733851530609127200,1.622127197265625,0.2335311323404312,-0.38930755853652954,0.39506202936172485
1733851530619095300,1.63209521484375,0.19667565822601318,-0.4538140892982483,0.38816338777542114
1733851530629064400,1.642064453125,0.16963791847229004,-0.47952181100845337,0.37879258394241333
1733851530639032300,1.6520322265625,0.1506040394306183,-0.44104552268981934,0.36749279499053955
1733851530649000200,1.662000244140625,0.14404267072677612,-0.3533560335636139,0.3595670163631439
1733851530658969000,1.671968994140625,0.14403334259986877,-0.263505756855011,0.35869401693344116
1733851530668937200,1.681937255859375,0.13808225095272064,-0.18920089304447174,0.3602176308631897
1733851530678905300,1.6919052734375,0.12542158365249634,-0.13705353438854218,0.3627590835094452
1733851530688874200,1.701874267578125,0.11039508879184723,-0.10819539427757263,0.3633972406387329
1733851530698842400,1.71184228515625,0.0957128182053566,-0.1106385737657547,0.35978278517723083
1733851530708810200,1.721810302734375,0.07843714207410812,-0.1516052931547165,0.3477939963340759
1733851530718779400,1.731779296875,0.068050816655159,-0.20842649042606354,0.3265744745731354
1733851530728747000,1.7417470703125,0.06985312700271606,-0.25018200278282166,0.29189980030059814
1733851530738716200,1.751716064453125,0.07460473477840424,-0.26256063580513,0.2562171518802643
1733851530748684300,1.761684326171875,0.07374972850084305,-0.2597483694553375,0.232984259724617
1733851530758652200,1.771652099609375,0.06882740557193756,-0.24712394177913666,0.22075794637203217
1733851530768621300,1.781621337890625,0.04769856110215187,-0.22463056445121765,0.2118517905473709
1733851530778589200,1.791589111328125,0.015168048441410065,-0.1985931098461151,0.20308440923690796
1733851530788557300,1.801557373046875,-0.02115880325436592,-0.17758914828300476,0.19581221044063568
1733851530798526200,1.811526123046875,-0.04397730156779289,-0.15797336399555206,0.1932731568813324
1733851530808494300,1.821494384765625,-0.05076130852103233,-0.13060136139392853,0.19066953659057617
1733851530818462200,1.831462158203125,-0.043922308832407,-0.09288088977336884,0.18323452770709991
1733851530828431000,1.84143115234375,-0.036097005009651184,-0.05222887918353081,0.16889187693595886
1733851530838399200,1.851399169921875,-0.028589025139808655,-0.01566074602305889,0.14888834953308105
1733851530848367000,1.8613671875,-0.03601152077317238,-0.0021657648030668497,0.12915164232254028
1733851530858336300,1.871336181640625,-0.05671759694814682,-0.012518802657723427,0.11510932445526123
1733851530868304100,1.88130419921875,-0.07871237397193909,-0.019131477922201157,0.10264476388692856
1733851530878272300,1.891272216796875,-0.10036999732255936,-0.007280945312231779,0.0903199166059494
1733851530888241400,1.901241455078125,-0.11689119040966034,0.012617387808859348,0.07636270672082901
1733851530898209300,1.911209228515625,-0.12379197776317596,0.036034829914569855,0.059962160885334015
1733851530908178400,1.921178466796875,-0.1125134825706482,0.059487901628017426,0.03744244948029518
1733851530918146000,1.93114599609375,-0.09160101413726807,0.07386817038059235,0.014214621856808662
1733851530928114200,1.9411142578125,-0.08367077261209488,0.06749230623245239,0.0017069089226424694
1733851530938083000,1.9510830078125,-0.0869043841958046,0.056917957961559296,-0.005833298899233341
1733851530948051200,1.96105126953125,-0.09366296976804733,0.05274922400712967,-0.012764033861458302
1733851530958019300,1.971019287109375,-0.10494118928909302,0.06058291345834732,-0.01970876008272171
1733851530967988200,1.98098828125,-0.11149629205465317,0.07576064765453339,-0.03329376131296158
1733851530977956400,1.990956298828125,-0.11208644509315491,0.09409064799547195,-0.050422947853803635
1733851530987924200,2.00092431640625,-0.11291442811489105,0.11181105673313141,-0.06855215132236481
1733851530997893400,2.010893310546875,-0.11349818855524063,0.12280725687742233,-0.08345280587673187
1733851531007861200,2.020861328125,-0.11957897990942001,0.12562552094459534,-0.10049565136432648
1733851531017829000,2.0308291015625,-0.13477978110313416,0.13365387916564941,-0.12556453049182892
1733851531027798300,2.04079833984375,-0.1549389809370041,0.15017670392990112,-0.15059156715869904
1733851531037766100,2.05076611328125,-0.1864044964313507,0.16346079111099243,-0.16669143736362457
1733851531047735300,2.0607353515625,-0.2208043932914734,0.17730864882469177,-0.16938050091266632
1733851531057703200,2.070703125,-0.2423054277896881,0.20020943880081177,-0.16104453802108765
1733851531067671300,2.08067138671875,-0.2501990497112274,0.23437879979610443,-0.15303975343704224
1733851531077640200,2.09064013671875,-0.24531321227550507,0.2750718891620636,-0.146818608045578
1733851531087608300,2.1006083984375,-0.22863195836544037,0.31078460812568665,-0.150309219956398
1733851531097576200,2.110576171875,-0.21607010066509247,0.32440534234046936,-0.16738326847553253
1733851531107545000,2.120545166015625,-0.2149513214826584,0.30387991666793823,-0.1930338442325592
1733851531117513200,2.13051318359375,-0.22792117297649384,0.26720261573791504,-0.21708938479423523
1733851531127481300,2.1404814453125,-0.24577273428440094,0.24162518978118896,-0.23606984317302704
1733851531137450200,2.1504501953125,-0.26372644305229187,0.2383367121219635,-0.25176626443862915
1733851531147418400,2.16041845703125,-0.2777719497680664,0.2521168291568756,-0.2636214792728424
1733851531157387300,2.17038720703125,-0.28609779477119446,0.26849740743637085,-0.27022451162338257
1733851531167355400,2.18035546875,-0.2835262417793274,0.2889804244041443,-0.2741541266441345
1733851531177323300,2.1903232421875,-0.27502676844596863,0.3270268738269806,-0.27803754806518555
1733851531187292400,2.20029248046875,-0.27116504311561584,0.3698842227458954,-0.28685691952705383
1733851531197260000,2.210260009765625,-0.2751677632331848,0.3876536190509796,-0.28914350271224976
1733851531207228200,2.220228271484375,-0.2790100574493408,0.3828083872795105,-0.2947602868080139
1733851531217197000,2.230197021484375,-0.28261253237724304,0.377994179725647,-0.2981068193912506
1733851531227165200,2.240165283203125,-0.28719183802604675,0.3853587508201599,-0.3049083352088928
1733851531237133300,2.25013330078125,-0.3027966320514679,0.4069537818431854,-0.3044092655181885
1733851531247102200,2.260102294921875,-0.32087215781211853,0.4307771623134613,-0.2993752062320709
1733851531257070300,2.2700703125,-0.33608999848365784,0.45918509364128113,-0.294962614774704
1733851531267038500,2.28003857421875,-0.35489362478256226,0.48063093423843384,-0.29292574524879456
1733851531277007400,2.29000732421875,-0.37311550974845886,0.47639599442481995,-0.29659849405288696
1733851531286975200,2.299975341796875,-0.38751161098480225,0.4485904276371002,-0.3040696084499359
1733851531296944000,2.309944091796875,-0.4048874080181122,0.4084017276763916,-0.321658194065094
1733851531306912300,2.319912353515625,-0.4175475537776947,0.3757624328136444,-0.3477921187877655
1733851531316880100,2.329880126953125,-0.42046424746513367,0.3701799213886261,-0.3800185024738312
1733851531326849300,2.339849365234375,-0.4194067120552063,0.3908662796020508,-0.4061729907989502
1733851531336817200,2.349817138671875,-0.4117826223373413,0.4318171739578247,-0.41939640045166016
1733851531346785300,2.359785400390625,-0.40521004796028137,0.4867619574069977,-0.42301589250564575
1733851531356754200,2.369754150390625,-0.40148961544036865,0.5325318574905396,-0.41613587737083435
1733851531366722300,2.379722412109375,-0.406544029712677,0.5527280569076538,-0.3968537151813507
1733851531376690200,2.389690185546875,-0.4037346839904785,0.5563268065452576,-0.38184598088264465
1733851531386659000,2.3996591796875,-0.3960302770137787,0.5642918944358826,-0.3893465995788574
1733851531396627200,2.409627197265625,-0.3918408751487732,0.5839287042617798,-0.40846970677375793
1733851531406595300,2.41959521484375,-0.3901296555995941,0.5998641848564148,-0.43223288655281067
1733851531416564200,2.429564208984375,-0.38300251960754395,0.6037087440490723,-0.44684723019599915
1733851531426532400,2.439532470703125,-0.37733715772628784,0.6077550053596497,-0.46103236079216003
1733851531436501200,2.449501220703125,-0.37085288763046265,0.6306981444358826,-0.46469181776046753
1733851531446469400,2.459469482421875,-0.3730665147304535,0.6658411026000977,-0.4563833177089691
1733851531456437200,2.469437255859375,-0.38288506865501404,0.6899347305297852,-0.4374828636646271
1733851531466406400,2.479406494140625,-0.3938184082508087,0.688977837562561,-0.41525182127952576
1733851531476374300,2.489374267578125,-0.3984195590019226,0.674186110496521,-0.40611132979393005
1733851531486342100,2.499342041015625,-0.3907279372215271,0.6610514521598816,-0.4116407334804535
1733851531496311300,2.509311279296875,-0.3767138421535492,0.6540369391441345,-0.42062410712242126
1733851531506279200,2.519279052734375,-0.35599273443222046,0.6557918190956116,-0.42682403326034546
1733851531516247300,2.529247314453125,-0.3264976739883423,0.6634790301322937,-0.4243587553501129
1733851531526216200,2.53921630859375,-0.29555216431617737,0.6717995405197144,-0.4290468096733093
1733851531536184300,2.549184326171875,-0.27911990880966187,0.671905517578125,-0.43397101759910583
1733851531546153200,2.5591533203125,-0.2777048349380493,0.6629388928413391,-0.4331127405166626
1733851531556121300,2.569121337890625,-0.28903526067733765,0.6449172496795654,-0.43284881114959717
1733851531566089200,2.579089111328125,-0.3167565166950226,0.6171147227287292,-0.43545424938201904
1733851531576058000,2.58905810546875,-0.3483375906944275,0.5860023498535156,-0.45012426376342773
1733851531586026200,2.599026123046875,-0.37572339177131653,0.5457875728607178,-0.46142780780792236
1733851531595994000,2.608994140625,-0.3889196217060089,0.5044193863868713,-0.4656206965446472
1733851531605963300,2.61896337890625,-0.3907574713230133,0.4725658595561981,-0.4538058042526245
1733851531615931400,2.628931396484375,-0.3785088062286377,0.4633276164531708,-0.4391792118549347
1733851531625899300,2.638899169921875,-0.3629695475101471,0.48581618070602417,-0.4298842251300812
1733851531635868400,2.648868408203125,-0.3527531325817108,0.524827241897583,-0.4296932518482208
1733851531645836300,2.658836181640625,-0.3534027934074402,0.5724793672561646,-0.43834391236305237
1733851531655804200,2.66880419921875,-0.36943235993385315,0.6131258606910706,-0.4549628496170044
1733851531665773000,2.67877294921875,-0.39885857701301575,0.638286292552948,-0.4747386872768402
1733851531675741200,2.6887412109375,-0.4428097903728485,0.6315003037452698,-0.48833465576171875
1733851531685710000,2.6987099609375,-0.4954279661178589,0.5997359752655029,-0.4922187924385071
1733851531695678200,2.70867822265625,-0.5445526838302612,0.5552558302879333,-0.4802928864955902
1733851531705646300,2.718646240234375,-0.5840370655059814,0.5210331082344055,-0.4645622670650482
1733851531715615200,2.728615234375,-0.6059769988059998,0.501264214515686,-0.4534528851509094
1733851531725583400,2.738583251953125,-0.6078768968582153,0.5062867999076843,-0.4542924165725708
1733851531735551200,2.74855126953125,-0.6008000373840332,0.530301570892334,-0.44940897822380066
1733851531745520400,2.758520263671875,-0.5828951001167297,0.551722526550293,-0.44566282629966736
1733851531755488300,2.76848828125,-0.5554304718971252,0.5529736876487732,-0.44609370827674866
1733851531765456100,2.7784560546875,-0.530798614025116,0.5255129337310791,-0.4544399082660675
1733851531775425300,2.78842529296875,-0.5118534564971924,0.47931668162345886,-0.4637596607208252
1733851531785393200,2.79839306640625,-0.5130112767219543,0.4417937695980072,-0.47248923778533936
1733851531795362300,2.8083623046875,-0.5177364945411682,0.4094691276550293,-0.46379026770591736
1733851531805330200,2.818330078125,-0.5290249586105347,0.3652716875076294,-0.4117750823497772
1733851531815298300,2.82829833984375,-0.5524410605430603,0.25960490107536316,-0.24139189720153809
1733851531825267200,2.83826708984375,-0.5978299379348755,0.11940604448318481,0.050366297364234924
1733851531835235300,2.8482353515625,-0.6389265060424805,0.09006999433040619,0.23400990664958954
1733851531845203200,2.858203125,-0.6270642876625061,0.24186573922634125,0.16403712332248688
1733851531855172000,2.868172119140625,-0.5261222124099731,0.4702107608318329,-0.04792546108365059
1733851531865140200,2.87814013671875,-0.38862189650535583,0.6430333256721497,-0.28956618905067444
1733851531875108400,2.8881083984375,-0.28015056252479553,0.6319361925125122,-0.4675103425979614
1733851531885077200,2.8980771484375,-0.2275487184524536,0.4048572778701782,-0.5463582873344421
1733851531895045400,2.90804541015625,-0.21768704056739807,0.09124796837568283,-0.5343274474143982
1733851531905013200,2.91801318359375,-0.23287199437618256,-0.14028844237327576,-0.4780960977077484
1733851531914982400,2.927982421875,-0.256402850151062,-0.2198469191789627,-0.39456284046173096
1733851531924950300,2.9379501953125,-0.2626495659351349,-0.11620771139860153,-0.3443102538585663
1733851531934919400,2.94791943359375,-0.2504855990409851,0.1611298769712448,-0.35128265619277954
1733851531944887000,2.957886962890625,-0.2691028118133545,0.42215606570243835,-0.3547894358634949
1733851531954855200,2.967855224609375,-0.3092142939567566,0.49403318762779236,-0.3789847791194916
1733851531964824300,2.97782421875,-0.36783191561698914,0.3898846507072449,-0.4250994324684143
1733851531974792200,2.987792236328125,-0.42172950506210327,0.2285785973072052,-0.45905792713165283
1733851531984760300,2.99776025390625,-0.4515450596809387,0.09264953434467316,-0.4703088402748108
1733851531994729200,3.007729248046875,-0.45124998688697815,0.02619248256087303,-0.4524590075016022
1733851532004697300,3.017697265625,-0.4152678847312927,0.05015101656317711,-0.42773106694221497
1733851532014665200,3.027665283203125,-0.35624638199806213,0.1454375982284546,-0.41472578048706055
1733851532024634400,3.03763427734375,-0.30291125178337097,0.24790121614933014,-0.4055115878582001
1733851532034602200,3.047602294921875,-0.2799185812473297,0.2807891070842743,-0.3870108723640442
1733851532044571100,3.057571044921875,-0.2749544382095337,0.21728067100048065,-0.3628227412700653
1733851532054539300,3.067539306640625,-0.28171780705451965,0.12632305920124054,-0.35088565945625305
1733851532064507100,3.077507080078125,-0.29278498888015747,0.07040533423423767,-0.35499271750450134
1733851532074476300,3.087476318359375,-0.2931669056415558,0.052227932959795,-0.3618628680706024
1733851532084444200,3.097444091796875,-0.28901275992393494,0.06384992599487305,-0.3530549705028534
1733851532094412300,3.107412353515625,-0.2787848711013794,0.0974169373512268,-0.3266332149505615
1733851532104381400,3.11738134765625,-0.26728054881095886,0.14796483516693115,-0.2896921634674072
1733851532114349300,3.127349365234375,-0.2623571753501892,0.17830169200897217,-0.2569462060928345
1733851532124317400,3.1373173828125,-0.2476338893175125,0.17946414649486542,-0.244734525680542
1733851532134286300,3.147286376953125,-0.22881199419498444,0.17970623075962067,-0.2432498037815094
1733851532144254500,3.15725439453125,-0.21285074949264526,0.17872898280620575,-0.23874634504318237
1733851532154223400,3.167223388671875,-0.20370757579803467,0.1511266529560089,-0.21830151975154877
1733851532164191500,3.17719140625,-0.1989343911409378,0.1119869276881218,-0.19941507279872894
1733851532174159400,3.187159423828125,-0.18510138988494873,0.09152905642986298,-0.18739676475524902
1733851532184128300,3.197128173828125,-0.17501480877399445,0.09188733249902725,-0.1664951741695404
1733851532194096400,3.207096435546875,-0.16594354808330536,0.085666723549366,-0.1485190987586975
1733851532204064300,3.217064208984375,-0.1604173630475998,0.06858617067337036,-0.14406417310237885
1733851532214033400,3.227033447265625,-0.15736351907253265,0.04285363852977753,-0.1589600294828415
1733851532224001300,3.237001220703125,-0.14122901856899261,-0.006268089637160301,-0.18377311527729034
1733851532233969400,3.246969482421875,-0.11524881422519684,-0.08421002328395844,-0.20073851943016052
1733851532243938600,3.2569384765625,-0.0902666375041008,-0.19016626477241516,-0.20167303085327148
1733851532253906400,3.266906494140625,-0.0706239566206932,-0.3170213997364044,-0.18267056345939636
1733851532263874300,3.276874267578125,-0.0498795323073864,-0.4302862882614136,-0.16620296239852905
1733851532273843200,3.28684326171875,-0.027178213000297546,-0.5024033784866333,-0.18214784562587738
1733851532283811300,3.296811279296875,-0.01450556144118309,-0.5668955445289612,-0.20190982520580292
1733851532293780200,3.3067802734375,0.0038599977269768715,-0.5897369384765625,-0.21509511768817902
1733851532303748400,3.316748291015625,0.02346286177635193,-0.5449641346931458,-0.20005056262016296
1733851532313716500,3.326716552734375,0.03286302089691162,-0.438984215259552,-0.16138014197349548
1733851532323685400,3.336685302734375,0.03525547683238983,-0.2969037592411041,-0.12584929168224335
1733851532333653500,3.346653564453125,0.042674772441387177,-0.1617177128791809,-0.12237706780433655
1733851532343621400,3.356621337890625,0.04659973457455635,-0.08721141517162323,-0.14014799892902374
1733851532353590500,3.366590576171875,0.03752980753779411,-0.07485807687044144,-0.16498464345932007
1733851532363558400,3.376558349609375,0.025407902896404266,-0.1144808903336525,-0.19596098363399506
1733851532373526300,3.3865263671875,0.011519251391291618,-0.16021215915679932,-0.2327975630760193
1733851532383495400,3.396495361328125,-0.007201438304036856,-0.19258947670459747,-0.2677840292453766
1733851532393463300,3.40646337890625,-0.03281332552433014,-0.21096476912498474,-0.3076462149620056
1733851532403432400,3.416432373046875,-0.06350360065698624,-0.20558562874794006,-0.3290039002895355
1733851532413400300,3.426400390625,-0.09688685834407806,-0.16688962280750275,-0.32439664006233215
1733851532423368400,3.436368408203125,-0.12675167620182037,-0.11393725126981735,-0.3041337728500366
1733851532433337300,3.44633740234375,-0.15199017524719238,-0.04815424978733063,-0.2746240794658661
1733851532443305200,3.45630517578125,-0.16012081503868103,0.01758374087512493,-0.2564294934272766
1733851532453273300,3.4662734375,-0.153211772441864,0.06281886249780655,-0.24806341528892517
1733851532463242200,3.4762421875,-0.14605467021465302,0.04821683466434479,-0.25692319869995117
1733851532473210400,3.48621044921875,-0.12743385136127472,-0.03341491147875786,-0.2739138901233673
1733851532483178500,3.496178466796875,-0.10155297815799713,-0.13767804205417633,-0.28693413734436035
1733851532493147400,3.5061474609375,-0.07974036037921906,-0.20201842486858368,-0.291969358921051
1733851532503115500,3.516115478515625,-0.06090927869081497,-0.2188100963830948,-0.30706173181533813
1733851532513084400,3.52608447265625,-0.051052920520305634,-0.18513283133506775,-0.32611772418022156
1733851532523052500,3.536052490234375,-0.05276546627283096,-0.12080744653940201,-0.337100625038147
1733851532533020200,3.546020263671875,-0.07048773765563965,-0.04963047802448273,-0.33571499586105347
1733851532542989300,3.5559892578125,-0.10492973029613495,0.005549770314246416,-0.327576607465744
1733851532552957200,3.565957275390625,-0.13424740731716156,0.00003862474113702774,-0.32406601309776306
1733851532562925300,3.57592529296875,-0.14905790984630585,-0.08835805952548981,-0.3334621787071228
1733851532572894200,3.585894287109375,-0.15916727483272552,-0.18940024077892303,-0.34440991282463074
1733851532582862300,3.5958623046875,-0.1738269031047821,-0.23941701650619507,-0.3472902178764343
1733851532592830500,3.60583056640625,-0.18787482380867004,-0.2558167576789856,-0.3515890836715698
1733851532602799400,3.61579931640625,-0.20386269688606262,-0.28318294882774353,-0.36038368940353394
1733851532612767500,3.625767578125,-0.21813617646694183,-0.3103642165660858,-0.36649033427238464
1733851532622736400,3.635736328125,-0.23007060587406158,-0.3303848206996918,-0.3539457619190216
1733851532632704300,3.645704345703125,-0.24137838184833527,-0.33179202675819397,-0.3352605104446411
1733851532642672400,3.65567236328125,-0.2499173879623413,-0.30161774158477783,-0.32572633028030396
1733851532652641300,3.665641357421875,-0.2616230547428131,-0.2528294026851654,-0.30717554688453674
1733851532662609400,3.675609375,-0.2684903144836426,-0.216292142868042,-0.2876797020435333
1733851532672577300,3.685577392578125,-0.26666152477264404,-0.18552598357200623,-0.2801240384578705
1733851532682546400,3.69554638671875,-0.2589115798473358,-0.16448260843753815,-0.27824297547340393
1733851532692514300,3.705514404296875,-0.2426316738128662,-0.16936631500720978,-0.27514731884002686
1733851532702482400,3.715482421875,-0.22992905974388123,-0.17747876048088074,-0.27071672677993774
1733851532712451600,3.72545166015625,-0.2271101027727127,-0.16690894961357117,-0.2681233286857605
1733851532722419200,3.735419189453125,-0.22782808542251587,-0.1479523628950119,-0.2654969394207001
1733851532732388400,3.745388427734375,-0.22461870312690735,-0.13459740579128265,-0.27129679918289185
1733851532742356200,3.755356201171875,-0.22151492536067963,-0.11347199976444244,-0.26829347014427185
1733851532752324400,3.765324462890625,-0.21975484490394592,-0.11104053258895874,-0.2529528737068176
1733851532762293200,3.775293212890625,-0.21930743753910065,-0.14737553894519806,-0.23300813138484955
1733851532772261400,3.785261474609375,-0.22262494266033173,-0.17307211458683014,-0.2225419133901596
1733851532782229500,3.7952294921875,-0.22672952711582184,-0.1487240195274353,-0.2087542563676834
1733851532792198400,3.805198486328125,-0.22954502701759338,-0.08419936150312424,-0.1858270913362503
1733851532802166500,3.81516650390625,-0.21968454122543335,-0.031178537756204605,-0.16168957948684692
1733851532812134100,3.825134033203125,-0.1998242884874344,0.01212233118712902,-0.147710382938385
1733851532822103300,3.835103271484375,-0.17827612161636353,0.05900723859667778,-0.13529591262340546
1733851532832071400,3.845071533203125,-0.15904223918914795,0.1181509792804718,-0.1247447282075882
1733851532842040300,3.855040283203125,-0.14842046797275543,0.16005350649356842,-0.12257611006498337
1733851532852008400,3.865008544921875,-0.15115420520305634,0.17178446054458618,-0.12585791945457458
1733851532861976300,3.874976318359375,-0.16207784414291382,0.16398002207279205,-0.13069048523902893
1733851532871945500,3.884945556640625,-0.17277362942695618,0.1451224535703659,-0.13411185145378113
1733851532881913300,3.894913330078125,-0.18270482122898102,0.12155432254076004,-0.14414235949516296
1733851532891881500,3.904881591796875,-0.18933555483818054,0.11063935607671738,-0.15991652011871338
1733851532901850400,3.914850341796875,-0.18370403349399567,0.1279771327972412,-0.17037487030029297
1733851532911818200,3.924818359375,-0.16834291815757751,0.1619180589914322,-0.17257225513458252
1733851532921786400,3.934786376953125,-0.14402347803115845,0.15345148742198944,-0.17062725126743317
1733851532931755300,3.94475537109375,-0.12438292801380157,0.1145901009440422,-0.16075864434242249
1733851532941723400,3.954723388671875,-0.12032133340835571,0.0954681932926178,-0.1350294053554535
1733851532951692300,3.9646923828125,-0.1200728639960289,0.0943954735994339,-0.09964105486869812
1733851532961660400,3.974660400390625,-0.11370418220758438,0.10828442871570587,-0.06093317270278931
1733851532971628500,3.984628662109375,-0.08781026303768158,0.1499735563993454,-0.028715848922729492
1733851532981597400,3.994597412109375,-0.04790212959051132,0.23296824097633362,0.0015494654653593898
1733851532991565600,4.004565673828125,-0.0023604771122336388,0.31067022681236267,0.028475088998675346
1733851533001533200,4.014533203125,0.03638997673988342,0.3293003737926483,0.06621690839529037
1733851533011502300,4.02450244140625,0.06396833807229996,0.31553420424461365,0.11608326435089111
1733851533021470200,4.03447021484375,0.07781665027141571,0.3226989805698395,0.1583755910396576
1733851533031438300,4.044438232421875,0.08218050003051758,0.350338339805603,0.1806635856628418
1733851533041407200,4.0544072265625,0.08615300804376602,0.35952508449554443,0.18343962728977203
1733851533051375400,4.064375244140625,0.09292969107627869,0.297275573015213,0.17212119698524475
1733851533061344500,4.074344482421875,0.0968710407614708,0.17551115155220032,0.14885278046131134
1733851533071312400,4.0843125,0.1013784408569336,0.04204416275024414,0.11622373759746552
1733851533081280500,4.094280517578125,0.10871464759111404,-0.061383046209812164,0.07048267126083374
1733851533091248600,4.10424853515625,0.1172759085893631,-0.14282357692718506,0.022064002230763435
1733851533101216500,4.114216552734375,0.12147770822048187,-0.20456084609031677,-0.007247698027640581
1733851533111184600,4.1241845703125,0.11651516705751419,-0.25244152545928955,-0.016864372417330742
1733851533121153500,4.134153564453125,0.11794276535511017,-0.30409491062164307,-0.017392367124557495
1733851533131121700,4.14412158203125,0.1117812767624855,-0.3268130123615265,-0.0031580382492393255
1733851533141089800,4.15408984375,0.1109469085931778,-0.30161240696907043,0.01572917401790619
1733851533151058700,4.16405859375,0.11400049179792404,-0.24648630619049072,0.029710236936807632
1733851533161026800,4.17402685546875,0.12157398462295532,-0.19764524698257446,0.04074437543749809
1733851533170995700,4.18399560546875,0.12517164647579193,-0.16741622984409332,0.06268882006406784
1733851533180963600,4.193963623046875,0.12457536906003952,-0.1497730165719986,0.09701313823461533
1733851533190931500,4.203931396484375,0.13244713842868805,-0.1342742145061493,0.11102962493896484
1733851533200900600,4.213900634765625,0.15057633817195892,-0.11640400439500809,0.10325582325458527
1733851533210868500,4.223868408203125,0.16787302494049072,-0.10828801989555359,0.09985043853521347
1733851533220836600,4.233836669921875,0.17605839669704437,-0.11836547404527664,0.11523931473493576
1733851533230805800,4.2438056640625,0.17707811295986176,-0.14733879268169403,0.13626177608966827
1733851533240773600,4.253773681640625,0.1815117448568344,-0.19017180800437927,0.14633142948150635
1733851533250742800,4.26374267578125,0.1885153353214264,-0.22585895657539368,0.14360515773296356
1733851533260710700,4.273710693359375,0.19689057767391205,-0.23581895232200623,0.12520375847816467
1733851533270678500,4.283678466796875,0.21175260841846466,-0.22047674655914307,0.10537093877792358
1733851533280647400,4.2936474609375,0.22221150994300842,-0.20509713888168335,0.09938929229974747
1733851533290615600,4.303615478515625,0.23103536665439606,-0.18469838798046112,0.11048588156700134
1733851533300583700,4.313583740234375,0.2312324494123459,-0.14400920271873474,0.12326933443546295
1733851533310552600,4.323552490234375,0.22152335941791534,-0.07694734632968903,0.14131838083267212
1733851533320520700,4.333520751953125,0.21198749542236328,-0.0061544859781861305,0.15440936386585236
1733851533330488600,4.343488525390625,0.20946894586086273,0.046264249831438065,0.15866483747959137
1733851533340457700,4.353457763671875,0.21163077652454376,0.07381132990121841,0.15720336139202118
1733851533350425600,4.363425537109375,0.21690596640110016,0.06348998099565506,0.1639174520969391
1733851533360394800,4.373394775390625,0.22509664297103882,0.014465837739408016,0.17016515135765076
1733851533370362600,4.383362548828125,0.23510614037513733,-0.03606710955500603,0.17198063433170319
1733851533380330500,4.39333056640625,0.24397937953472137,-0.07682516425848007,0.16471262276172638
1733851533390299600,4.403299560546875,0.257437139749527,-0.12221421301364899,0.16384655237197876
1733851533400267500,4.413267578125,0.2736268937587738,-0.1817881464958191,0.17825902998447418
1733851533410235600,4.423235595703125,0.280114084482193,-0.24130979180335999,0.20154224336147308
1733851533420204500,4.43320458984375,0.2815134525299072,-0.27823421359062195,0.23498612642288208
1733851533430172700,4.443172607421875,0.28182369470596313,-0.29592639207839966,0.2508188784122467
1733851533440140800,4.453140869140625,0.28208908438682556,-0.30684229731559753,0.24344022572040558
1733851533450109700,4.463109619140625,0.28102782368659973,-0.31355318427085876,0.23692134022712708
1733851533460077600,4.47307763671875,0.27007755637168884,-0.3282266855239868,0.24764618277549744
1733851533470046500,4.48304638671875,0.2570054531097412,-0.35324627161026,0.2680334746837616
1733851533480014600,4.4930146484375,0.24089612066745758,-0.385175883769989,0.29160088300704956
1733851533489982700,4.502982666015625,0.2233746498823166,-0.39359334111213684,0.3041830062866211
1733851533499951600,4.51295166015625,0.2086096853017807,-0.3677573800086975,0.317030131816864
1733851533509919700,4.522919677734375,0.19527870416641235,-0.3169344365596771,0.3280028700828552
1733851533519887600,4.5328876953125,0.18112611770629883,-0.26131272315979004,0.3344707787036896
1733851533529856800,4.542856689453125,0.15679921209812164,-0.20065124332904816,0.3400181531906128
1733851533539824600,4.55282470703125,0.13217882812023163,-0.15612941980361938,0.35100921988487244
1733851533549793800,4.562793701171875,0.11080162972211838,-0.13717995584011078,0.3670792579650879
1733851533559761400,4.572761474609375,0.10123635828495026,-0.13718965649604797,0.37567758560180664
1733851533569729500,4.5827294921875,0.10101957619190216,-0.142883762717247,0.383897989988327
1733851533579698700,4.59269873046875,0.10769464820623398,-0.15580135583877563,0.4014890193939209
1733851533589666600,4.60266650390625,0.11481114476919174,-0.17106659710407257,0.4278673529624939
1733851533599634700,4.612634765625,0.12520919740200043,-0.17580556869506836,0.4548613429069519
1733851533609603600,4.622603515625,0.13787491619586945,-0.16093847155570984,0.46581146121025085
1733851533619571700,4.63257177734375,0.14634138345718384,-0.13241811096668243,0.47456997632980347
1733851533629539800,4.642539794921875,0.15247224271297455,-0.10361095517873764,0.4862852096557617
1733851533639508700,4.6525087890625,0.15729829668998718,-0.09512380510568619,0.5044235587120056
1733851533649476600,4.6624765625,0.16817358136177063,-0.11493478715419769,0.5210919976234436
1733851533659445500,4.672445556640625,0.18563367426395416,-0.13821320235729218,0.5283240675926208
1733851533669413600,4.68241357421875,0.2032954841852188,-0.1469915211200714,0.5272401571273804
1733851533679381500,4.692381591796875,0.2214708775281906,-0.15531328320503235,0.5205850601196289
1733851533689350700,4.7023505859375,0.23534221947193146,-0.1783546805381775,0.5165093541145325
1733851533699318500,4.712318603515625,0.2440022975206375,-0.21049444377422333,0.5137823820114136
1733851533709286700,4.72228662109375,0.24868200719356537,-0.23064233362674713,0.5135887861251831
1733851533719255800,4.732255859375,0.24252690374851227,-0.21991457045078278,0.5157593488693237
1733851533729223700,4.7422236328125,0.22773997485637665,-0.1992465704679489,0.5230300426483154
1733851533739192800,4.75219287109375,0.21430671215057373,-0.20486366748809814,0.5310913324356079
1733851533749160400,4.762160400390625,0.21096284687519073,-0.24262861907482147,0.5359095335006714
1733851533759128600,4.772128662109375,0.21437716484069824,-0.27993857860565186,0.537527859210968
1733851533769097500,4.782097412109375,0.21344132721424103,-0.29051506519317627,0.5433815121650696
1733851533779065600,4.792065673828125,0.21146713197231293,-0.27697989344596863,0.5560621619224548
1733851533789033700,4.80203369140625,0.20935657620429993,-0.2452070266008377,0.5748307704925537
1733851533799002600,4.812002685546875,0.20942555367946625,-0.19920526444911957,0.5997328162193298
1733851533808970800,4.821970703125,0.21460965275764465,-0.14596174657344818,0.6194216012954712
1733851533818938600,4.831938720703125,0.22516201436519623,-0.09911143034696579,0.6286019682884216
1733851533828907800,4.84190771484375,0.23691508173942566,-0.07762478291988373,0.6275380253791809
1733851533838875600,4.851875732421875,0.2529657185077667,-0.09805892407894135,0.6241424679756165
1733851533848844500,4.861844482421875,0.27014604210853577,-0.14061330258846283,0.6123968362808228
1733851533858812700,4.871812744140625,0.27367404103279114,-0.1648027002811432,0.5762715339660645
1733851533868780500,4.881780517578125,0.26658526062965393,-0.16737104952335358,0.5215033292770386
1733851533878749700,4.891749755859375,0.26026007533073425,-0.16569794714450836,0.46300363540649414
1733851533888717600,4.901717529296875,0.26293256878852844,-0.1766941398382187,0.4075331687927246
1733851533898685700,4.911685791015625,0.27777931094169617,-0.21072840690612793,0.35989874601364136
1733851533908654600,4.921654541015625,0.2947332561016083,-0.27872079610824585,0.3363838493824005
1733851533918622700,4.931622802734375,0.29838162660598755,-0.3691992163658142,0.3457244038581848
1733851533928590600,4.941590576171875,0.30239179730415344,-0.4740616977214813,0.3854118883609772
1733851533938559500,4.9515595703125,0.3113601505756378,-0.5638864040374756,0.4290577471256256
1733851533948527600,4.961527587890625,0.3240293562412262,-0.606214165687561,0.46781259775161743
1733851533958496500,4.97149658203125,0.3443076014518738,-0.5906885862350464,0.5009992718696594
1733851533968464600,4.981464599609375,0.36418411135673523,-0.5292680859565735,0.5403772592544556
1733851533978432800,4.991432861328125,0.3698371946811676,-0.45705780386924744,0.5928341150283813
1733851533988401700,5.001401611328125,0.35277459025382996,-0.4113076329231262,0.6201930046081543
1733851533998369800,5.011369873046875,0.32240161299705505,-0.39337581396102905,0.6151173710823059
1733851534008337700,5.021337646484375,0.290984570980072,-0.40410488843917847,0.6112874746322632
1733851534018306800,5.031306884765625,0.27240076661109924,-0.45685988664627075,0.6123324632644653
1733851534028274400,5.0412744140625,0.271415650844574,-0.5407670736312866,0.6192002296447754
1733851534038243600,5.05124365234375,0.2719200849533081,-0.6181096434593201,0.6171152591705322
1733851534048211500,5.06121142578125,0.28103527426719666,-0.6336273550987244,0.6015434861183167
1733851534058179600,5.0711796875,0.3017679750919342,-0.5745128989219666,0.5943412780761719
1733851534068148700,5.081148681640625,0.32144448161125183,-0.45873674750328064,0.5921324491500854
1733851534078116600,5.09111669921875,0.3249625265598297,-0.3378569781780243,0.5930558443069458
1733851534088084700,5.101084716796875,0.30358055233955383,-0.24782855808734894,0.5972481966018677
1733851534098054100,5.11105419921875,0.2615029811859131,-0.20822955667972565,0.6000181436538696
1733851534108022300,5.121022216796875,0.2136598378419876,-0.21365681290626526,0.5925822854042053
1733851534117990100,5.130990234375,0.1776546984910965,-0.24400977790355682,0.5824137926101685
1733851534127959000,5.140958984375,0.15499307215213776,-0.2867167890071869,0.5651783347129822
1733851534137927200,5.15092724609375,0.15636765956878662,-0.33581429719924927,0.5427854061126709
1733851534147896000,5.16089599609375,0.17824871838092804,-0.36801350116729736,0.5139755606651306
1733851534157864200,5.1708642578125,0.21606719493865967,-0.3633502125740051,0.48007291555404663
1733851534167832000,5.18083203125,0.25887590646743774,-0.32286617159843445,0.44089382886886597
1733851534177801200,5.19080126953125,0.2869500517845154,-0.27901527285575867,0.42182457447052
1733851534187769000,5.20076904296875,0.3037889301776886,-0.2604772746562958,0.42400890588760376
1733851534197737200,5.2107373046875,0.3054845631122589,-0.27794045209884644,0.43454596400260925
1733851534207706000,5.2207060546875,0.2966061234474182,-0.3183366060256958,0.4417692720890045
1733851534217674000,5.230674072265625,0.2988058924674988,-0.3760899603366852,0.4366285502910614
1733851534227643100,5.24064306640625,0.3056875169277191,-0.4319995641708374,0.42991045117378235
1733851534237611000,5.250611083984375,0.3107578754425049,-0.46144813299179077,0.42103350162506104
1733851534247579100,5.2605791015625,0.30637672543525696,-0.449554979801178,0.40623220801353455
1733851534257548000,5.270548095703125,0.2832249402999878,-0.3983680307865143,0.4125553369522095
1733851534267516200,5.28051611328125,0.2479923814535141,-0.3282073140144348,0.4342079162597656
1733851534277484300,5.290484375,0.21311774849891663,-0.26382672786712646,0.4539736211299896
1733851534287453200,5.300453125,0.17836350202560425,-0.23892073333263397,0.4676961302757263
1733851534297421300,5.31042138671875,0.1446891576051712,-0.2573266923427582,0.46865859627723694
1733851534307389000,5.320388916015625,0.1302545666694641,-0.30442309379577637,0.44968169927597046
1733851534317358000,5.330358154296875,0.14200828969478607,-0.3594111502170563,0.41547101736068726
1733851534327326000,5.340325927734375,0.1823408007621765,-0.3914676308631897,0.37795454263687134
1733851534337295000,5.350295166015625,0.22914224863052368,-0.3861740529537201,0.3302980661392212
1733851534347263000,5.360262939453125,0.2715373933315277,-0.3474942743778229,0.2870051860809326
1733851534357231000,5.370231201171875,0.29260486364364624,-0.30146121978759766,0.25948718190193176
1733851534367200300,5.3802001953125,0.2804478108882904,-0.27414223551750183,0.2429066151380539
1733851534377168100,5.390168212890625,0.2624296545982361,-0.28357020020484924,0.23527565598487854
1733851534387136300,5.40013623046875,0.2434319704771042,-0.329915851354599,0.23094215989112854
1733851534397105200,5.410105224609375,0.2383948713541031,-0.3883254826068878,0.2276770919561386
1733851534407073000,5.420072998046875,0.24997270107269287,-0.4328942894935608,0.23066088557243347
1733851534417042000,5.4300419921875,0.2658161222934723,-0.4417058527469635,0.23493875563144684
1733851534427010000,5.440010009765625,0.27855321764945984,-0.4004257917404175,0.24501562118530273
1733851534436978200,5.449978271484375,0.2880030572414398,-0.30928775668144226,0.27095648646354675
1733851534446947000,5.459947021484375,0.282758504152298,-0.19935353100299835,0.3193828761577606
1733851534456915200,5.469915283203125,0.2495199739933014,-0.1305706948041916,0.3715258240699768
1733851534466883000,5.479883056640625,0.1874707043170929,-0.13708211481571198,0.4020933210849762
1733851534476852200,5.489852294921875,0.12333020567893982,-0.17863313853740692,0.42248034477233887
1733851534486820000,5.499820068359375,0.08165439963340759,-0.20032379031181335,0.4392627775669098
1733851534496789200,5.509789306640625,0.05844401195645332,-0.21093344688415527,0.4466390311717987
1733851534506757000,5.519757080078125,0.059897828847169876,-0.22450411319732666,0.4211973249912262
1733851534516725000,5.52972509765625,0.07854621857404709,-0.24886658787727356,0.35303622484207153
1733851534526694100,5.539694091796875,0.11114970594644547,-0.2664514482021332,0.25799334049224854
1733851534536662000,5.549662109375,0.14571593701839447,-0.2592974901199341,0.17553196847438812
1733851534546630100,5.559630126953125,0.16498389840126038,-0.22209900617599487,0.12237155437469482
1733851534556599000,5.56959912109375,0.1704910546541214,-0.1679610162973404,0.10138551890850067
1733851534566567200,5.579567138671875,0.16452264785766602,-0.13009725511074066,0.10195756703615189
1733851534576535300,5.589535400390625,0.1542883962392807,-0.12283162772655487,0.11083242297172546
1733851534586504200,5.599504150390625,0.14232920110225677,-0.1463039368391037,0.11058661341667175
1733851534596472000,5.60947216796875,0.13560724258422852,-0.1847728043794632,0.09633616358041763
1733851534606441000,5.61944091796875,0.13206124305725098,-0.19970062375068665,0.06904488801956177
1733851534616409000,5.6294091796875,0.13494370877742767,-0.1703915148973465,0.045045409351587296
1733851534626377200,5.639377197265625,0.1397310197353363,-0.11173592507839203,0.03471021354198456
1733851534636346000,5.64934619140625,0.13689875602722168,-0.050641171634197235,0.04009747877717018
1733851534646314200,5.659314208984375,0.11684514582157135,-0.0017069221939891577,0.06241769716143608
1733851534656282000,5.6692822265625,0.08059006929397583,0.042508143931627274,0.09630545228719711
1733851534666251300,5.679251220703125,0.04130764305591583,0.06913762539625168,0.12215675413608551
1733851534676219100,5.68921923828125,-0.006076917052268982,0.07379116863012314,0.1342647820711136
1733851534686188300,5.699188232421875,-0.052850812673568726,0.06092224642634392,0.1281307339668274
1733851534696156000,5.709156005859375,-0.0825626403093338,0.042305976152420044,0.09878779202699661
1733851534706124000,5.7191240234375,-0.08176129311323166,0.040075309574604034,0.05070308595895767
1733851534716093200,5.72909326171875,-0.05652038753032684,0.06412413716316223,0.0060224104672670364
1733851534726061000,5.73906103515625,-0.02020765282213688,0.09849915653467178,-0.029722535982728004
1733851534736029200,5.749029296875,0.011216584593057632,0.10688392072916031,-0.054383259266614914
1733851534745998000,5.758998046875,0.02811114676296711,0.07893697172403336,-0.07481156289577484
1733851534755966200,5.76896630859375,0.0315086729824543,0.0324283130466938,-0.08200278878211975
1733851534765935000,5.77893505859375,0.02056734450161457,-0.013526126742362976,-0.07323139905929565
1733851534775903200,5.7889033203125,0.006810251157730818,-0.04499363526701927,-0.06237813085317612
1733851534785871000,5.79887109375,-0.011058760806918144,-0.055484093725681305,-0.061163999140262604
1733851534795840000,5.808840087890625,-0.0281919427216053,-0.04273591935634613,-0.061530228704214096
1733851534805808000,5.81880810546875,-0.04425479471683502,-0.007064474746584892,-0.0658125951886177
1733851534815776000,5.82877587890625,-0.048728104680776596,0.040119677782058716,-0.07184421271085739
1733851534825745200,5.8387451171875,-0.04869987815618515,0.07893631607294083,-0.07958894968032837
1733851534835713000,5.848713134765625,-0.04670516774058342,0.1090950146317482,-0.08911267668008804
1733851534845681200,5.85868115234375,-0.04664112254977226,0.13347317278385162,-0.09733764827251434
1733851534855650300,5.868650390625,-0.05120844393968582,0.13592731952667236,-0.09645890444517136
1733851534865618200,5.8786181640625,-0.05296479910612106,0.12230393290519714,-0.09242422133684158
1733851534875587300,5.88858740234375,-0.04878363758325577,0.10371289402246475,-0.08298081159591675
1733851534885555000,5.898554931640625,-0.03627237305045128,0.08624868094921112,-0.07365601509809494
1733851534895523000,5.908523193359375,-0.02620095945894718,0.06840969622135162,-0.0650845468044281
1733851534905492000,5.918491943359375,-0.023315956816077232,0.06084738299250603,-0.054519254714250565
1733851534915460000,5.928460205078125,-0.030712885782122612,0.07342853397130966,-0.04450385272502899
1733851534925428200,5.93842822265625,-0.05063173547387123,0.09984683245420456,-0.042839378118515015
1733851534935397000,5.948397216796875,-0.08554777503013611,0.12750335037708282,-0.056897468864917755
1733851534945365200,5.958365234375,-0.11953237652778625,0.16561904549598694,-0.0772235170006752
1733851534955334100,5.968334228515625,-0.14016708731651306,0.20898285508155823,-0.08661043643951416
1733851534965302300,5.97830224609375,-0.1371137648820877,0.24097034335136414,-0.08300264924764633
1733851534975270100,5.988270263671875,-0.12329981476068497,0.2456338107585907,-0.07586854696273804
1733851534985239000,5.998239013671875,-0.09989568591117859,0.23141679167747498,-0.07016032189130783
1733851534995207200,6.008207275390625,-0.0693388432264328,0.2107544094324112,-0.06681674718856812
1733851535005175000,6.018175048828125,-0.042525336146354675,0.19150908291339874,-0.0641128420829773
1733851535015144200,6.028144287109375,-0.02722334861755371,0.17064480483531952,-0.06165394186973572
1733851535025112000,6.038112060546875,-0.019536133855581284,0.14471015334129333,-0.06033514440059662
1733851535035081200,6.048081298828125,-0.01780494675040245,0.12716461718082428,-0.06127956882119179
1733851535045049000,6.058049072265625,-0.024372035637497902,0.12902270257472992,-0.055906377732753754
1733851535055017200,6.068017333984375,-0.03745614364743233,0.13562124967575073,-0.04942354932427406
1733851535064986000,6.077986083984375,-0.05667724087834358,0.12499044090509415,-0.04995245113968849
1733851535074954000,6.0879541015625,-0.07251239567995071,0.10305056720972061,-0.06122757866978645
1733851535084922000,6.097922119140625,-0.081147700548172,0.09190364181995392,-0.08493663370609283
1733851535094891000,6.10789111328125,-0.07140638679265976,0.0975918397307396,-0.11382810771465302
1733851535104859100,6.117859130859375,-0.05258369818329811,0.10558052361011505,-0.135330468416214
1733851535114827300,6.1278271484375,-0.02532651089131832,0.10982134193181992,-0.1545550376176834
1733851535124796200,6.137796142578125,0.004043627995997667,0.11009378731250763,-0.16104622185230255
1733851535134764300,6.147764404296875,0.023999227210879326,0.10158023238182068,-0.14742586016654968
1733851535144733200,6.157733154296875,0.030489882454276085,0.1058490127325058,-0.12612296640872955
1733851535154701300,6.167701416015625,0.02386833168566227,0.12305125594139099,-0.09959037601947784
1733851535164669200,6.177669189453125,0.016119597479701042,0.1513819545507431,-0.0724029615521431
1733851535174638300,6.187638427734375,0.015269647352397442,0.18019242584705353,-0.056632447987794876
1733851535184606000,6.19760595703125,0.018187671899795532,0.188900426030159,-0.05715469270944595
1733851535194574000,6.207573974609375,0.030362315475940704,0.1724650114774704,-0.06445109844207764
1733851535204543200,6.217543212890625,0.05442770570516586,0.15128275752067566,-0.07014892995357513
1733851535214511000,6.227510986328125,0.07637415081262589,0.13909170031547546,-0.06502030789852142
1733851535224480300,6.237480224609375,0.08632398396730423,0.13439308106899261,-0.05496688187122345
1733851535234448100,6.2474482421875,0.08267359435558319,0.12681175768375397,-0.04830743372440338
1733851535244416300,6.257416259765625,0.07880641520023346,0.11506135761737823,-0.046167850494384766
1733851535254385200,6.26738525390625,0.07493150979280472,0.10074254870414734,-0.04408634826540947
1733851535264353300,6.277353271484375,0.06879878789186478,0.08647119998931885,-0.040817052125930786
1733851535274321200,6.287321044921875,0.06292225420475006,0.056057192385196686,-0.039195794612169266
1733851535284290000,6.2972900390625,0.05739699676632881,0.017067983746528625,-0.04583798348903656
1733851535294258200,6.307258056640625,0.055996574461460114,0.0008424937259405851,-0.05430733039975166
1733851535304227000,6.31722705078125,0.06507129222154617,0.01934800110757351,-0.056017614901065826
1733851535314195200,6.3271953125,0.07305611670017242,0.037762515246868134,-0.05469052493572235
1733851535324163000,6.3371630859375,0.06828106939792633,0.04176684468984604,-0.05912628397345543
1733851535334132200,6.34713232421875,0.05984204635024071,0.04133285954594612,-0.07120979577302933
1733851535344100400,6.357100341796875,0.051231514662504196,0.03902523219585419,-0.08405821025371552
1733851535354068200,6.367068115234375,0.042886629700660706,0.02838842384517193,-0.08321113139390945
1733851535364037400,6.377037353515625,0.03552911430597305,0.006467146333307028,-0.0699206218123436
1733851535374005000,6.3870048828125,0.03500327467918396,-0.006621253211051226,-0.05144122615456581
1733851535383974100,6.39697412109375,0.0483584925532341,-0.0039873868227005005,-0.03442096337676048
1733851535393942000,6.40694189453125,0.0733444020152092,0.0020689761731773615,-0.02061016485095024
1733851535403910100,6.41691015625,0.09358203411102295,-0.0004887236282229424,-0.0124217439442873
1733851535413879000,6.426879150390625,0.10083620995283127,-0.009937731549143791,-0.007209454663097858
1733851535423847200,6.43684716796875,0.09974990785121918,-0.01860072650015354,-0.012205013073980808
1733851535433815300,6.446815185546875,0.09268388152122498,-0.029469843953847885,-0.024067390710115433
1733851535443784200,6.4567841796875,0.08422355353832245,-0.025787757709622383,-0.03144088760018349
1733851535453752300,6.46675244140625,0.0803716853260994,-0.012708960101008415,-0.026853173971176147
1733851535463721200,6.47672119140625,0.09029329568147659,-0.0049951146356761456,-0.012922709807753563
1733851535473689000,6.486689208984375,0.10644563287496567,-0.006460007280111313,0.000879439408890903
1733851535483657200,6.4966572265625,0.13050809502601624,-0.009882967919111252,0.0031473874114453793
1733851535493626000,6.506626220703125,0.1485946774482727,-0.012465770356357098,-0.005745856091380119
1733851535503594200,6.51659423828125,0.1452002078294754,-0.016018960624933243,-0.017645392566919327
1733851535513562000,6.52656201171875,0.1253194510936737,-0.00995249580591917,-0.025278158485889435
1733851535523531300,6.53653125,0.0970822274684906,-0.00007030367851257324,-0.030764274299144745
1733851535533499100,6.5464990234375,0.07690039277076721,-0.010276097804307938,-0.030964290723204613
1733851535543468300,6.55646826171875,0.07215144485235214,-0.057974908500909805,-0.021704211831092834
1733851535553436200,6.566436279296875,0.08969727903604507,-0.12326931208372116,-0.0006277281790971756
1733851535563404000,6.576404052734375,0.13693296909332275,-0.18824486434459686,0.031928882002830505
1733851535573373200,6.586373291015625,0.20300546288490295,-0.24223442375659943,0.06856460124254227
1733851535583341000,6.596341064453125,0.2683658003807068,-0.24853652715682983,0.0879870355129242
1733851535593309200,6.60630908203125,0.31490403413772583,-0.22077970206737518,0.0847911462187767
1733851535603278000,6.616278076171875,0.3124355375766754,-0.1689319610595703,0.051878467202186584
1733851535613246200,6.62624609375,0.25229164958000183,-0.12617561221122742,-0.010171283036470413
1733851535623214300,6.63621435546875,0.1388801485300064,-0.10974577814340591,-0.09157638996839523
1733851535633183200,6.646183349609375,0.020468806847929955,-0.12029710412025452,-0.17025437951087952
1733851535643151000,6.656151123046875,-0.035800326615571976,-0.12510357797145844,-0.21528710424900055
1733851535653120300,6.666120361328125,-0.033381376415491104,-0.09210272878408432,-0.22520723938941956
1733851535663088000,6.676088134765625,-0.004811249673366547,-0.03624718636274338,-0.21586327254772186
1733851535673056000,6.686055908203125,0.03010079450905323,0.00007177493534982204,-0.21819373965263367
1733851535683025200,6.696025146484375,0.06137695908546448,0.007777099497616291,-0.234122633934021
1733851535692993300,6.7059931640625,0.08319197595119476,0.003779750782996416,-0.26858416199684143
1733851535702961200,6.715961181640625,0.08776728808879852,0.01444118283689022,-0.3072703182697296
1733851535712930300,6.725930419921875,0.08152124285697937,0.04899102821946144,-0.3361337184906006
1733851535722898200,6.735898193359375,0.06370629370212555,0.0993170514702797,-0.35346317291259766
1733851535732867300,6.745867431640625,0.03399686515331268,0.13731566071510315,-0.3643887937068939
1733851535742835000,6.7558349609375,0.0005832489696331322,0.12825186550617218,-0.36495551466941833
1733851535752803000,6.765802978515625,-0.01949179358780384,0.06984101235866547,-0.3521602153778076
1733851535762772000,6.77577197265625,-0.020774371922016144,0.01296814251691103,-0.3414737284183502
1733851535772740000,6.785739990234375,0.0055577680468559265,-0.0008112442446872592,-0.3351224660873413
1733851535782708200,6.795708251953125,0.0536736324429512,0.04371414706110954,-0.3248426616191864
1733851535792677000,6.805677001953125,0.10106684267520905,0.1291155219078064,-0.315333753824234
1733851535802645200,6.815645263671875,0.1229468435049057,0.2260761559009552,-0.3169691860675812
1733851535812614100,6.8256142578125,0.12054813653230667,0.3019053339958191,-0.3372248411178589
1733851535822582300,6.835582275390625,0.08724184334278107,0.3407863974571228,-0.3636913299560547
1733851535832550100,6.845550048828125,0.03862916678190231,0.3549974262714386,-0.4001302421092987
1733851535842519000,6.85551904296875,-0.009109591133892536,0.3602297306060791,-0.442809522151947
1733851535852487200,6.865487060546875,-0.03747958689928055,0.3531340956687927,-0.47874242067337036
1733851535862455000,6.875455078125,-0.03445716202259064,0.3358222246170044,-0.49451178312301636
1733851535872424200,6.885424072265625,-0.001043276279233396,0.3171592950820923,-0.49327796697616577
1733851535882392000,6.89539208984375,0.050825513899326324,0.30132147669792175,-0.4903724789619446
1733851535892361200,6.905361328125,0.1083575189113617,0.28560972213745117,-0.4869472086429596
1733851535902329000,6.9153291015625,0.14009760320186615,0.2578555941581726,-0.47399917244911194
1733851535912297200,6.925297119140625,0.14429861307144165,0.22563542425632477,-0.4543681740760803
1733851535922266400,6.935266357421875,0.12641175091266632,0.19574250280857086,-0.43974024057388306
1733851535932234000,6.94523388671875,0.09970317035913467,0.18516363203525543,-0.43134915828704834
1733851535942202000,6.9552021484375,0.06488154083490372,0.19575820863246918,-0.4306711256504059
1733851535952171000,6.9651708984375,0.02716199681162834,0.2169099897146225,-0.4344700276851654
1733851535962139100,6.97513916015625,-0.0046361470595002174,0.2433471828699112,-0.4420645534992218
1733851535972108000,6.98510791015625,-0.023929018527269363,0.27763038873672485,-0.4628351628780365
1733851535982076200,6.995076171875,-0.03022712841629982,0.32005828619003296,-0.49015894532203674
1733851535992044300,7.005044189453125,-0.03118746355175972,0.3615296185016632,-0.521347165107727
1733851536002013200,7.01501318359375,-0.03570498526096344,0.39962586760520935,-0.5476536154747009
1733851536011981300,7.024981201171875,-0.04777616262435913,0.40059447288513184,-0.5522202849388123
1733851536021949000,7.034948974609375,-0.06442544609308243,0.3561747968196869,-0.5321890115737915
1733851536031918000,7.04491796875,-0.07644189149141312,0.28983137011528015,-0.5030640959739685
1733851536041886200,7.05488623046875,-0.08657042682170868,0.23019465804100037,-0.480376660823822
1733851536051854000,7.06485400390625,-0.09017635136842728,0.20247547328472137,-0.4659111201763153
1733851536061823200,7.0748232421875,-0.08869057148694992,0.2188994586467743,-0.4590039551258087
1733851536071791000,7.084791015625,-0.07799824327230453,0.2762938439846039,-0.46487513184547424
1733851536081760300,7.09476025390625,-0.058934807777404785,0.34350937604904175,-0.46420612931251526
1733851536091728100,7.10472802734375,-0.0423801988363266,0.407169371843338,-0.4655616581439972
1733851536101696000,7.114696044921875,-0.03094085492193699,0.4554857611656189,-0.4734123945236206
1733851536111665000,7.124664794921875,-0.022239509969949722,0.4787255823612213,-0.4798881709575653
1733851536121633000,7.134633056640625,-0.016188008710741997,0.4637570083141327,-0.4791147708892822
1733851536131601200,7.14460107421875,-0.017135825008153915,0.40627285838127136,-0.47145700454711914
1733851536141570000,7.154570068359375,-0.02733280323445797,0.32657375931739807,-0.46300095319747925
1733851536151538200,7.1645380859375,-0.04064927250146866,0.25090065598487854,-0.4644147753715515
1733851536161507000,7.174507080078125,-0.04801344498991966,0.20758914947509766,-0.47534865140914917
1733851536171475200,7.18447509765625,-0.050021737813949585,0.208229660987854,-0.4948325753211975
1733851536181443300,7.194443359375,-0.053756553679704666,0.23340240120887756,-0.5010057687759399
1733851536191412200,7.204412109375,-0.06543358415365219,0.2678453326225281,-0.4860020577907562
1733851536201380000,7.214380126953125,-0.08358035981655121,0.30460840463638306,-0.45216765999794006
1733851536211348000,7.224347900390625,-0.10203833878040314,0.3285098671913147,-0.4164779484272003
1733851536221317000,7.234317138671875,-0.11619223654270172,0.32909440994262695,-0.3854462504386902
1733851536231285000,7.244284912109375,-0.12590278685092926,0.29393601417541504,-0.358884334564209
1733851536241254100,7.254254150390625,-0.13891765475273132,0.23351554572582245,-0.35315853357315063
1733851536251222000,7.264221923828125,-0.1513907015323639,0.1777961701154709,-0.37576234340667725
1733851536261190100,7.274190185546875,-0.1610902100801468,0.1373147815465927,-0.4176032841205597
1733851536271159300,7.2841591796875,-0.16316533088684082,0.1111796423792839,-0.46542593836784363
1733851536281127200,7.294127197265625,-0.16514219343662262,0.08894197642803192,-0.500323474407196
1733851536291095000,7.304094970703125,-0.1647907942533493,0.0548468641936779,-0.5039079785346985
1733851536301064000,7.31406396484375,-0.1744207888841629,0.011587806046009064,-0.47261178493499756
1733851536311032000,7.324031982421875,-0.19125422835350037,-0.02623707614839077,-0.4270317554473877
1733851536321001000,7.3340009765625,-0.20931418240070343,-0.04175345227122307,-0.39292705059051514
1733851536330969000,7.343968994140625,-0.22669437527656555,-0.029435908421874046,-0.3890053629875183
1733851536340937200,7.353937255859375,-0.231235072016716,0.012363470159471035,-0.42001229524612427
1733851536350906000,7.363906005859375,-0.23394683003425598,0.052561935037374496,-0.4662487804889679
1733851536360874200,7.373874267578125,-0.23606351017951965,0.04650857299566269,-0.5052909851074219
1733851536370842000,7.383842041015625,-0.24187226593494415,-0.003879011608660221,-0.528037965297699
1733851536380811300,7.393811279296875,-0.2541566491127014,-0.0730237290263176,-0.5366743206977844
1733851536390779100,7.403779052734375,-0.26312801241874695,-0.12068137526512146,-0.5352684259414673
1733851536400748000,7.413748046875,-0.2691744565963745,-0.14015734195709229,-0.5196367502212524
1733851536410716200,7.423716064453125,-0.2785331904888153,-0.1704445630311966,-0.48058953881263733
1733851536420684000,7.43368408203125,-0.2951244115829468,-0.2142852544784546,-0.4256645143032074
1733851536430653200,7.443653076171875,-0.29954686760902405,-0.22390303015708923,-0.38091784715652466
1733851536440621000,7.45362109375,-0.2784666121006012,-0.16288840770721436,-0.37355926632881165
1733851536450589200,7.463589111328125,-0.24147719144821167,-0.06651894748210907,-0.3953832983970642
1733851536460558000,7.47355810546875,-0.20870326459407806,-0.0024134682025760412,-0.4193352460861206
1733851536470526200,7.483526123046875,-0.19682209193706512,0.005724504590034485,-0.4338897168636322
1733851536480495000,7.4934951171875,-0.20950061082839966,-0.0382208488881588,-0.44005653262138367
1733851536490463000,7.503462890625,-0.23728270828723907,-0.12235204130411148,-0.440544068813324
1733851536500431000,7.51343115234375,-0.2621670067310333,-0.2009941190481186,-0.4387759864330292
1733851536510400000,7.52339990234375,-0.27030789852142334,-0.24566338956356049,-0.4365313947200775
1733851536520368000,7.5333681640625,-0.2677384912967682,-0.24642665684223175,-0.4285118281841278
1733851536530336300,7.543336181640625,-0.2551579773426056,-0.19694627821445465,-0.41819465160369873
1733851536540305200,7.55330517578125,-0.2317485213279724,-0.1076614111661911,-0.40487536787986755
1733851536550273300,7.563273193359375,-0.203738734126091,-0.009113960899412632,-0.3805582821369171
1733851536560242200,7.5732421875,-0.18439991772174835,0.06246008723974228,-0.34881100058555603
1733851536570210300,7.583210205078125,-0.17842458188533783,0.10146825760602951,-0.32155656814575195
1733851536580178000,7.593177978515625,-0.17749673128128052,0.11846668273210526,-0.3071925640106201
1733851536590147000,7.60314697265625,-0.17557832598686218,0.1080293282866478,-0.30369165539741516
1733851536600115000,7.613114990234375,-0.17561320960521698,0.07333020120859146,-0.30994847416877747
1733851536610083000,7.6230830078125,-0.17488457262516022,0.011752591468393803,-0.31923893094062805
1733851536620052200,7.63305224609375,-0.16261059045791626,-0.054814983159303665,-0.3273325264453888
1733851536630020000,7.64302001953125,-0.14389871060848236,-0.1051957979798317,-0.3366287648677826
1733851536639989200,7.6529892578125,-0.1287921965122223,-0.13356538116931915,-0.34357401728630066
1733851536649957000,7.66295703125,-0.11865659803152084,-0.13319489359855652,-0.33842039108276367
1733851536659925200,7.67292529296875,-0.11068255454301834,-0.11328216642141342,-0.3265048861503601
1733851536669894100,7.68289404296875,-0.11116591840982437,-0.08496610075235367,-0.306413471698761
1733851536679862000,7.692862060546875,-0.1128290668129921,-0.06799484044313431,-0.2836010754108429
1733851536689830100,7.702830078125,-0.10821247100830078,-0.05769626796245575,-0.2631090581417084
1733851536699799000,7.712799072265625,-0.09480106830596924,-0.03926772624254227,-0.25263696908950806
1733851536709767200,7.72276708984375,-0.07441895455121994,-0.01699232868850231,-0.24958783388137817
1733851536719736000,7.732736083984375,-0.05690601095557213,0.0023179855197668076,-0.2528645992279053
1733851536729704200,7.7427041015625,-0.048501208424568176,-0.02282206155359745,-0.25455066561698914
1733851536739672000,7.752672119140625,-0.05261232703924179,-0.08938883990049362,-0.2583875060081482
1733851536749641200,7.76264111328125,-0.054845523089170456,-0.1494702696800232,-0.2689504027366638
1733851536759609300,7.772609375,-0.05277438089251518,-0.16740478575229645,-0.28986498713493347
1733851536769577000,7.782576904296875,-0.045717936009168625,-0.15931928157806396,-0.3073885142803192
1733851536779546000,7.792546142578125,-0.0444747731089592,-0.14127422869205475,-0.31463176012039185
1733851536789514000,7.802513916015625,-0.041199084371328354,-0.11636102199554443,-0.3021208643913269
1733851536799483100,7.812483154296875,-0.0360591858625412,-0.07009738683700562,-0.2766069769859314
1733851536809451000,7.822450927734375,-0.028150126338005066,-0.010010164231061935,-0.24063022434711456
1733851536819419100,7.832419189453125,-0.020391274243593216,0.0406532809138298,-0.20838652551174164
1733851536829388000,7.842387939453125,-0.019302042201161385,0.07668305933475494,-0.18833407759666443
1733851536839356200,7.852356201171875,-0.022366542369127274,0.08762252330780029,-0.1781861037015915
1733851536849324300,7.86232421875,-0.021090352907776833,0.06473124772310257,-0.18117564916610718
1733851536859293200,7.872293212890625,-0.014379454776644707,0.016011107712984085,-0.1941859871149063
1733851536869261000,7.882260986328125,-0.008648465387523174,-0.027896340936422348,-0.2138424813747406
1733851536879230000,7.89222998046875,-0.002182043856009841,-0.05732853338122368,-0.22606106102466583
1733851536889198000,7.902197998046875,0.0050104884430766106,-0.07142537832260132,-0.22653040289878845
1733851536899166200,7.912166259765625,0.0055945198982954025,-0.055769987404346466,-0.2099466323852539
1733851536909135000,7.922135009765625,0.011983043514192104,-0.016684699803590775,-0.18503932654857635
1733851536919103200,7.932103271484375,0.02017812244594097,0.028487039729952812,-0.16186369955539703
1733851536929071000,7.942071044921875,0.03521059826016426,0.07144710421562195,-0.140278622508049
1733851536939040300,7.952040283203125,0.03603271767497063,0.07947093993425369,-0.12536278367042542
1733851536949008100,7.962008056640625,0.03275902941823006,0.05312309414148331,-0.11644816398620605
1733851536958977300,7.971977294921875,0.042205795645713806,0.015170385129749775,-0.11884234845638275
1733851536968945200,7.981945068359375,0.054615989327430725,-0.0175141803920269,-0.12845656275749207
1733851536978913000,7.9919130859375,0.06108400970697403,-0.08075040578842163,-0.15348680317401886
1733851536988882200,8.001882080078126,0.06107361987233162,-0.1876693218946457,-0.19109191000461578
1733851536998850000,8.01185009765625,0.05595289543271065,-0.2678917348384857,-0.23196132481098175
1733851537008818200,8.021818115234375,0.048449840396642685,-0.2847953736782074,-0.2553635835647583
1733851537018787000,8.031787109375,0.04189766198396683,-0.26004233956336975,-0.25623416900634766
1733851537028755200,8.041755126953126,0.035249482840299606,-0.21674205362796783,-0.24096019566059113
1733851537038724000,8.05172412109375,0.01775704324245453,-0.13857029378414154,-0.21710360050201416
1733851537048692200,8.061692138671875,-0.003281929763033986,-0.04519638419151306,-0.18440251052379608
1733851537058660000,8.07166015625,-0.020599933341145515,0.03494878485798836,-0.13871997594833374
1733851537068629000,8.08162890625,-0.03132834658026695,0.0912250354886055,-0.0914882943034172
1733851537078597000,8.09159716796875,-0.042055290192365646,0.1281777322292328,-0.05568981543183327
1733851537088565000,8.10156494140625,-0.05955372378230095,0.13071750104427338,-0.04672326147556305
1733851537098533400,8.111533447265625,-0.07859425991773605,0.0864938497543335,-0.04347154125571251
1733851537108501500,8.12150146484375,-0.08531101793050766,0.004423006437718868,-0.04783313348889351
1733851537118470400,8.131470458984374,-0.07464585453271866,-0.06840752810239792,-0.061997152864933014
1733851537128438500,8.1414384765625,-0.053307678550481796,-0.10490104556083679,-0.0860057845711708
1733851537138406400,8.151406494140625,-0.03144685551524162,-0.11196854710578918,-0.10910870879888535
1733851537148375600,8.16137548828125,-0.009926649741828442,-0.09775401651859283,-0.11600594222545624
1733851537158343700,8.17134375,0.005643255077302456,-0.07619519531726837,-0.10508565604686737
1733851537168311600,8.1813115234375,0.015041151084005833,-0.05764985829591751,-0.08141621202230453
1733851537178280700,8.19128076171875,0.019434034824371338,-0.043473318219184875,-0.053241029381752014
1733851537188248300,8.201248291015625,0.02059144340455532,-0.03366851434111595,-0.032488662749528885
1733851537198217500,8.211217529296874,0.01630987972021103,-0.037478968501091,-0.027630258351564407
1733851537208185300,8.221185302734375,0.007004530169069767,-0.06745395064353943,-0.03982743248343468
1733851537218153500,8.231153564453125,-0.00027415540535002947,-0.10166358202695847,-0.06261051446199417
1733851537228122400,8.241122314453126,-0.007776416838169098,-0.13101176917552948,-0.09355956315994263
1733851537238090500,8.251090576171874,-0.019327078014612198,-0.14401119947433472,-0.1216183602809906
1733851537248058600,8.26105859375,-0.031917303800582886,-0.1376562863588333,-0.13871395587921143
1733851537258027500,8.271027587890625,-0.0427720807492733,-0.11756352335214615,-0.1413816511631012
1733851537267995600,8.28099560546875,-0.05066356062889099,-0.08957790583372116,-0.13021300733089447
1733851537277964500,8.290964599609374,-0.05414244905114174,-0.05667508766055107,-0.1146114245057106
1733851537287932400,8.300932373046875,-0.05192829295992851,-0.0230562761425972,-0.09520968049764633
1733851537297900500,8.310900634765625,-0.04534842073917389,-0.004117473028600216,-0.07882778346538544
1733851537307869400,8.320869384765626,-0.04285077750682831,-0.02093399316072464,-0.06434322893619537
1733851537317837600,8.330837646484374,-0.03743017837405205,-0.05000532418489456,-0.05795083940029144
1733851537327805400,8.340805419921875,-0.029487701132893562,-0.07757917791604996,-0.06957675516605377
1733851537337774600,8.350774658203125,-0.024167770519852638,-0.10355991125106812,-0.09225943684577942
1733851537347742500,8.360742431640626,-0.02276974357664585,-0.12132352590560913,-0.11692579835653305
1733851537357711600,8.370711669921874,-0.024343404918909073,-0.11453406512737274,-0.13464754819869995
1733851537367679500,8.380679443359375,-0.028247999027371407,-0.09991223365068436,-0.1426382213830948
1733851537377647400,8.3906474609375,-0.029918599873781204,-0.0781688541173935,-0.1363997608423233
1733851537387616500,8.400616455078126,-0.025844762101769447,-0.049954261630773544,-0.1250309944152832
1733851537397584400,8.41058447265625,-0.02209489978849888,-0.026344846934080124,-0.10868587344884872
1733851537407552500,8.420552490234375,-0.01859191060066223,-0.027144646272063255,-0.0968666523694992
1733851537417521400,8.430521484375,-0.019262760877609253,-0.039793599396944046,-0.09419389069080353
1733851537427489500,8.440489501953126,-0.01864117942750454,-0.0555293932557106,-0.09595943987369537
1733851537437458400,8.45045849609375,-0.016338609158992767,-0.07221861928701401,-0.09827612340450287
1733851537447426600,8.460426513671875,-0.011944393627345562,-0.07574452459812164,-0.09598279744386673
1733851537457394700,8.470394775390625,-0.004623363725841045,-0.07401400059461594,-0.09282854944467545
1733851537467363600,8.480363525390626,-0.00040451850509271026,-0.06274588406085968,-0.09277129918336868
1733851537477331500,8.49033154296875,-0.0011102561838924885,-0.049801055341959,-0.09640145301818848
1733851537487299300,8.50029931640625,-0.008455652743577957,-0.055434513837099075,-0.09901057183742523
1733851537497268500,8.5102685546875,-0.015838202089071274,-0.08093534409999847,-0.10044921189546585
1733851537507236600,8.520236572265626,-0.018049558624625206,-0.10785248875617981,-0.10224644839763641
1733851537517205500,8.53020556640625,-0.013973324559628963,-0.12223249673843384,-0.09700055420398712
1733851537527173600,8.540173583984375,-0.0018266454571858048,-0.12134655565023422,-0.09350322186946869
1733851537537141500,8.5501416015625,0.014073491096496582,-0.09491948038339615,-0.08897185325622559
1733851537547110700,8.560110595703126,0.028786389157176018,-0.05952587351202965,-0.08432957530021667
1733851537557078500,8.57007861328125,0.03879108652472496,-0.03101913072168827,-0.06877458840608597
1733851537567046400,8.58004638671875,0.03775098919868469,-0.015357684344053268,-0.04900931939482689
1733851537577015300,8.590015380859375,0.03130853921175003,-0.00355775048956275,-0.0399060994386673
1733851537586983400,8.5999833984375,0.019004467874765396,-0.004609092604368925,-0.04487220570445061
1733851537596952300,8.609952392578125,0.00720346812158823,-0.014947484247386456,-0.055029504001140594
1733851537606920400,8.61992041015625,0.0026931383181363344,-0.029472535476088524,-0.06489499658346176
1733851537616888600,8.629888671875,0.0010539627401158214,-0.0530518963932991,-0.07546747475862503
1733851537626857500,8.639857421875,0.00424775667488575,-0.05619705095887184,-0.08355111628770828
1733851537636825600,8.64982568359375,0.013269747607409954,-0.03433622792363167,-0.08218544721603394
1733851537646793700,8.659793701171875,0.020195700228214264,-0.007944130338728428,-0.07010602205991745
1733851537656762600,8.6697626953125,0.018571704626083374,0.020573530346155167,-0.043800123035907745
1733851537666730500,8.67973046875,0.013487329706549644,0.042223215103149414,-0.01145615428686142
1733851537676699400,8.689699462890625,0.003829643130302429,0.04918338730931282,0.011684319004416466
1733851537686667500,8.69966748046875,0.0011046964209526777,0.04908100515604019,0.012823300436139107
1733851537696635400,8.709635498046875,0.0008423750987276435,0.055234503000974655,0.0022532138973474503
1733851537706604500,8.7196044921875,-0.0023029514122754335,0.06674361228942871,-0.004409629851579666
1733851537716572400,8.729572509765624,-0.014022191986441612,0.054499462246894836,-0.005413642153143883
1733851537726540500,8.73954052734375,-0.023828350007534027,0.03361087292432785,-0.009038510732352734
1733851537736509400,8.749509521484375,-0.03570844605565071,0.034835394471883774,-0.014358174055814743
1733851537746477600,8.7594775390625,-0.04551154375076294,0.047870978713035583,-0.018523916602134705
1733851537756446700,8.76944677734375,-0.05518653988838196,0.06710512936115265,-0.017521502450108528
1733851537766414300,8.779414306640625,-0.05645473673939705,0.0990084633231163,-0.007173790596425533
1733851537776382500,8.789382568359375,-0.04976487532258034,0.12689495086669922,0.004879143089056015
1733851537786351400,8.799351318359374,-0.04162066429853439,0.12776713073253632,0.017579225823283195
1733851537796319500,8.809319580078125,-0.028862789273262024,0.12648296356201172,0.02464459277689457
1733851537806287600,8.81928759765625,-0.01897207461297512,0.128549262881279,0.026350054889917374
1733851537816256500,8.829256591796875,-0.011357033625245094,0.12211692333221436,0.02531515061855316
1733851537826224600,8.839224609375,-0.015216885134577751,0.11100880801677704,0.02252824231982231
1733851537836193500,8.849193603515625,-0.0318179652094841,0.08650000393390656,0.019907426089048386
1733851537846161700,8.85916162109375,-0.045890774577856064,0.052383534610271454,0.01277480460703373
1733851537856129300,8.86912939453125,-0.052764926105737686,0.026267245411872864,-0.003875544760376215
1733851537866098400,8.879098388671874,-0.05265866592526436,0.006478056311607361,-0.016124915331602097
1733851537876066600,8.889066650390625,-0.04832303896546364,0.010527126491069794,-0.015052726492285728
1733851537886034400,8.899034423828125,-0.03897401690483093,0.021957267075777054,-0.004631020128726959
1733851537896003600,8.909003662109376,-0.030847910791635513,0.01333501748740673,0.01058601588010788
1733851537905971500,8.918971435546876,-0.020751332864165306,-0.0060895150527358055,0.026673894375562668
1733851537915940600,8.928940673828125,-0.007674680091440678,-0.02648959495127201,0.03719524294137955
1733851537925908500,8.938908447265625,0.009646119549870491,-0.018383948132395744,0.04286153241991997
1733851537935876600,8.948876708984375,0.02570551261305809,0.057498302310705185,0.05064408853650093
1733851537945845500,8.958845458984374,0.0306446123868227,0.1852029412984848,0.05734883248806
1733851537955813400,8.9688134765625,0.015888303518295288,0.33167973160743713,0.06132280454039574
1733851537965781500,8.978781494140625,-0.012805393896996975,0.4113934636116028,0.06720706075429916
1733851537975750400,8.98875048828125,-0.047487739473581314,0.3888319730758667,0.07131924480199814
1733851537985718500,8.998718505859374,-0.07149934023618698,0.334197074174881,0.0597178116440773
1733851537995687400,9.0086875,-0.07590367645025253,0.28550222516059875,0.034340549260377884
1733851538005655600,9.018655517578125,-0.0607132650911808,0.22476078569889069,-0.0026070158928632736
1733851538015623700,9.028623779296876,-0.040883634239435196,0.14901381731033325,-0.042752835899591446
1733851538025592600,9.038592529296874,-0.021065186709165573,0.08591239899396896,-0.07309180498123169
1733851538035560700,9.048560791015625,-0.007922753691673279,0.050540290772914886,-0.08260782063007355
1733851538045528300,9.0585283203125,-0.0022415658459067345,0.04828586429357529,-0.06824422627687454
1733851538055497500,9.06849755859375,0.0017539747059345245,0.07943180203437805,-0.043727435171604156
1733851538065465300,9.07846533203125,0.0027145766653120518,0.11570490896701813,-0.01864815317094326
1733851538075434500,9.0884345703125,0.0018208199180662632,0.13683976233005524,0.001147921779192984
1733851538085402400,9.09840234375,-0.0025598136708140373,0.14638853073120117,0.011355048045516014
1733851538095371000,9.10837109375,-0.008984156884253025,0.15229035913944244,0.011190198361873627
1733851538105340000,9.11833984375,-0.011347579769790173,0.13682568073272705,0.010484179481863976
1733851538115308000,9.12830810546875,-0.014024589210748672,0.10396359860897064,0.006688907742500305
1733851538125276200,9.138276123046875,-0.014644705690443516,0.06907234340906143,-0.0010576017666608095
1733851538135245000,9.1482451171875,-0.012278753332793713,0.039851609617471695,-0.015152115374803543
1733851538145213000,9.158212890625,-0.006358679383993149,0.019184177741408348,-0.033904749900102615
1733851538155181800,9.168181884765625,-0.007442852482199669,0.01101706176996231,-0.045278314501047134
1733851538165150000,9.17814990234375,-0.009508799761533737,-0.0002743881195783615,-0.043601278215646744
1733851538175118000,9.1881181640625,-0.012100853957235813,-0.014107911847531796,-0.029597846791148186
1733851538185087000,9.1980869140625,-0.02048235386610031,-0.04004032909870148,-0.014048928394913673
1733851538195055000,9.20805517578125,-0.02751230075955391,-0.07489524781703949,-0.0017166282050311565
1733851538205023000,9.21802294921875,-0.028634291142225266,-0.09103474020957947,0.0046142651699483395
1733851538214992100,9.2279921875,-0.02046903967857361,-0.07998448610305786,0.0030736266635358334
1733851538224960000,9.2379599609375,-0.0048645129427313805,-0.046305492520332336,0.004371199756860733
1733851538234929200,9.24792919921875,0.009499778971076012,-0.04873429238796234,0.011733241379261017
1733851538244896800,9.257896728515625,0.019711671397089958,-0.08263583481311798,0.019368629902601242
1733851538254865000,9.267864990234376,0.022145800292491913,-0.08616799116134644,0.007738606072962284
1733851538264834000,9.277833984375,0.020376261323690414,-0.05994819104671478,-0.015141183510422707
1733851538274802000,9.287802001953125,0.01554129272699356,-0.03151362016797066,-0.031740933656692505
1733851538284770000,9.29777001953125,0.00022931484272703528,-0.006271595135331154,-0.034406878054142
1733851538294739000,9.307739013671876,-0.013456669636070728,0.018042532727122307,-0.021980566903948784
1733851538304707000,9.31770703125,-0.02990075759589672,0.047763969749212265,-0.003674250328913331
1733851538314676000,9.327676025390625,-0.04018668457865715,0.08587753772735596,0.01039043627679348
1733851538324644000,9.33764404296875,-0.043759316205978394,0.1140771210193634,0.023389140143990517
1733851538334612000,9.347612060546876,-0.040275901556015015,0.12384214252233505,0.03424737975001335
1733851538344580900,9.357580810546875,-0.03971397504210472,0.11293882876634598,0.0507083535194397
1733851538354549000,9.367549072265625,-0.03761327266693115,0.08507097512483597,0.06444813311100006
1733851538364516900,9.377516845703125,-0.03324289247393608,0.054511118680238724,0.07619236409664154
1733851538374486000,9.387486083984374,-0.022790784016251564,0.04469550773501396,0.08130030333995819
1733851538384454000,9.397453857421874,-0.010868343524634838,0.05444721877574921,0.080465167760849
1733851538394423000,9.407423095703125,-0.004422960802912712,0.07170183956623077,0.08164840936660767
1733851538404391200,9.41739111328125,-0.002544766291975975,0.06843475252389908,0.08316751569509506
1733851538414359000,9.427359130859376,-0.004152516834437847,0.04432303085923195,0.08168946206569672
1733851538424328200,9.437328125,-0.008670303970575333,0.013149171136319637,0.07473931461572647
1733851538434295800,9.4472958984375,-0.006726462859660387,-0.025470394641160965,0.07029768824577332
1733851538444264000,9.457263916015625,-0.0016203832346946,-0.08250526338815689,0.07522501051425934
1733851538454232800,9.46723291015625,0.005403171293437481,-0.14194755256175995,0.08426910638809204
1733851538464201000,9.477200927734375,0.007432363927364349,-0.18101349472999573,0.08620918542146683
1733851538474169900,9.487169921875,0.005358560476452112,-0.18446043133735657,0.07647453248500824
1733851538484138000,9.497137939453125,0.0015419870615005493,-0.15727201104164124,0.06751392781734467
1733851538494106000,9.507106201171876,0.0020658308640122414,-0.11907029896974564,0.06125469505786896
1733851538504075000,9.517074951171875,0.004813279956579208,-0.09444238245487213,0.06360777467489243
1733851538514043100,9.527043212890625,0.00465855048969388,-0.09607596695423126,0.06643978506326675
1733851538524011000,9.537010986328125,0.005380667746067047,-0.11666620522737503,0.06537169963121414
1733851538533980000,9.54697998046875,0.00894664041697979,-0.12624719738960266,0.06068160757422447
1733851538543948000,9.556947998046875,0.016061674803495407,-0.12433455139398575,0.059514839202165604
1733851538553917000,9.5669169921875,0.02011926658451557,-0.1260421723127365,0.06556127965450287
1733851538563885000,9.576885009765626,0.014615577645599842,-0.13199619948863983,0.08221056312322617
1733851538573853000,9.58685302734375,0.008293765597045422,-0.1466052383184433,0.09622357785701752
1733851538583822000,9.596822021484375,0.0029658465646207333,-0.16939899325370789,0.10947054624557495
1733851538593790000,9.6067900390625,0.003345879726111889,-0.17781059443950653,0.11613990366458893
1733851538603758000,9.616758056640625,0.009181530214846134,-0.17620742321014404,0.11426222324371338
1733851538613727000,9.62672705078125,0.0237538143992424,-0.1701926738023758,0.11534879356622696
1733851538623694800,9.63669482421875,0.04363364726305008,-0.17040809988975525,0.12473881989717484
1733851538633664000,9.6466640625,0.06831182539463043,-0.16870447993278503,0.14243659377098083
1733851538643631900,9.6566318359375,0.09341464936733246,-0.15105201303958893,0.16236154735088348
1733851538653600000,9.66660009765625,0.11251004785299301,-0.12137187272310257,0.18107585608959198
1733851538663569000,9.67656884765625,0.12380438297986984,-0.10958214849233627,0.18627722561359406
1733851538673537000,9.686537109375,0.1210075318813324,-0.12336774170398712,0.1762070208787918
1733851538683505200,9.696505126953125,0.10486118495464325,-0.14694394171237946,0.15480317175388336
1733851538693474000,9.70647412109375,0.08418280631303787,-0.16201503574848175,0.13440363109111786
1733851538703442200,9.716442138671875,0.06607863306999207,-0.17787273228168488,0.12493961304426193
1733851538713411000,9.7264111328125,0.05924416333436966,-0.20467372238636017,0.12479740381240845
1733851538723379000,9.73637890625,0.06764377653598785,-0.21734170615673065,0.12901446223258972
1733851538733346800,9.746346923828124,0.08708032220602036,-0.2138628214597702,0.13233302533626556
1733851538743316000,9.75631591796875,0.10633085668087006,-0.19818739593029022,0.14237062633037567
1733851538753284000,9.7662841796875,0.11420261859893799,-0.18116846680641174,0.16099463403224945
1733851538763252000,9.776251953125,0.11514178663492203,-0.1687808483839035,0.18486438691616058
1733851538773221000,9.78622119140625,0.11137021332979202,-0.1586856096982956,0.20428282022476196
1733851538783189000,9.79618896484375,0.10444187372922897,-0.15175104141235352,0.2124820202589035
1733851538793158100,9.806158203125,0.10473348945379257,-0.15198859572410583,0.20342646539211273
1733851538803126000,9.8161259765625,0.10313039273023605,-0.16486050188541412,0.1829776167869568
1733851538813094000,9.826093994140624,0.10815444588661194,-0.19659551978111267,0.1584581583738327
1733851538823062800,9.836062744140625,0.1130279004573822,-0.23671922087669373,0.1351471245288849
1733851538833031000,9.846031005859375,0.11475176364183426,-0.2729608714580536,0.12023661285638809
1733851538842999800,9.855999755859376,0.11506655067205429,-0.2984560430049896,0.11355916410684586
1733851538852968000,9.865968017578124,0.11573047935962677,-0.3128666877746582,0.11574482172727585
1733851538862936000,9.87593603515625,0.11694447696208954,-0.30770838260650635,0.12749989330768585
1733851538872905000,9.885905029296875,0.1258639395236969,-0.2800794243812561,0.15297676622867584
1733851538882873000,9.895873046875,0.13923248648643494,-0.24913808703422546,0.17966170608997345
1733851538892841200,9.90584130859375,0.1534537672996521,-0.21899989247322083,0.20021891593933105
1733851538902810000,9.91581005859375,0.1625191569328308,-0.20223425328731537,0.21719589829444885
1733851538912778000,9.925778076171875,0.16575782001018524,-0.2107747495174408,0.21779564023017883
1733851538922747000,9.935746826171876,0.1696445792913437,-0.2449624240398407,0.20594239234924316
1733851538932715000,9.945715087890624,0.17360976338386536,-0.29317307472229004,0.18551968038082123
1733851538942683000,9.955682861328125,0.17707931995391846,-0.3453015983104706,0.1631188690662384
1733851538952652000,9.965652099609375,0.1721695214509964,-0.38672012090682983,0.1460258960723877
1733851538962620000,9.975619873046876,0.1614198088645935,-0.4103343188762665,0.13144417107105255
1733851538972588000,9.985588134765624,0.14769254624843597,-0.4166489541530609,0.12572157382965088
1733851538982557200,9.99555712890625,0.13067121803760529,-0.40474438667297363,0.12866489589214325
1733851538992525000,10.005525146484375,0.11223281174898148,-0.38038578629493713,0.14179934561252594
1733851539002494200,10.015494140625,0.09860528260469437,-0.35116875171661377,0.1645810753107071
1733851539012461800,10.0254619140625,0.09063417464494705,-0.32581520080566406,0.19181695580482483
1733851539022430000,10.035429931640625,0.08038127422332764,-0.30422791838645935,0.21528379619121552
1733851539032398800,10.04539892578125,0.07762143760919571,-0.28362756967544556,0.23721545934677124
1733851539042367000,10.055366943359376,0.0802684873342514,-0.2622988224029541,0.2558581233024597
1733851539052335000,10.065335205078124,0.0853700339794159,-0.24246251583099365,0.2730557322502136
1733851539062304000,10.075303955078125,0.09425301849842072,-0.23570865392684937,0.2884218394756317
1733851539072272100,10.085272216796875,0.10542631149291992,-0.23755474388599396,0.30379706621170044
1733851539082241000,10.095240966796876,0.11580144613981247,-0.24270567297935486,0.3115166127681732
1733851539092209200,10.105209228515625,0.12478562444448471,-0.2530248761177063,0.3150636553764343
1733851539102177000,10.115177001953125,0.12909488379955292,-0.2679280638694763,0.31395813822746277
1733851539112146200,10.125146240234375,0.13130025565624237,-0.28495922684669495,0.30576837062835693
1733851539122114000,10.135114013671876,0.13492467999458313,-0.2988109886646271,0.2949584126472473
1733851539132082000,10.14508203125,0.13765175640583038,-0.30723029375076294,0.2890951931476593
1733851539142051000,10.155051025390625,0.13343943655490875,-0.30596229434013367,0.28477415442466736
1733851539152019000,10.16501904296875,0.12639297544956207,-0.29186031222343445,0.2838961184024811
1733851539161988000,10.174988037109374,0.12486724555492401,-0.27045050263404846,0.29128214716911316
1733851539171956000,10.1849560546875,0.1233399286866188,-0.24318720400333405,0.299289733171463
1733851539181924000,10.194924072265625,0.11798111349344254,-0.21293285489082336,0.30860987305641174
1733851539191893000,10.20489306640625,0.11080895364284515,-0.1914275735616684,0.31636741757392883
1733851539201861000,10.214861083984376,0.10177312046289444,-0.19496522843837738,0.32311150431632996
1733851539211829000,10.2248291015625,0.09190717339515686,-0.21687771379947662,0.32177621126174927
1733851539221798000,10.2347978515625,0.0992329940199852,-0.2461407333612442,0.317382276058197
1733851539231766000,10.24476611328125,0.11706365644931793,-0.27264559268951416,0.31019121408462524
1733851539241735000,10.25473486328125,0.14299219846725464,-0.2867768704891205,0.29896053671836853
1733851539251703000,10.264703125,0.16868956387043,-0.28359201550483704,0.2865869700908661
1733851539261671200,10.274671142578125,0.19149766862392426,-0.2776311933994293,0.2792770266532898
1733851539271640000,10.28464013671875,0.20903484523296356,-0.27443593740463257,0.2806970179080963
1733851539281608200,10.294608154296874,0.21384185552597046,-0.27109193801879883,0.2841550409793854
1733851539291576000,10.304576171875,0.21401070058345795,-0.2733444571495056,0.29032692313194275
1733851539301545200,10.314545166015625,0.21126165986061096,-0.28135570883750916,0.2936004102230072
1733851539311512800,10.324512939453125,0.21752914786338806,-0.28953561186790466,0.2926890552043915
1733851539321482000,10.33448193359375,0.22200259566307068,-0.2957194745540619,0.293695330619812
1733851539331450000,10.3444501953125,0.22980405390262604,-0.2927495241165161,0.29504501819610596
1733851539341418000,10.35441796875,0.23574888706207275,-0.2794401943683624,0.2947797477245331
1733851539351387100,10.36438720703125,0.24264487624168396,-0.25209084153175354,0.28946593403816223
1733851539361355000,10.37435498046875,0.24909639358520508,-0.2262738049030304,0.2900938093662262
1733851539371323100,10.3843232421875,0.25673913955688477,-0.21193428337574005,0.29779699444770813
1733851539381292000,10.3942919921875,0.26469239592552185,-0.20141758024692535,0.3023054003715515
1733851539391260200,10.40426025390625,0.26766955852508545,-0.1812095195055008,0.29564857482910156
1733851539401229000,10.41422900390625,0.26362141966819763,-0.1552053540945053,0.2762289345264435
1733851539411197000,10.424197021484375,0.2543405592441559,-0.12767359614372253,0.24928440153598785
1733851539421165000,10.4341650390625,0.23619124293327332,-0.10440778732299805,0.21324260532855988
1733851539431134000,10.444134033203126,0.21598051488399506,-0.10744699090719223,0.181553915143013
1733851539441102000,10.45410205078125,0.19310715794563293,-0.15505604445934296,0.16021627187728882
1733851539451070000,10.464070068359375,0.16933923959732056,-0.2535892724990845,0.14503838121891022
1733851539461039000,10.4740390625,0.14678852260112762,-0.37811166048049927,0.12471263855695724
1733851539471007200,10.48400732421875,0.14155595004558563,-0.4890989065170288,0.08661159873008728
1733851539480976100,10.49397607421875,0.15504339337348938,-0.559683084487915,0.032633569091558456
1733851539490944300,10.5039443359375,0.1835477352142334,-0.5925081372261047,-0.007053656503558159
1733851539500911900,10.513911865234375,0.21029093861579895,-0.5973586440086365,-0.017223360016942024
1733851539510881000,10.523881103515626,0.2208849936723709,-0.5704678893089294,0.012918563559651375
1733851539520849000,10.533848876953124,0.2164367139339447,-0.48963525891304016,0.06412585079669952
1733851539530817000,10.543817138671875,0.20314647257328033,-0.36000216007232666,0.11986900120973587
1733851539540786000,10.553785888671875,0.17277178168296814,-0.22475741803646088,0.17927022278308868
1733851539550754000,10.563754150390626,0.12427882850170135,-0.12826763093471527,0.24023477733135223
1733851539560723000,10.573722900390624,0.07015900313854218,-0.096521757543087,0.2875283658504486
1733851539570691000,10.583691162109375,0.027720194309949875,-0.10900159925222397,0.29843825101852417
1733851539580659200,10.5936591796875,0.007818658836185932,-0.1402617245912552,0.27120932936668396
1733851539590628000,10.603628173828126,0.009552642703056335,-0.1789260357618332,0.22684745490550995
1733851539600596000,10.613595947265624,0.023490428924560547,-0.21531198918819427,0.19478259980678558
1733851539610564000,10.623564208984375,0.03830293193459511,-0.229604110121727,0.18098263442516327
1733851539620533000,10.633532958984375,0.039356209337711334,-0.20656871795654297,0.1890707165002823
1733851539630501000,10.643501220703126,0.03152039274573326,-0.16652783751487732,0.20895521342754364
1733851539640470000,10.653469970703124,0.028840720653533936,-0.12198687344789505,0.23483878374099731
1733851539650438100,10.663438232421875,0.026910727843642235,-0.0873015969991684,0.2610032856464386
1733851539660406000,10.673406005859375,0.025986341759562492,-0.07251027226448059,0.28827545046806335
1733851539670375200,10.683375244140626,0.020211808383464813,-0.08320260047912598,0.30971604585647583
1733851539680343000,10.693343017578124,0.015240888111293316,-0.11234056204557419,0.31947779655456543
1733851539690311000,10.703310791015625,0.013392920605838299,-0.13792048394680023,0.31347742676734924
1733851539700280000,10.713280029296875,0.01975707709789276,-0.16078424453735352,0.2995496392250061
1733851539710248000,10.723248046875,0.025727352127432823,-0.17838774621486664,0.28343725204467773
1733851539720217000,10.733217041015624,0.025358237326145172,-0.1936260461807251,0.27644219994544983
1733851539730185000,10.74318505859375,0.02156003750860691,-0.2115381956100464,0.2798936665058136
1733851539740153000,10.753153076171875,0.013914501294493675,-0.21249665319919586,0.28844043612480164
1733851539750122000,10.7631220703125,0.012262809090316296,-0.19546787440776825,0.30086806416511536
1733851539760090000,10.773090087890624,0.012419136241078377,-0.1607578694820404,0.3119828999042511
1733851539770058200,10.783058349609375,0.019457871094346046,-0.12281101197004318,0.32341423630714417
1733851539780027100,10.793027099609375,0.02413424849510193,-0.09672049432992935,0.3399326801300049
1733851539789995000,10.8029951171875,0.026707127690315247,-0.08801887929439545,0.35417047142982483
1733851539799964000,10.8129638671875,0.024667814373970032,-0.09722241014242172,0.3601463735103607
1733851539809932000,10.82293212890625,0.016680460423231125,-0.1189761757850647,0.35969123244285583
1733851539819900200,10.832900146484375,0.0077005475759506226,-0.14500916004180908,0.35382241010665894
1733851539829869000,10.842869140625,0.004296228289604187,-0.17395266890525818,0.3415873050689697
1733851539839837200,10.852837158203124,0.013261759653687477,-0.1947936862707138,0.32320475578308105
1733851539849806000,10.86280615234375,0.03294039145112038,-0.18620339035987854,0.30558741092681885
1733851539859774200,10.872774169921875,0.0626431554555893,-0.15866819024085999,0.2941231429576874
1733851539869742000,10.8827421875,0.09068544954061508,-0.11264024674892426,0.28929403424263
1733851539879711200,10.892711181640625,0.11398464441299438,-0.06558400392532349,0.29670271277427673
1733851539889678800,10.902678955078125,0.12060286849737167,-0.03346787765622139,0.3099900186061859
1733851539899647000,10.91264697265625,0.11015687882900238,-0.021831993013620377,0.323130339384079
1733851539909615900,10.922615966796876,0.09253235161304474,-0.04150955751538277,0.32302168011665344
1733851539919584000,10.932583984375,0.08418320119380951,-0.09671898931264877,0.31843650341033936
1733851539929552100,10.94255224609375,0.09177454560995102,-0.16215631365776062,0.3093031942844391
1733851539939521000,10.95252099609375,0.10999029874801636,-0.2132013887166977,0.30662858486175537
1733851539949489200,10.9624892578125,0.12757422029972076,-0.23311839997768402,0.31188300251960754
1733851539959458000,10.9724580078125,0.13629913330078125,-0.233597531914711,0.3242155611515045
1733851539969426200,10.98242626953125,0.13265247642993927,-0.22704562544822693,0.34645748138427734
1733851539979394000,10.99239404296875,0.1070307269692421,-0.19284866750240326,0.37452298402786255
1733851539989363000,11.002363037109374,0.071070596575737,-0.1281660795211792,0.4112437069416046
1733851539999331000,11.0123310546875,0.042682234197854996,-0.051892269402742386,0.45488429069519043
1733851540009300000,11.022300048828125,0.023418257012963295,0.006864518858492374,0.4944884479045868
1733851540019268000,11.03226806640625,0.011509399861097336,0.017641134560108185,0.5190674662590027
1733851540029236000,11.042236083984376,0.006099720951169729,-0.00886424072086811,0.514412522315979
1733851540039205000,11.052205078125,0.009855044074356556,-0.05523305386304855,0.48584964871406555
1733851540049173000,11.062173095703125,0.026740550994873047,-0.10678093135356903,0.4401431381702423
1733851540059140900,11.072140869140625,0.047137171030044556,-0.13808360695838928,0.3836974799633026
1733851540069110300,11.0821103515625,0.07188965380191803,-0.13815924525260925,0.33143800497055054
1733851540079078000,11.092077880859375,0.10068854689598083,-0.11648229509592056,0.29705044627189636
1733851540089047000,11.102047119140625,0.11423711478710175,-0.08745943009853363,0.2826842665672302
1733851540099014700,11.1120146484375,0.11880110949277878,-0.0697927176952362,0.28120237588882446
1733851540108982800,11.121982666015626,0.11435548961162567,-0.0772104263305664,0.283440500497818
1733851540118951700,11.13195166015625,0.10957125574350357,-0.10264593362808228,0.28041133284568787
1733851540128919800,11.141919921875,0.1100413054227829,-0.14445143938064575,0.27308231592178345
1733851540138887700,11.1518876953125,0.1115768775343895,-0.1771591752767563,0.26043036580085754
1733851540148856600,11.161856689453124,0.12040898203849792,-0.19323720037937164,0.24369801580905914
1733851540158824700,11.17182470703125,0.1319495290517807,-0.197975754737854,0.2267439216375351
1733851540168793600,11.181793701171875,0.14655031263828278,-0.19353200495243073,0.21615466475486755
1733851540178761700,11.19176171875,0.16085414588451385,-0.1736726313829422,0.2062469869852066
1733851540188729900,11.201729736328126,0.17199602723121643,-0.14622555673122406,0.20308208465576172
1733851540198698800,11.21169873046875,0.17038919031620026,-0.1177123636007309,0.20375125110149384
1733851540208667000,11.2216669921875,0.1593107134103775,-0.10494916141033173,0.2080029845237732
1733851540218634800,11.231634765625,0.13425488770008087,-0.11033482104539871,0.21328751742839813
1733851540228604000,11.24160400390625,0.09763749688863754,-0.1206873282790184,0.22154971957206726
1733851540238571500,11.251571533203125,0.06323850899934769,-0.11552757769823074,0.2304902821779251
1733851540248540700,11.261540771484375,0.0469420924782753,-0.07939115166664124,0.23617559671401978
1733851540258508800,11.2715087890625,0.04938754066824913,-0.033094387501478195,0.23585858941078186
1733851540268476700,11.2814765625,0.058917395770549774,-0.011127036064863205,0.23005983233451843
1733851540278445800,11.29144580078125,0.06557995826005936,-0.011573503725230694,0.2165222465991974
1733851540288413700,11.30141357421875,0.06770196557044983,-0.0514729842543602,0.20101386308670044
1733851540298381800,11.3113818359375,0.06515838205814362,-0.10405050218105316,0.18378476798534393
1733851540308350700,11.321350830078124,0.06643164157867432,-0.13203074038028717,0.16609393060207367
1733851540318318800,11.33131884765625,0.07009588181972504,-0.13421715795993805,0.16314567625522614
1733851540328287700,11.341287841796875,0.08066463470458984,-0.12969458103179932,0.16861607134342194
1733851540338255600,11.351255615234376,0.09597355127334595,-0.12609894573688507,0.17658527195453644
1733851540348223700,11.3612236328125,0.11391553282737732,-0.11575815826654434,0.17371144890785217
1733851540358192600,11.371192626953125,0.13150423765182495,-0.0980813205242157,0.1622650921344757
1733851540368160800,11.381160888671875,0.14368021488189697,-0.09850023686885834,0.148590549826622
1733851540378128600,11.391128662109375,0.15015409886837006,-0.12120649218559265,0.12852396070957184
1733851540388097800,11.401097900390624,0.13975632190704346,-0.16369855403900146,0.11412610858678818
1733851540398066000,11.41106591796875,0.12293592095375061,-0.21563300490379333,0.10553965717554092
1733851540408034800,11.421034912109375,0.10335609316825867,-0.24456079304218292,0.0966084748506546
1733851540418003000,11.4310029296875,0.09460388123989105,-0.24664068222045898,0.09578847885131836
1733851540427970600,11.440970458984374,0.09623853862285614,-0.23324818909168243,0.1040663793683052
1733851540437939700,11.450939697265625,0.10754338651895523,-0.19753555953502655,0.11047296226024628
1733851540447907600,11.460907470703125,0.11925889551639557,-0.1402032971382141,0.11528901755809784
1733851540457875700,11.470875732421876,0.11756139993667603,-0.0918247401714325,0.11906956881284714
1733851540467844600,11.4808447265625,0.09591549634933472,-0.06267298758029938,0.12229438871145248
1733851540477812700,11.490812744140625,0.058892760425806046,-0.06225302442908287,0.11995361000299454
1733851540487782000,11.500781982421875,0.01991766318678856,-0.08235828578472137,0.11062189191579819
1733851540497749800,11.510749755859376,-0.011295115575194359,-0.12157823145389557,0.09732666611671448
1733851540507718000,11.5207177734375,-0.022777866572141647,-0.16726475954055786,0.08232268691062927
1733851540517686800,11.530686767578125,-0.00010877515887841582,-0.2033364623785019,0.07198014110326767
1733851540527654700,11.540654541015625,0.03828015923500061,-0.21013469994068146,0.07129677385091782
1733851540537622800,11.550622802734376,0.07772264629602432,-0.18799379467964172,0.07941049337387085
1733851540547591700,11.560591796875,0.11266251653432846,-0.14490917325019836,0.08396822959184647
1733851540557559800,11.570559814453125,0.1271197497844696,-0.1007501557469368,0.07611152529716492
1733851540567528700,11.58052880859375,0.11578027904033661,-0.0705200806260109,0.06029314547777176
1733851540577496800,11.590496826171876,0.07972387224435806,-0.07350291311740875,0.0498572438955307
1733851540587464700,11.600464599609374,0.037866707891225815,-0.09735524654388428,0.045301638543605804
1733851540597433900,11.610433837890625,0.003242948092520237,-0.11703065782785416,0.041976816952228546
1733851540607401700,11.620401611328125,-0.013458800502121449,-0.13522058725357056,0.04735586792230606
1733851540617369600,11.63036962890625,-0.009025968611240387,-0.1558104008436203,0.05023283138871193
1733851540627338800,11.6403388671875,0.010743740946054459,-0.15775956213474274,0.05244911462068558
1733851540637306600,11.650306640625,0.042579300701618195,-0.1298520267009735,0.04550134018063545
1733851540647275800,11.66027587890625,0.07993252575397491,-0.07413656264543533,0.03741438314318657
1733851540657243600,11.67024365234375,0.10428154468536377,-0.01644575595855713,0.024737630039453506
1733851540667211800,11.680211669921874,0.10051104426383972,0.024784769862890244,0.010468944907188416
1733851540677180700,11.6901806640625,0.07457971572875977,0.03209023177623749,0.005436969920992851
1733851540687148800,11.700148681640625,0.02718529850244522,0.00932979304343462,0.009507877752184868
1733851540697117000,11.710116943359376,-0.018790854141116142,-0.018868261948227882,0.02377256564795971
1733851540707085800,11.7200859375,-0.03913207724690437,-0.03557799756526947,0.03611765056848526
1733851540717053700,11.7300537109375,-0.025137562304735184,-0.04371220991015434,0.04264114797115326
1733851540727022600,11.740022705078125,0.013045242987573147,-0.036089446395635605,0.035080164670944214
1733851540736990700,11.74999072265625,0.0581904873251915,-0.009889284148812294,0.02359369583427906
1733851540746958800,11.759958740234374,0.09571655839681625,0.025295333936810493,0.010435549542307854
1733851540756927700,11.769927734375,0.1153712198138237,0.054773736745119095,0.001992184668779373
1733851540766895900,11.779895751953125,0.12333247065544128,0.08392602950334549,-0.0077371420338749886
1733851540776863700,11.78986376953125,0.12427962571382523,0.10183898359537125,-0.018177388235926628
1733851540786833000,11.7998330078125,0.12117677927017212,0.10077638179063797,-0.02697274275124073
1733851540796800800,11.80980078125,0.11440808326005936,0.0884120762348175,-0.03077469952404499
1733851540806770000,11.81977001953125,0.11396759748458862,0.06696110963821411,-0.036579057574272156
1733851540816737500,11.829737548828126,0.11441061645746231,0.05528246983885765,-0.05266568064689636
1733851540826705700,11.83970556640625,0.1063724011182785,0.05120650306344032,-0.06483153998851776
1733851540836674800,11.8496748046875,0.0880967229604721,0.04777266085147858,-0.06414879858493805
1733851540846642700,11.859642578125,0.058343082666397095,0.051567934453487396,-0.04857117682695389
1733851540856610800,11.86961083984375,0.02883179858326912,0.07977245002985,-0.028094133362174034
1733851540866579700,11.879579833984375,0.012597700580954552,0.12544938921928406,-0.0026444329414516687
1733851540876547800,11.8895478515625,0.013663764111697674,0.15665745735168457,0.024708546698093414
1733851540886516700,11.899516845703126,0.009025868959724903,0.15279267728328705,0.04465961828827858
1733851540896484900,11.90948486328125,0.005856040865182877,0.10881063342094421,0.044157762080430984
1733851540906452700,11.91945263671875,0.009224406443536282,0.029973609372973442,0.02109239064157009
1733851540916421600,11.929421630859375,0.017358368262648582,-0.05856388062238693,-0.015813099220395088
1733851540926389800,11.9393896484375,0.02306525595486164,-0.12301371246576309,-0.04469721019268036
1733851540936357600,11.949357666015626,0.0348457470536232,-0.13776768743991852,-0.05548599362373352
1733851540946326800,11.959326904296875,0.053655922412872314,-0.10611309111118317,-0.051539454609155655
1733851540956294700,11.969294677734375,0.06941837817430496,-0.053883470594882965,-0.03670471906661987
1733851540966263800,11.979263916015626,0.07712023705244064,0.0032953994814306498,-0.021860793232917786
1733851540976232000,11.98923193359375,0.07008842378854752,0.05272049829363823,-0.011759553104639053
1733851540986199800,11.99919970703125,0.0426006056368351,0.07544977962970734,-0.0022826942149549723
1733851540996169000,12.0091689453125,0.006242998875677586,0.06294422596693039,-0.0027719850186258554
1733851541006136600,12.019136474609375,-0.025505077093839645,0.02938173897564411,-0.004409030079841614
1733851541016104700,12.029104736328126,-0.04536493495106697,0.0050561088137328625,-0.0058219837956130505
1733851541026073600,12.039073486328125,-0.0405893549323082,-0.003867877647280693,0.0002819811925292015
1733851541036041700,12.049041748046875,-0.020652931183576584,0.0047677685506641865,0.007399706169962883
1733851541046010600,12.0590107421875,0.007102533709257841,0.021155264228582382,0.00961199402809143
1733851541055978800,12.068978759765624,0.02314501628279686,0.03354857861995697,0.007920533418655396
1733851541065947000,12.07894677734375,0.024484053254127502,0.042848601937294006,0.004463749937713146
1733851541075915800,12.088915771484375,0.01962205395102501,0.044218387454748154,-0.0063257478177547455
1733851541085884000,12.0988837890625,0.01123789045959711,0.04099676385521889,-0.020534243434667587
1733851541095851800,12.108851806640626,-0.004181012976914644,0.02940269187092781,-0.03494887053966522
1733851541105822200,12.118822265625,-0.015721555799245834,0.016723647713661194,-0.045920561999082565
1733851541115790000,12.1287900390625,-0.015507170930504799,0.026896750554442406,-0.04927569255232811
1733851541125759200,12.13875927734375,-0.008495599962770939,0.051130183041095734,-0.045327022671699524
1733851541135726800,12.148726806640624,-0.003826811909675598,0.09210482239723206,-0.03576717898249626
1733851541145695000,12.158695068359375,0.0007564879488199949,0.13906939327716827,-0.017539970576763153
