time,seconds_elapsed,z,y,x
1733851132121079300,0.017079345703125,-0.4087742776364088,-0.216935654745996,-0.18014500675890593
1733851132131048200,0.027048095703125,-0.3873772693425417,-0.2103732274904847,-0.26360945364283395
1733851132141016000,0.03701611328125,-0.28024434383511543,-0.2206999757155776,-0.21946407724507153
1733851132150985200,0.046985107421875,-0.1472153450489044,-0.13834580989480016,-0.11957946063177659
1733851132160954000,0.0569541015625,0.050260114684700964,-0.0169946816816926,-0.14594821118991821
1733851132170922000,0.066921875,0.27984686895012856,0.09365998821109532,-0.09712737206071614
1733851132180891100,0.07689111328125,0.43677579876184464,0.30916385658830403,0.055109710140340024
1733851132190860000,0.086860107421875,0.4578565807133913,0.398592783100903,0.41537177620530125
1733851132200828200,0.096828125,0.3599935878545046,0.10497282486408949,1.00000947429128
1733851132210797000,0.106797119140625,-0.07330898183882235,-0.5049386498838663,1.3289157768994568
1733851132220766000,0.116765869140625,-0.8619587748855352,-0.758326258714497,1.0246608812712132
1733851132230734000,0.126734130859375,-1.4147539854437112,-0.6287745806500316,0.23198767792731523
1733851132240703200,0.136703125,-1.4177525827378035,-0.39110096604079003,-0.6672909199185669
1733851132250671000,0.146671142578125,-0.9608955344557761,-0.4605293070539832,-1.172431887441501
1733851132260640300,0.15664013671875,-0.26290099484622476,-0.5666574394330381,-1.354240480031073
1733851132270609200,0.166609130859375,0.39205812063515183,-0.18789426917880772,-1.417581902346015
1733851132280577300,0.176577392578125,0.9850298587590456,0.4390206550791859,-1.523261560305208
1733851132290546200,0.186546142578125,1.2320944020479916,0.9400383321270346,-1.4739204601615667
1733851132300515000,0.19651513671875,1.0081950457692146,1.5740934835284948,-1.2198485223285853
1733851132310483200,0.206483154296875,0.5256307247787714,2.266381628189981,-1.3533644278489052
1733851132320452000,0.2164521484375,-0.6319371363341808,0.6938000105291604,-0.8743588222533464
1733851132330421200,0.226421142578125,-0.9592465982049703,-0.32116759811490775,-1.2301106808848679
1733851132340389000,0.23638916015625,-1.0594523547977208,-0.15325930138826369,-0.3584865442924201
1733851132350358000,0.24635791015625,-0.8903525101989507,-0.28144670536220073,0.6071987086579204
1733851132360327000,0.256326904296875,0.10585048448145389,-0.6984516357272863,0.8905345887675881
1733851132370295000,0.266294921875,1.2523878330141305,-0.9124398388445377,0.9097456313244998
1733851132380264000,0.276263916015625,1.7863813124686478,-0.7854480743959545,0.8475776367031037
1733851132390233000,0.286233154296875,1.6444886237472294,-0.4846382046550512,0.7417194073066115
1733851132400201000,0.296200927734375,0.9801175367981195,-0.14727350497692823,0.676372490388155
1733851132410170000,0.306170166015625,0.2147942588031292,0.14041881677657364,0.5379030541136861
1733851132420139000,0.316138916015625,-0.43641164162456986,0.30436873126626013,0.34566812538206576
1733851132430107100,0.326107177734375,-0.7968827838629484,0.39067631088793275,0.12333747972473501
1733851132440076000,0.336075927734375,-0.8636287539243698,0.46689971886873244,-0.07887582218572498
1733851132450045200,0.346045166015625,-0.6820797621190547,0.47458764302283524,-0.2603242762260139
1733851132460013000,0.356012939453125,-0.34027474190592766,0.4146268030568957,-0.36374388029873367
1733851132469982200,0.365982177734375,-0.01130699143409729,0.3685048110902309,-0.3860315538220107
1733851132479951000,0.375951171875,0.23951778117120265,0.2880705074161291,-0.2883561924897134
1733851132489919200,0.385919189453125,0.3726192606717348,0.191595754045248,-0.12013210781216621
1733851132499888000,0.39588818359375,0.39631168642640113,0.09162555977404117,0.03346928501203656
1733851132509856300,0.405856201171875,0.34143735594451424,-0.03931552682220935,0.13526859440654515
1733851132519825200,0.4158251953125,0.21596388710439204,-0.2115209362208843,0.20185440547019243
1733851132529794300,0.425794189453125,0.17931085748970507,-0.368903747279942,0.2835698349960148
1733851132539762000,0.435761962890625,0.14710428588986396,-0.5065373172521591,0.3222423877395689
1733851132549731000,0.44573095703125,0.1217144085675478,-0.5835144662097096,0.2965558655582368
1733851132559700000,0.455699951171875,0.0978244144141674,-0.5696551599442958,0.3126844319298863
1733851132569668000,0.465668212890625,0.07347206344604491,-0.4710007244467735,0.31754341626837845
1733851132579637000,0.475636962890625,0.06084931323826313,-0.29127339511066674,0.32546134978607294
1733851132589606100,0.485606201171875,0.14062486074268818,-0.12176555423289537,0.32586101662814615
1733851132599574000,0.495573974609375,0.1754623653680086,0.06110445704311132,0.2921859799109399
1733851132609543200,0.505543212890625,0.2090472395837307,0.20884528727084398,0.2966097877025604
1733851132619512000,0.515511962890625,0.24166706815958022,0.2577522337809205,0.3438585917420685
1733851132629480200,0.525480224609375,0.20310557457506656,0.23394904112815856,0.3900536489449441
1733851132639449000,0.535448974609375,0.1537608211696148,0.22203034753650425,0.399340678858757
1733851132649418200,0.545418212890625,0.0015875614523887633,0.23557313519865272,0.3550442948840558
1733851132659386000,0.55538623046875,-0.16898936996161937,0.3300964622408151,0.26429230307415125
1733851132669355300,0.565355224609375,-0.2099094093710184,0.39341362689733506,0.14952362199127672
1733851132679324200,0.57532421875,-0.21503449729979038,0.4770297754779458,-0.016859657125175
1733851132689292300,0.585292236328125,-0.24189152456521987,0.5665428731426596,-0.2689158712215721
1733851132699261200,0.59526123046875,-0.36685587483942506,0.6178945824563503,-0.5605709591262042
1733851132709229300,0.605229248046875,-0.5904015953749417,0.7225090954020619,-0.7385466224893927
1733851132719198000,0.615197998046875,-0.7913450234800576,0.7975172823742032,-0.8964771305590867
1733851132729167000,0.6251669921875,-0.7596107455670833,0.7812810178443789,-0.9860210617534816
1733851132739135000,0.635135009765625,-0.6615986996263266,0.6607070114836097,-1.0466478182822465
1733851132749104000,0.645104248046875,-0.5623766933739185,0.47053924441486594,-1.1505645582221449
1733851132759073000,0.655072998046875,-0.5558341398626565,0.30661124949604274,-1.2315180634647607
1733851132769041200,0.665041259765625,-0.5855518172562122,0.2630912567213178,-1.2549223199278114
1733851132779010000,0.675010009765625,-0.5920534542351961,0.27084084793478247,-1.1848938210643827
1733851132788979000,0.68497900390625,-0.6325397784024477,0.3002113193258643,-1.0030759491898118
1733851132798947000,0.694947021484375,-0.8249503559619188,0.2901309470772743,-0.5620242266744375
1733851132808916000,0.704916015625,-0.9060732264220714,0.1766749560281634,-0.22012378326281903
1733851132818885000,0.714885009765625,-0.846798615154624,0.00177636202275753,-0.0402677129805088
1733851132828853200,0.724853271484375,-0.832381967267394,-0.1634855118483305,0.2129898397296667
1733851132838822100,0.734822265625,-0.9410971935302018,-0.31999709303081036,0.48666941822171206
1733851132848791000,0.744791015625,-1.0027116459220646,-0.30953268990069627,0.7112076569259166
1733851132858759000,0.754759033203125,-1.0354705907076596,-0.12102087334543465,0.8499738841898739
1733851132868727800,0.764727783203125,-1.0139005639344454,0.15381459718346596,0.7280167529076338
1733851132878697200,0.774697265625,-1.1741975088745356,0.3705664197951555,0.7149433363229036
1733851132888665000,0.7846650390625,-1.4356547346532345,0.36691812642067667,0.5444065907888114
1733851132898634000,0.794634033203125,-1.6560341001123189,0.09494827445596456,0.2710360782459378
1733851132908603000,0.804602783203125,-1.70847623501122,-0.3001031827762723,-0.012050795538723468
1733851132918571000,0.814571044921875,-1.5099205788254737,-0.7139943650349975,-0.22919234812036154
1733851132928540000,0.824539794921875,-1.2020756958812475,-1.034817387495935,-0.23756971584334968
1733851132938509000,0.834509033203125,-0.9509738599002361,-1.1356631955578922,0.08879208991378545
1733851132948477000,0.844476806640625,-0.8086275821924209,-0.9798846048250793,0.4281703213714063
1733851132958446000,0.854446044921875,-0.7598498150199652,-0.619465485034883,0.6744672412887215
1733851132968414000,0.8644140625,-1.1520189948141575,-0.27226328195333477,1.1254346470102667
1733851132978383000,0.874383056640625,-1.6884832482963799,0.01039981346130371,1.504831292862445
1733851132988352000,0.88435205078125,-2.4448855532109737,0.25348317815959454,1.8799493846125899
1733851132998320000,0.894320068359375,-3.2214854275017974,0.41291853783428667,1.9529181747116147
1733851133008289000,0.9042890625,-3.6917654364585872,0.5152049000933766,1.6761004443243146
1733851133018258200,0.914258056640625,-3.50757265214622,0.5994105389997363,1.0411873609192668
1733851133028226000,0.92422607421875,-2.6700907313913107,0.6707622492909431,0.2841414974041283
1733851133038195200,0.9341953125,-1.6559364849567413,0.7588441451087593,-0.3824795604288578
1733851133048164000,0.9441640625,-0.7692489270061255,0.8417249651521443,-0.8608608966462313
1733851133058132000,0.954132080078125,-0.318988792771101,0.8551496793925761,-1.1293211330547928
1733851133068100900,0.964100830078125,-0.3309785057723522,0.8695689576283097,-1.1835269166253506
1733851133078070000,0.974070068359375,-0.6740794110149144,0.8303861172750592,-1.050972111222148
1733851133088038000,0.984037841796875,-1.194644669097662,0.7326701316714287,-0.9469489882983266
1733851133098007000,0.994007080078125,-1.5561024842858313,0.5606833334594965,-0.7960812582217156
1733851133107976000,1.003975830078125,-1.616348570933938,0.4655702238306403,-0.7361964061014353
1733851133117944000,1.013944091796875,-1.425713186353445,0.42227848685383795,-0.7933382431238889
1733851133127913000,1.023912841796875,-0.7612900769561529,0.39008652830123897,-0.8976812456518412
1733851133137882000,1.033882080078125,0.07468085471391678,0.26215543717592954,-1.0539657400801776
1733851133147850000,1.04385009765625,0.770793818360567,0.16084785682111977,-1.1365230272576212
1733851133157819100,1.053819091796875,1.0149205546319484,0.07580547482967376,-1.0582362570062278
1733851133167787000,1.063787109375,1.1645534822165966,0.12579583266228436,-0.8006915284961461
1733851133177756200,1.073756103515625,1.441571265220642,0.31855040135383605,-0.4567442355573177
1733851133187725000,1.08372509765625,1.7772843982994555,0.6239645500198007,-0.13755962795317173
1733851133197693200,1.093693115234375,1.233320728972554,0.9305705388188361,0.46001258970350023
1733851133207662000,1.103662109375,-0.7867313922047614,1.0947013628333806,1.289202190670371
1733851133217631000,1.113630859375,-1.3721411706417799,1.2176339150190352,1.2522644988954066
1733851133227599000,1.12359912109375,0.05214227516949176,1.4393188101187349,0.4862906480371952
1733851133237568300,1.133568359375,0.7962275348246097,1.3004054294690488,-0.05535422295331954
1733851133247537200,1.143537109375,1.3050199375271796,0.8297270688444376,-0.5889408751726151
1733851133257505000,1.153505126953125,2.243522438389063,0.42269700452685355,-0.9137643654465675
1733851133267474000,1.163473876953125,3.0439480094254017,0.11239391477555036,-0.7126172314628958
1733851133277442800,1.17344287109375,3.4760604925513268,0.012299217341840266,-0.23787761274874208
1733851133287411000,1.183410888671875,3.504931197726726,-0.08328969310522079,0.1507040639474988
1733851133297380000,1.193380126953125,2.952912232238054,-0.32916824147999285,0.2473626494526863
1733851133307348000,1.203347900390625,2.1700012751042843,-0.566292113251984,-0.04182458703368902
1733851133317317000,1.213317138671875,1.910161421394348,-0.471783106996119,-0.6846773773968219
1733851133327286000,1.2232861328125,2.1278782896459103,-0.07521949163526297,-1.5280845965474843
1733851133337254100,1.233254150390625,2.3011481134057044,0.282941912356019,-2.4613144177034494
1733851133347223000,1.24322314453125,2.5106986263364552,0.4731792375296354,-3.2563889831006527
1733851133357192000,1.25319189453125,2.604489839711785,0.35608956615328785,-3.7227798756644126
1733851133367160000,1.26316015625,2.768263520851731,0.07376724700033664,-3.668544719868898
1733851133377129000,1.27312890625,3.1991613674908876,-0.2042880623579025,-3.2211370524555445
1733851133387098000,1.28309814453125,3.7407413565516467,-0.3465244499504566,-2.621031224668026
1733851133397066200,1.293066162109375,3.8287703531384465,-0.23497838417589664,-2.052372382284701
1733851133407035100,1.30303515625,3.550301786804199,-0.0012327566653490066,-1.7208938180357216
1733851133417004000,1.313004150390625,3.3191561126589773,0.13008183941841125,-1.6239070234894752
1733851133426972200,1.32297216796875,3.0825889979869125,0.16499942354261873,-1.6942904732704163
1733851133436941000,1.332941162109375,2.361539746004343,0.08541238434761762,-1.720314849103987
1733851133446910200,1.34291015625,1.856583560463786,0.02326046407818794,-1.5789403390377759
1733851133456877800,1.3528779296875,1.8062854518562554,-0.10038988098800182,-1.411416073192656
1733851133466847000,1.362846923828125,1.8552660481244325,-0.323684841632843,-1.4229048509344457
1733851133476816000,1.37281591796875,2.087531666210294,-0.5546595431253314,-1.5271382556080817
1733851133486784000,1.382783935546875,2.404464695495367,-0.7854717475324868,-1.6501041255414486
1733851133496753000,1.3927529296875,2.696011354589462,-0.9584189152091741,-1.7189283631816505
1733851133506721000,1.402720947265625,3.2127871572613715,-1.068215799228847,-1.6995064543530345
1733851133516690000,1.41268994140625,3.761860716947913,-1.0485323168545961,-1.6807622986555097
1733851133526659000,1.4226591796875,3.8572546893447637,-1.0067460160046815,-1.5204136235281824
1733851133536627000,1.432626953125,3.2525784849017856,-1.0488833222493528,-1.2269599617689848
1733851133546596000,1.44259619140625,2.22256499055624,-1.0027075542688368,-0.7163979190453886
1733851133556565000,1.45256494140625,1.3319050218433142,-0.7515715237572789,-0.21102321583181619
1733851133566533000,1.462533203125,1.0017793335080145,-0.32648119435310363,0.040565234622359274
1733851133576502000,1.472501953125,1.0751268937915563,-0.0854325503528118,-0.17514526224285362
1733851133586471200,1.48247119140625,1.6588883204996585,-0.06536474483609199,-0.7582625458285213
1733851133596439000,1.49243896484375,2.5985376533091067,-0.1668549882814288,-1.3490978564456104
1733851133606408200,1.502408203125,3.3977538485556837,-0.2685916077032685,-1.8090069857746363
1733851133616377000,1.512377197265625,3.478001689746976,-0.4543757528603077,-2.197156116272509
1733851133626345200,1.52234521484375,2.38690916506052,-0.7191486790582537,-2.2971830091670156
1733851133636314000,1.532314208984375,0.4897931032001972,-0.7912702046781778,-2.2448966493517157
1733851133646283300,1.542283203125,-0.719418435910344,-0.6988149160817265,-2.1862968686059117
1733851133656251000,1.5522509765625,-0.4331956021875143,-0.5571838009059429,-2.0798571860596535
1733851133666220000,1.562219970703125,0.3459942885965109,-0.4983943428069353,-1.9444953604117035
1733851133676189000,1.57218896484375,1.1036515620082616,-0.4813558219835162,-1.792884410752356
1733851133686157000,1.582156982421875,1.8428040414363145,-0.3659972121834755,-1.6890429280057548
1733851133696126000,1.5921259765625,2.1178771201133726,-0.22945699040591716,-1.60650668361634
1733851133706094000,1.602093994140625,1.9459113646894692,-0.204826114757359,-1.462222423583269
1733851133716063000,1.61206298828125,1.4504787942975759,-0.18237696706205606,-1.2784946264341472
1733851133726032100,1.6220322265625,0.586995586323738,-0.12231500480920075,-1.1192556661143898
1733851133736000000,1.632,-0.38171734388470646,0.012536825489997863,-1.0728978195652366
1733851133745969200,1.64196923828125,-0.8260323059797287,0.34681583411246536,-1.0425444746166468
1733851133755938000,1.65193798828125,-0.7751309707820415,0.9167077254220842,-0.8328130521610378
1733851133765906200,1.66190625,-1.0568272669911385,1.288750647510588,-0.5849012443929911
1733851133775875000,1.671875,-1.6383067202419042,1.608276615898311,-0.2729635391771793
1733851133785844000,1.681843994140625,-2.0803560754925012,1.9072610237777232,0.24350422045886516
1733851133795812000,1.69181201171875,-2.456565469610691,2.091945098738372,0.9278612798601389
1733851133805781200,1.70178125,-2.859402758413553,2.3345985475867987,1.6926707631140947
1733851133815750100,1.711750244140625,-3.0052853935539723,2.5578064144700763,2.454700844782591
1733851133825718300,1.72171826171875,-3.093057785031199,2.4631623836576937,3.273124429324269
1733851133835687200,1.731687255859375,-3.1590093898445364,2.028389741411805,4.111376165407896
1733851133845655300,1.7416552734375,-3.455082001930475,1.3895160838127136,4.862093994945288
1733851133855624200,1.751624267578125,-5.532842215710878,0.45322658282518385,5.746929787549377
1733851133865593000,1.761593017578125,-12.170422619622945,-0.4786811959467828,7.5605100725889205
1733851133875561200,1.771561279296875,-17.487604315090177,-0.25740371260419487,9.426733568057417
1733851133885530000,1.781530029296875,-7.550444605648517,0.6576780190512538,10.141162525117396
1733851133895499300,1.791499267578125,-0.021713819158077238,0.44562093012705445,7.72976013931334
1733851133905467100,1.801467041015625,1.0461176569283008,-0.0013859014004468917,3.629230946612358
1733851133915436000,1.81143603515625,1.0329331811845301,0.025131080255657433,1.0501222163945436
1733851133925405000,1.821405029296875,1.1339257042407989,0.001281710373610258,-0.5159118793189525
1733851133935373000,1.831373046875,1.3859119218409062,-0.26320333879366514,-1.5698270582556724
1733851133945342000,1.841342041015625,1.7162971378952263,-0.6386718514166771,-2.516372580319643
1733851133955311000,1.85131103515625,2.37900175293684,-1.0171151420667768,-3.510719133478403
1733851133965279000,1.861279052734375,3.2256817101478577,-1.2091111474759877,-4.137595479291678
1733851133975248100,1.871248046875,3.7811984546244144,-1.0117541995555162,-4.197763240006566
1733851133985217000,1.881217041015625,3.6902211296260354,-0.4612573290675878,-3.9229964507997033
1733851133995185200,1.89118505859375,2.8049697419583794,0.16545856548696755,-3.575968142980337
1733851134005154000,1.901154052734375,1.480376504433155,0.5724927214577794,-2.5812048257142304
1733851134015122200,1.9111220703125,-0.018346388551592825,0.7532213367909193,-1.120187686267495
1733851134025091000,1.921091064453125,-1.3456418707728386,1.0057030828230082,0.2270019984692335
1733851134035060200,1.931060302734375,-2.2331237939715383,1.2777404470659792,1.3820739511132238
1733851134045028000,1.941028076171875,-2.5599019254446027,1.4160976551376283,2.408892448809743
1733851134054997200,1.950997314453125,-2.3869804767310616,1.357629976338893,3.2975948537141084
1733851134064966100,1.960966064453125,-1.8939467841744422,1.0711296408489346,3.781339324399829
1733851134074934000,1.97093408203125,-1.1852332821518181,0.7391635853439569,3.899162570747733
1733851134084903200,1.980903076171875,-0.2983668605029583,0.45873672454878683,3.6435242603808637
1733851134094872300,1.990872314453125,0.61864101690948,0.3427599828504026,2.901621605461836
1733851134104840000,2.00083984375,1.3241069153130054,0.42563057376071806,1.954513188818097
1733851134114809000,2.01080908203125,1.6265151601612566,0.5740064870215952,1.1157383056432009
1733851134124778000,2.020778076171875,1.582062270450592,0.6329030587568879,0.38119419679343697
1733851134134746000,2.03074609375,1.318072311323881,0.6125011989802122,-0.12716741327643394
1733851134144715000,2.040715087890625,0.7550204951673746,0.41915304830968375,-0.3893278188884258
1733851134154683100,2.05068310546875,-0.007977554750442505,0.1530142405860126,-0.5424906741648912
1733851134164652000,2.060652099609375,-0.8010492558926343,-0.03660407590642571,-0.5058931741297245
1733851134174621200,2.07062109375,-1.5852315481364727,-0.008124562005698681,-0.1826771190524101
1733851134184589000,2.080589111328125,-2.301571891775727,0.1483912569604814,0.15914192968606947
1733851134194558200,2.09055810546875,-2.8039012359440325,0.2859722199626267,0.3339823637634516
1733851134204527000,2.100527099609375,-2.7788690860182044,0.2828561337687075,0.5920452709287405
1733851134214495200,2.1104951171875,-2.283138409462571,0.11783186804577707,1.1432038201957941
1733851134224464100,2.120464111328125,-1.716789889848232,-0.163333536157012,1.7291858455628155
1733851134234433300,2.130433349609375,-1.2742308315098285,-0.4625748414069414,2.063966666227579
1733851134244401200,2.140401123046875,-1.122802837201953,-0.6537932865723968,2.201295992556214
1733851134254370300,2.150370361328125,-1.384444187375903,-0.7310802321314811,2.3032921396970747
1733851134264338000,2.160337890625,-2.0319079786658287,-0.6549918487071991,2.5102614039629696
1733851134274307000,2.17030712890625,-2.8310575384169816,-0.44438744280934334,2.6079578080832957
1733851134284276000,2.18027587890625,-3.390933062624931,-0.19214169749021529,2.375426817059517
1733851134294244000,2.190244140625,-3.286058729699254,0.022173253363370893,1.9725047725826501
1733851134304213000,2.200212890625,-2.805265510034561,0.0970513842150569,1.6247592564046383
1733851134314182100,2.21018212890625,-2.218004550772905,0.0977305986508727,1.367000885143876
1733851134324150000,2.22014990234375,-1.5609107613503932,0.06752426095753908,1.2075883218228816
1733851134334119200,2.230119140625,-0.8637760534405707,0.13218757952600715,1.118216678455472
1733851134344088000,2.240088134765625,-0.16579495783448217,0.17517974903434513,0.9656026892334222
1733851134354056200,2.25005615234375,0.20499591836631298,0.30027240186333654,0.6611293285489082
1733851134364025000,2.260025146484375,0.16006196714043616,0.45510669748336074,0.3365414005964994
1733851134373994200,2.269994140625,-0.13949614897370338,0.5388499795749783,0.1690840625077486
1733851134383962000,2.279962158203125,-0.23546003021299838,0.629198943541944,-0.01687573147714138
1733851134393931300,2.28993115234375,-0.306448460149765,0.7489069807231425,-0.1799193447768688
1733851134403899100,2.299899169921875,-0.6164210027724504,0.8401961481496691,-0.3398801896303892
1733851134413868300,2.309868408203125,-0.9548919101268053,0.8650409588098525,-0.6384025329560041
1733851134423837200,2.319837158203125,-0.8688321677863597,0.8990101561680436,-0.858048323443532
1733851134433805300,2.329805419921875,-0.31399405322372914,0.8419672494754195,-1.1105898368388414
1733851134443774200,2.339774169921875,0.4798854571700096,0.6653270724996924,-1.4169132093042134
1733851134453743000,2.3497431640625,1.1096031638890504,0.43148353757262226,-1.7615537452042103
1733851134463711000,2.3597109375,1.3666466648787259,0.24244623583853242,-1.9702789132267235
1733851134473680100,2.36968017578125,1.2052952424496413,0.12384499085545539,-2.081854205095768
1733851134483649000,2.37964892578125,0.6677718353033065,0.1765419772982597,-2.0493033501029014
1733851134493617200,2.3896171875,0.17369535569548605,0.1950648914605379,-1.8763678728640079
1733851134503586000,2.3995859375,-0.06616846243441105,0.26506694070845843,-1.549202787899971
1733851134513555000,2.409554931640625,-0.2613350607037544,0.515455952244997,-1.063957849523425
1733851134523523000,2.419523193359375,-0.5544312873274088,0.7962403943061828,-0.42926118534803387
1733851134533492000,2.429491943359375,-0.38662498967051506,0.9385194519966841,-0.02312836213111877
1733851134543460000,2.439460205078125,0.30643209353685374,1.0315727064862847,0.2615489957153797
1733851134553429200,2.44942919921875,0.6081418347269296,1.1504966075524687,0.5964800385057926
1733851134563398100,2.459398193359375,0.555229159706831,1.1834522439539432,1.0635124438434838
1733851134573366300,2.4693662109375,0.6831061825573443,1.1077090207055211,1.3254606680095196
1733851134583335200,2.479335205078125,0.503206711524725,1.059825279763341,1.3830787442415953
1733851134593304000,2.489303955078125,0.41948914839625356,0.9428931370362639,1.215334990426898
1733851134603272200,2.499272216796875,0.2539022803544998,0.8471013974934816,0.8002917155236006
1733851134613241000,2.509240966796875,0.043887657043337816,0.7326949738517403,0.1070394020050764
1733851134623210200,2.519210205078125,0.21612989132106303,0.5828425582975149,-0.9005454029113054
1733851134633178000,2.52917822265625,0.6973550726622343,0.41800796992778777,-1.8878812005251644
1733851134643147300,2.539147216796875,1.356655432218313,0.21042232732921837,-2.6014690305858847
1733851134653116200,2.5491162109375,1.7748223921000956,-0.11716390565633773,-3.0921622974961993
1733851134663084000,2.559083984375,1.578587872338295,-0.3477504846140742,-3.1993957607686516
1733851134673053000,2.569052978515625,1.0499831001847981,-0.45145518923848865,-2.7667355806320906
1733851134683022000,2.57902197265625,0.6319540874689817,-0.48930736550986764,-2.2042776387155056
1733851134692990000,2.588989990234375,0.7005991691499948,-0.5238151997894048,-1.9153817863911389
1733851134702959000,2.598958984375,1.078937391990423,-0.6294687003940344,-1.836406449353695
1733851134712927000,2.608927001953125,1.2541150951981543,-0.6797048496812582,-1.9084131164222955
1733851134722895600,2.6188955078125,1.075319201493263,-0.6496542870715261,-1.9500217226177452
1733851134732864500,2.628864501953125,0.9606716625720262,-0.618620558643341,-1.958748634430766
1733851134742832600,2.63883251953125,1.2286053908884524,-0.7261749244332313,-1.96898010558784
1733851134752801500,2.648801513671875,1.6943290517151355,-0.9473173832193016,-1.913652770641446
1733851134762770700,2.658770751953125,1.9776625937372445,-1.0379533474341034,-1.7826444640278816
1733851134772738800,2.66873876953125,1.6084113481938838,-0.8281380460873246,-1.4667553908377884
1733851134782707700,2.678707763671875,0.9361573990404606,-0.36115474058836694,-1.104557570937276
1733851134792676600,2.688676513671875,0.7259177348017692,-0.0020677461847662926,-0.9936083020120858
1733851134802644700,2.698644775390625,0.7158885082185268,0.13131401156187056,-1.060796755144
1733851134812613600,2.708613525390625,0.8874638030201196,0.02489917119592428,-1.215942893192172
1733851134822581500,2.71858154296875,1.2547101384818553,-0.3237462164312601,-1.2820260154306888
1733851134832550400,2.72855029296875,1.672160474526882,-0.6944102513819933,-1.1926251459687947
1733851134842519600,2.73851953125,1.9115712881922722,-0.8778121775776148,-1.0037433270573615
1733851134852487700,2.74848779296875,1.8608236822515725,-0.9490463989689946,-0.8178893315345048
1733851134862456600,2.75845654296875,1.4007564397513865,-0.9134832104176283,-0.6506704783767462
1733851134872425500,2.768425537109375,1.0022808532893657,-0.708474724830687,-0.5178694431275129
1733851134882393600,2.7783935546875,0.9734054719388484,-0.41389498165100813,-0.5084194777369498
1733851134892362500,2.788362548828125,0.9657961659789085,-0.160854871083796,-0.6147369952082634
1733851134902331600,2.79833154296875,0.9348644366204738,-0.04684504554420709,-0.8376683832377195
1733851134912299500,2.808299560546875,0.9246972628712653,-0.08756459394544362,-1.0709861407250165
1733851134922268700,2.8182685546875,0.7962012313395738,-0.19014789332449436,-1.0918144092202187
1733851134932237600,2.828237548828125,0.7643219919979571,-0.33775194543004033,-1.0055939233601092
1733851134942205700,2.838205810546875,1.0574088662713765,-0.48654170018881554,-0.9012649493575096
1733851134952174600,2.848174560546875,1.3055740642786025,-0.5622305629014969,-0.8376046703517437
1733851134962143700,2.858143798828125,1.4747656788140535,-0.5401832740053534,-0.8488573012501001
1733851134972111600,2.868111572265625,1.8156945007145404,-0.46515784363746643,-1.0173778846561907
1733851134982080800,2.878080810546875,2.1996412110865116,-0.33918986927866934,-1.3583002768158912
1733851134992048600,2.888048583984375,2.1927502825289964,-0.17156185079813002,-1.7215449754208325
1733851135002017800,2.898017822265625,1.5543307984381913,0.0768891784131527,-1.8940712873369454
1733851135011986700,2.907986572265625,0.7242325581938028,0.47057519251108165,-1.9058622628957032
1733851135021954600,2.91795458984375,0.20049334625005721,0.7854273238688707,-1.902867757254839
1733851135031923500,2.92792333984375,0.21561843466758726,0.8118021205753088,-1.8239993877232075
1733851135041892600,2.937892578125,0.5814619175940752,0.6576873714014887,-1.7296218988925218
1733851135051860500,2.947860595703125,1.0392121153235434,0.41452451172620053,-1.6694278346925973
1733851135061829600,2.95782958984375,1.4563222596287726,0.07472732420414686,-1.7093793213307857
1733851135071798500,2.967798583984375,1.8602128568768501,-0.2227341118916869,-1.8367267673492431
1733851135081766700,2.9777666015625,2.1561919454604386,-0.43034050501734017,-2.0260633442908524
1733851135091735600,2.987735595703125,2.2059622308015823,-0.5210609326452017,-2.119883199238777
1733851135101703700,2.99770361328125,1.8654682931870221,-0.4321937316685915,-2.1100094554781914
1733851135111672600,3.007672607421875,1.1938579026341438,-0.13051029396355152,-1.9774831455171107
1733851135121641700,3.017641845703125,0.3903741130709648,0.20262714340835808,-1.7122960855603218
1733851135131609600,3.027609619140625,-0.19150807576179504,0.39931788250505923,-1.3515654156029224
1733851135141578800,3.037578857421875,-0.3470072650313377,0.40621904019564387,-0.9850473944157362
1733851135151547600,3.047547607421875,-0.06414309408664703,0.19715572625994682,-0.8334510578036308
1733851135161515800,3.057515869140625,0.6249976924598216,-0.14507219554036854,-0.8871288719773291
1733851135171484700,3.067484619140625,1.4220365436673164,-0.46690644087046385,-1.003915761014819
1733851135181453800,3.077453857421875,1.8461539363861084,-0.6478714953079819,-1.2400345473974943
1733851135191421400,3.08742138671875,1.5661691202700136,-0.7140209607809782,-1.394548817282915
1733851135201390800,3.097390869140625,0.6564794569164514,-0.5777142554983496,-1.2615940527766942
1733851135211359700,3.10735986328125,-0.6940870107769965,-0.20712913100272415,-0.7493436185747384
1733851135221327600,3.11732763671875,-1.9192501522570848,0.2852086882442236,0.10835691434442997
1733851135231296500,3.127296630859375,-2.4516630845218894,0.5862719482243061,0.8714929114282131
1733851135241264600,3.1372646484375,-2.2995897780478,0.589804506264627,1.3564333139002323
1733851135251233500,3.147233642578125,-1.5990356170833109,0.5546878924369811,1.583619436764717
1733851135261202700,3.15720263671875,-0.5949608661144972,0.4526753786832094,1.397909818148613
1733851135271170600,3.167170654296875,0.43390696532726286,0.25991964094787834,0.7935270436942576
1733851135281139700,3.1771396484375,0.8556956228375434,0.03688713063150644,0.3109182990401983
1733851135291108600,3.187108642578125,0.5277379261910915,-0.04034136273860931,0.4153232608884573
1733851135301076700,3.19707666015625,-0.1844517275094986,0.07851853318065405,0.8654343420416116
1733851135311045600,3.207045654296875,-0.7813631431698799,0.3269333220347762,1.3286644324868917
1733851135321014500,3.2170146484375,-1.0462719707071781,0.47767830251455307,1.561120020186901
1733851135330982700,3.226982666015625,-1.1019938579291104,0.5391229512974619,1.6376567319005726
1733851135340951800,3.236951904296875,-0.9438386011928319,0.4816211949214339,1.3973749806195497
1733851135350920700,3.246920654296875,-0.7264420509368181,0.4440943050816655,1.0684931548655032
1733851135360888800,3.256888916015625,-0.6743208185553551,0.49833530609607696,0.8616185831457376
1733851135370857700,3.266857666015625,-0.7073381220161914,0.6172197519347071,0.781954094800353
1733851135380825600,3.27682568359375,-0.600004120978713,0.7381853879615664,0.8593944773554801
1733851135390794500,3.28679443359375,-0.505744705569744,0.8443369012162089,1.0673650276184081
1733851135400763400,3.296763427734375,-0.49326399418115613,0.9096464087337255,1.3193944998383522
1733851135410731500,3.3067314453125,-0.47700727138519283,0.9309142376899718,1.470757027694583
1733851135420700700,3.31670068359375,-0.2730558936357498,0.992196389387548,1.3548422453165054
1733851135430669600,3.326669677734375,0.028774843585491178,1.1136281816214322,1.097632155588269
1733851135440637700,3.3366376953125,0.22565818264484405,1.1773106724590063,0.8629916250646114
1733851135450606600,3.346606689453125,0.2710790406048298,1.1741180138975382,0.5294833085536956
1733851135460575500,3.356575439453125,0.34260464615821834,1.241817923682928,0.17773849360644817
1733851135470543600,3.366543701171875,0.4448480460584163,1.2317036491647362,-0.33152269565165043
1733851135480512500,3.376512451171875,0.3923988968968391,1.1479489688962696,-0.9607166707575321
1733851135490480600,3.386480712890625,-0.03712824591100216,0.941132264843583,-1.4649439575016499
1733851135500449500,3.396449462890625,-1.1923404838085174,0.4556479647532105,-1.510762874868512
1733851135510418700,3.406418701171875,-4.929394676280022,-0.5707584450110793,-0.39878830567300316
1733851135520386800,3.41638671875,-12.433796492677926,-2.086956788931787,2.02481772814393
1733851135530355700,3.426355712890625,-6.8535261708378785,-2.539110481828451,4.3502118095338345
1733851135540324600,3.43632470703125,0.6468196481674909,-1.6282644880466162,6.42640141299665
1733851135550292700,3.446292724609375,0.9798176770687103,-1.5044072222314775,7.485176891446113
1733851135560261600,3.45626171875,-0.17790040616989133,-1.847057022705674,6.981718835508823
1733851135570230800,3.466230712890625,-0.39154257232844825,-1.1778599769048392,5.87780774578154
1733851135580198400,3.476198486328125,-0.13566840737909078,-0.16586773080974818,3.904713190612197
1733851135590167600,3.48616748046875,-0.07414660170674324,0.43573505753725766,1.8724673582941294
1733851135600135700,3.4961357421875,-0.08584989898204803,0.7922941408984363,0.22876550101041793
1733851135610104600,3.5061044921875,0.11298925032019615,0.9663707509964704,-1.3691075020343064
1733851135620073500,3.516073486328125,0.5145563730567694,1.0959288588017224,-2.8235131143867966
1733851135630041600,3.52604150390625,1.2204630009651183,1.2589733488842845,-4.164865763533115
1733851135640010500,3.536010498046875,1.8546926321506498,1.3294022452421486,-5.008934661462903
1733851135649979600,3.545979736328125,1.9706161823570727,1.079612076381594,-4.680979302904009
1733851135659947500,3.555947509765625,1.5407763203382492,0.6067671853728592,-3.0923966907739637
1733851135669916700,3.565916748046875,0.8164274422883987,0.2098695157520473,-1.489458805555105
1733851135679885600,3.575885498046875,-0.025763386809825897,-0.16801628714576364,0.01300619656741619
1733851135689853700,3.585853759765625,-0.7250421210110187,-0.5825058736890554,1.327384329548478
1733851135699822600,3.595822509765625,-1.1810463518559933,-1.0479919263675808,2.208467491620779
1733851135709791700,3.605791748046875,-1.1747434523195028,-1.3364628312781452,2.5402847863048312
1733851135719759600,3.615759521484375,-0.8072486950546502,-1.3090199669487774,2.4121324536442756
1733851135729728800,3.625728759765625,-0.6258651229441166,-0.9507952884629368,2.0554840845644473
1733851135739696600,3.635696533203125,-0.525443093252182,-0.37972222454473376,1.6978613174945114
1733851135749665800,3.645665771484375,-0.43849896929264065,0.17702303881347178,1.5409206972450018
1733851135759634700,3.655634765625,-0.42878480000793934,0.6342839917212725,1.4449088852107523
1733851135769602800,3.665602783203125,-0.22773031274378297,1.00329850589931,1.3965326845765114
1733851135779571700,3.67557177734375,-0.03643266486227512,1.2539444148063659,1.3842682462871074
1733851135789540900,3.685540771484375,-0.02851590038836002,1.2642714552924037,1.1654267579197883
1733851135799508700,3.6955087890625,0.03871346927583218,1.0826149114593864,0.6999813295125961
1733851135809478000,3.705477783203125,0.036468320697546006,0.7677458289667963,0.11269406676590442
1733851135819446800,3.71544677734375,-0.14262275656163692,0.36997108425050973,-0.41307986587584017
1733851135829415000,3.725414794921875,-0.35235096414685246,-0.008155249404907226,-0.6387205128639936
1733851135839383800,3.7353837890625,-0.4986275670409202,-0.33793285495489833,-0.48001405198574065
1733851135849351700,3.7453515625,-0.5871136597454547,-0.5250947182059288,-0.12655308077037333
1733851135859320600,3.755320556640625,-0.6144108319938183,-0.636679654686153,0.309178761896491
1733851135869289700,3.765289794921875,-0.7452385213434696,-0.6564627980425953,0.6705196727067232
1733851135879257600,3.775257568359375,-0.9518260928153991,-0.6518000669285655,0.940697965079546
1733851135889226800,3.785226806640625,-1.0367688138246536,-0.5914592877343297,1.1495721861839294
1733851135899195600,3.795195556640625,-1.028117889857292,-0.4704115263819694,1.3555916023790835
1733851135909163800,3.805163818359375,-1.13148064917624,-0.30196985343098637,1.6807611296117304
1733851135919132700,3.815132568359375,-1.4054688552260397,-0.06264730257093906,2.109170666566491
1733851135929101800,3.825101806640625,-1.5928239029616116,0.24523089812099932,2.4999311486065388
1733851135939069700,3.835069580078125,-1.743760022099316,0.5212339511245488,2.758558119395375
1733851135949038800,3.845038818359375,-1.9608494061022996,0.7442781518787145,2.8301684806227683
1733851135959006700,3.8550068359375,-2.1624363928079604,0.7878098350912333,2.7195471284776924
1733851135968976000,3.864975830078125,-2.1639938513830304,0.636996465550363,2.386132919991016
1733851135978944800,3.87494482421875,-1.7905898700743912,0.38290246201604605,1.9697119269937275
1733851135988913000,3.884912841796875,-1.1007435656070708,0.06474748972058296,1.5802385621547699
1733851135998881800,3.8948818359375,-0.38924978521615267,-0.29965222413837905,1.1514485014498232
1733851136008850700,3.9048505859375,0.3018690234050154,-0.6227288707450032,0.7299415834903716
1733851136018818800,3.91481884765625,0.7998352039277553,-0.7847937021404504,0.3666033613830805
1733851136028788000,3.9247880859375,0.9017688072264194,-0.7643734299242496,0.006377133816480636
1733851136038756900,3.9347568359375,0.5433645343899727,-0.7204217677339911,-0.33421792608499523
1733851136048724700,3.944724853515625,-0.05980944879651069,-0.5107753932133317,-0.7153706218242645
1733851136058693600,3.954693603515625,-0.44944940237402914,-0.14692951384484768,-1.2047931381464003
1733851136068662500,3.96466259765625,-0.34690497370064255,0.27771014918237924,-1.656084368994832
1733851136078630700,3.974630615234375,0.1150695637255907,0.7119429854631424,-2.0765210273742674
1733851136088599800,3.984599853515625,0.5180757793545723,1.0511515594422816,-2.3371330345004795
1733851136098567700,3.994567626953125,0.745086545652151,1.2289219094917176,-2.568584998115897
1733851136108536800,4.004536865234375,0.8938029429137706,1.274916183425486,-2.7733330792009827
1733851136118505700,4.014505615234375,0.99093352984488,1.2614394467368721,-2.8302427149027585
1733851136128473900,4.024473876953125,0.7618693381488323,1.2138085115119814,-2.7444594514161347
1733851136138442800,4.03444287109375,0.4310591746807098,1.013660325437784,-2.4786896231353284
1733851136148411600,4.04441162109375,0.17435908030122518,0.7766603723064065,-2.0614982302874325
1733851136158379800,4.0543798828125,0.22759295009970665,0.5552651078030467,-1.55302789914608
1733851136168348700,4.0643486328125,0.5279191279768943,0.37186435065120454,-1.0178466712117193
1733851136178317800,4.07431787109375,0.7097457676798105,0.32799890543967486,-0.45259413014054295
1733851136188286000,4.084285888671875,0.44882922464907166,0.48875937623828647,0.2005716721832752
1733851136198254800,4.0942548828125,-0.01744593258053064,0.7437611422672867,0.6754518684118985
1733851136208223000,4.104222900390625,-0.339777898299694,1.0006325015604496,0.9987520946413277
1733851136218192000,4.11419189453125,-0.4532464565694332,1.1439385642111302,1.009701358678937
1733851136228160800,4.124160888671875,-0.7505968335062265,1.1905512623041867,0.8500918114811181
1733851136238128600,4.134128662109375,-0.9757342071473598,1.088411615039408,0.6495312452137469
1733851136248097500,4.14409765625,-0.7968915516912937,0.8049222979336976,0.3928320276170969
1733851136258066700,4.154066650390625,-0.41137160065323114,0.43617257217168803,0.18393910181224346
1733851136268034800,4.164034912109375,-0.010016951623558997,0.1497980550184846,0.04090308827459812
1733851136278003700,4.174003662109375,0.19308570034205913,-0.005461772537231445,0.17194763524532317
1733851136287972600,4.18397265625,0.031038404603302476,-0.06350508844405413,0.6455898141115903
1733851136297940700,4.193940673828125,-0.011736907283961772,-0.1152066341087222,0.9976444256603717
1733851136307909600,4.20390966796875,0.16637334224432707,-0.1684980793133378,0.9634469725042581
1733851136317877800,4.213877685546875,0.22362229290306568,-0.15437632271945476,0.8060346430897712
1733851136327846700,4.2238466796875,0.06614157442748546,-0.10401625479161739,0.5995575462549925
1733851136337815800,4.23381591796875,-0.1254740533620119,-0.05758417396247387,0.40696693595349787
1733851136347783700,4.24378369140625,-0.04056669592708349,-0.1238666181653738,0.03226794639825821
1733851136357752800,4.2537529296875,0.18913696271628141,-0.26734511477351186,-0.4777367547035217
1733851136367721700,4.2637216796875,0.48551089583635326,-0.42325259258300063,-0.9624778352111577
1733851136377689900,4.27368994140625,0.7455202608942985,-0.5590390733838081,-1.3037035942316055
1733851136387658800,4.28365869140625,0.6856804169595241,-0.5780071009650826,-1.4600754746824502
1733851136397628000,4.2936279296875,0.5572895993679762,-0.522511131453514,-1.4641840790450573
1733851136407595500,4.303595458984375,0.44830578529685733,-0.3414902551755309,-1.3741981031715869
1733851136417564700,4.313564697265625,0.3906616978406906,-0.11000146668106317,-1.2713514766812324
1733851136427532800,4.32353271484375,0.4904392921492457,0.09888882877528667,-1.217740882524848
1733851136437501700,4.333501708984375,0.6882108122199774,0.22181904287338255,-1.15594932000041
1733851136447470600,4.343470703125,0.9223270266085862,0.20153116486519573,-1.1664093392163515
1733851136457438700,4.353438720703125,1.0919120243757963,0.08932634292095899,-1.3067927924185991
1733851136467407600,4.36340771484375,1.197272387252748,-0.10164221913665532,-1.4884960980027913
1733851136477376800,4.373376708984375,1.2924801894277334,-0.3120990332573652,-1.760550705641508
1733851136487344600,4.3833447265625,1.3192206045761703,-0.48578562112450596,-2.0320166997373104
1733851136497313800,4.393313720703125,1.3598825775712728,-0.5290808652326464,-2.3810171844124794
1733851136507282700,4.40328271484375,1.480594531098008,-0.5059501650139689,-2.81369723829329
1733851136517250800,4.413250732421875,1.6933263044133782,-0.3906988149806857,-3.2108430374562738
1733851136527219700,4.4232197265625,1.8109411687076091,-0.27091069830060005,-3.355731985384226
1733851136537188900,4.43318896484375,1.7515601744562386,-0.15742431211322544,-3.3743455004394054
1733851136547156700,4.44315673828125,1.5793869137614964,-0.08672989668697119,-3.355819079145789
1733851136557126000,4.4531259765625,1.640222490735352,-0.12898030791729687,-3.2415532330185175
1733851136567093800,4.46309375,1.7852368186086416,-0.26511165663301944,-2.9365216539293524
1733851136577063000,4.47306298828125,1.9029478367537258,-0.4696469717502594,-2.658900059813261
1733851136587031800,4.48303173828125,1.9476132001712918,-0.7075158166706562,-2.387179798695445
1733851136596999700,4.492999755859375,2.0070488472193477,-0.8992121084809303,-2.099441299712658
1733851136606968600,4.502968505859375,1.9651906501770018,-0.9867416311129927,-1.8125515265136956
1733851136616937700,4.512937744140625,1.5222037218153477,-0.9163204796701669,-1.5458125609397888
1733851136626905600,4.522905517578125,0.8434981123045087,-0.7096385079130529,-1.40776251912117
1733851136636874800,4.532874755859375,0.24090923552960156,-0.4778022211551666,-1.4216051665127276
1733851136646843600,4.54284375,-0.15664485217332838,-0.3614619068413973,-1.5776935538470744
1733851136656811800,4.552811767578125,-0.2809937008976936,-0.38581776494085784,-1.7658832988411186
1733851136666780700,4.56278076171875,-0.16546207261830567,-0.518743887874484,-1.9620278022319078
1733851136676748800,4.572748779296875,0.12799188140183687,-0.7431468097612262,-2.0646593246668576
1733851136686717700,4.5827177734375,0.40231881788671014,-0.9441080657839774,-1.9744377864718436
1733851136696686800,4.592686767578125,0.6346753291264176,-1.0474763780608773,-1.5587152971327305
1733851136706654700,4.60265478515625,0.9925079395547508,-1.0302207073554397,-0.9673311204612255
1733851136716624000,4.612623779296875,1.2092562550351023,-0.8555883630707859,-0.38998423697054385
1733851136726592500,4.622592529296875,0.9754001528874039,-0.602682400277257,0.04320376643240451
1733851136736560600,4.632560546875,0.4889674660310149,-0.3091629798054695,0.33067046273648737
1733851136746529500,4.642529541015625,0.08917933566570281,0.040734161448478697,0.3984650650680065
1733851136756498700,4.652498779296875,-0.08573942434489727,0.3534881514832377,0.2567331198662519
1733851136766466600,4.662466552734375,-0.13857786508500575,0.5179968688994646,-0.07201543489694595
1733851136776435700,4.672435791015625,-0.08395546353757381,0.5893927105933428,-0.44814182690680027
1733851136786403600,4.682403564453125,0.10475976663529872,0.5853808446034788,-0.8157283541083336
1733851136796372700,4.692372802734375,0.34294951407313345,0.512080338332057,-1.0795143150955437
1733851136806341600,4.702341552734375,0.6713380033522844,0.4219993776515126,-1.2742232327252625
1733851136816309500,4.7123095703125,0.9844941444471478,0.3718213882923126,-1.330170745396614
1733851136826278400,4.7222783203125,1.178250875918567,0.3032750908106565,-1.2923743909657002
1733851136836247600,4.73224755859375,1.1977324059799312,0.23363895226567982,-1.145098840162158
1733851136846215400,4.74221533203125,0.801920778030157,0.25842443395406006,-0.7846259443581104
1733851136856184600,4.7521845703125,0.10827741936743258,0.42848932419270275,-0.15574468846321105
1733851136866152400,4.76215234375,-0.5146516501247883,0.6107362351343035,0.5580044696390628
1733851136876121600,4.77212158203125,-0.9120452865689992,0.6901902955994009,1.1498252841621637
1733851136886090500,4.782090576171875,-1.046395012564957,0.7344456169113517,1.4876175616025924
1733851136896058600,4.79205859375,-0.9436956855908035,0.6241700094640255,1.4221476028263569
1733851136906027500,4.802027587890625,-0.6035580140680075,0.4392863202780485,1.1523019034087658
1733851136915996700,4.81199658203125,-0.23943477906286714,0.26929391075372694,0.8432797933787107
1733851136925964500,4.821964599609375,-0.16183277620524167,0.09719020816385746,0.6584779372572899
1733851136935933700,4.83193359375,-0.23175883760750293,0.0070215691998600956,0.6435007328778505
1733851136945902600,4.841902587890625,-0.28406711699366566,0.015101999802887438,0.7479442731708288
1733851136955870700,4.85187060546875,-0.3261538620948791,0.05449439125359058,0.9292214622974395
1733851136965839600,4.861839599609375,-0.31696663929373026,0.11628215438574552,1.1810936981290578
1733851136975807500,4.871807373046875,-0.3008668606251478,0.17364537907391786,1.4113649275273084
1733851136985776400,4.8817763671875,-0.21537468903958795,0.23725246658772228,1.6910113054692744
1733851136995745500,4.89174560546875,-0.10877835462689399,0.2697416545212269,1.9012837029337881
1733851137005713400,4.90171337890625,0.036817572526633736,0.26413492055535315,1.8897399801343677
1733851137015682600,4.9116826171875,0.2062064631998539,0.23562720347344873,1.6954197695612907
1733851137025651500,4.9216513671875,0.27163725900948044,0.29884032323360443,1.406634391874075
1733851137035619600,4.93161962890625,0.19291297412365674,0.4046814553648233,1.156699261584878
1733851137045588500,4.94158837890625,-0.04582359354197979,0.5838941131770611,0.9773685303509235
1733851137055557400,4.951557373046875,-0.1732616404533386,0.8398784605026245,0.8023170838713646
1733851137065525500,4.961525390625,-0.029742227312922476,1.137992807549238,0.5818383496910333
1733851137075494400,4.971494384765625,0.21801146728396414,1.4342448678553104,0.2473965517222881
1733851137085462500,4.981462646484375,0.49252632755637166,1.6715309444516897,-0.17334288899600506
1733851137095431700,4.991431640625,0.7807073096096515,1.83564160246104,-0.6267956817924976
1733851137105400600,5.001400634765625,1.0196516748070716,1.9662568181037903,-1.0163128857731818
1733851137115368700,5.01136865234375,1.0744865500614047,1.990877172358334,-1.3936533297479152
1733851137125337600,5.021337646484375,0.9789683667629957,1.8858353739112614,-1.6872329559743404
1733851137135306500,5.031306396484375,0.9010308483406901,1.6732158287987111,-1.8342805432409046
1733851137145274600,5.041274658203125,0.8755413100361824,1.310681324289739,-1.8233038066744802
1733851137155243500,5.051243408203125,0.8403378947079181,0.8093708017751574,-1.5502578499108552
1733851137165212700,5.061212646484375,0.7884431645587087,0.2630237444430589,-1.1628232974231243
1733851137175180500,5.0711806640625,0.5317088756486773,-0.3394029275074601,-0.7394494165480137
1733851137185149400,5.0811494140625,-0.10753799917697907,-0.9944187416121363,-0.0014946224719285964
1733851137195117600,5.09111767578125,-1.7570307148218154,-1.7408736530080438,1.1663491334617138
1733851137205086500,5.10108642578125,-5.69149431605339,-3.040074967384338,2.754835299479961
1733851137215055400,5.111055419921875,-10.325936908710002,-4.314489631028473,5.367147795641422
1733851137225023500,5.1210234375,-8.287802018353343,-4.6334234787419435,7.941221454301476
1733851137234992400,5.130992431640625,-2.701884630537033,-3.9506785307124255,8.60280729444623
1733851137244961500,5.14096142578125,-0.4156517621904611,-2.84857273684144,7.792220979401469
1733851137254929700,5.1509296875,-0.1655459515094757,-1.3562234705418348,5.388438420951366
1733851137264898600,5.160898681640625,-1.0239467416524886,0.009756547121703624,2.6704981431484223
1733851137274867500,5.170867431640625,-1.1694219650357962,0.7140878885373473,0.47956455465257164
1733851137284835600,5.180835693359375,-0.5335398904681206,1.1154159418210388,-1.5644149700790644
1733851137294804500,5.190804443359375,0.15054039781838655,1.5038739921376107,-3.004205781623721
1733851137304772600,5.200772705078125,0.7271352938979864,1.8212202783986926,-3.891867737564444
1733851137314741500,5.210741455078125,1.2580571108222007,2.067920664550364,-4.27714891141057
1733851137324710700,5.220710693359375,1.6084326832428573,2.042791776251793,-4.246460343158245
1733851137334678500,5.230678466796875,1.6984844178289173,1.304702249880135,-3.7514509666144846
1733851137344647700,5.240647705078125,1.5221680659800767,-0.0014858546435832975,-2.87988674351573
1733851137354616600,5.250616455078125,1.327695879715681,-1.162706100784242,-2.0927987929582597
1733851137364584400,5.26058447265625,1.1347539717584847,-1.8209253871053457,-1.2297563144892454
1733851137374553300,5.27055322265625,0.8014218885973096,-1.8276728155389428,-0.2798211499869823
1733851137384522500,5.2805224609375,0.17053835296928882,-1.508261997963488,0.49911038212180137
1733851137394490400,5.290490478515625,-0.4655871749654412,-1.1818015541374682,1.2529273467183113
1733851137404459500,5.30045947265625,-0.8847516214519738,-0.8866229682818054,2.046422826230526
1733851137414427400,5.310427490234375,-0.9719640409588813,-0.5716714682027697,2.6540198865562674
1733851137424396500,5.320396484375,-0.8333399986445903,-0.16331979989260434,2.78184313339293
1733851137434365400,5.330365478515625,-0.7840256403774023,0.38856998625844713,2.278354097795486
1733851137444333600,5.34033349609375,-0.7877437841176986,1.0232119976371525,1.3783037849247455
1733851137454302500,5.350302490234375,-0.5872913543999195,1.5566116028517483,0.5372305616796016
1733851137464271600,5.360271728515625,-0.20939327654242515,1.8669792822718618,-0.07977554750442505
1733851137474239500,5.370239501953125,0.2688859144747257,1.880491090273857,-0.3891244052708149
1733851137484208600,5.380208740234375,0.6602259499683976,1.4860972201675176,-0.4296095603942871
1733851137494177500,5.390177490234375,0.7549421692341566,0.8200304352164268,-0.34779052436351776
1733851137504145700,5.400145751953125,0.5273088871240615,-0.01996405288130045,-0.3159720752984285
1733851137514114600,5.410114501953125,0.34460692589133973,-0.6790913939580321,-0.1413777249366045
1733851137524082400,5.42008251953125,0.3922995281755924,-0.9725085230991244,0.08465046006441115
1733851137534051600,5.430051513671875,0.1365063195079565,-1.21083650996387,-0.038278584989905357
1733851137544020700,5.440020751953125,-0.6715341104462742,-1.4821514051511884,-0.17269699230790136
1733851137553988400,5.44998828125,-1.2150602651387452,-1.416533562336862,0.199361711871624
1733851137563957500,5.45995751953125,-1.2086252636551855,-1.078471235783398,0.5685054053872823
1733851137573926400,5.469926513671875,-1.178976559844613,-0.7666556956425309,0.6599439181566238
1733851137583894500,5.47989453125,-1.2248153509557247,-0.4442278683334589,0.7357552382051944
1733851137593863400,5.489863525390625,-1.2260925312846898,-0.10475509046018124,1.05863343963027
1733851137603832600,5.49983251953125,-1.0809142450213431,0.21727643100768326,1.4319149636030197
1733851137613800400,5.509800537109375,-0.8299275598526,0.459653108741343,1.8013333824068307
1733851137623769600,5.51976953125,-0.5783014077365398,0.612156623326242,2.08619544917047
1733851137633737500,5.529737548828125,-0.4187023819327354,0.614883125680685,2.2459850291103125
1733851137643706600,5.53970654296875,-0.7428022341072559,0.45079234141558405,2.2746482290148733
1733851137653675500,5.549675537109375,-1.391587044867873,0.23573534002304075,2.095942351680994
1733851137663643600,5.5596435546875,-1.4915473022669552,0.018611176967620848,1.6864526192516087
1733851137673612500,5.569612548828125,-1.159651681649685,-0.1640349624246359,1.0898597680211066
1733851137683581700,5.579581787109375,-0.7263111180335283,-0.30849253319799896,0.6298901406764984
1733851137693549600,5.589549560546875,-0.33509003274440763,-0.49419630659520625,0.3434340827196836
1733851137703518700,5.599518798828125,-0.03790127611011267,-0.7334709266602992,0.2416290742367506
1733851137713487600,5.609487548828125,0.2011293060660362,-0.9573927870318293,0.24042379010021686
1733851137723455500,5.61945556640625,0.23700667513310908,-1.0129296730756758,0.23689386240839957
1733851137733424400,5.62942431640625,0.15990005457699297,-0.893983267916739,0.30134090787768364
1733851137743392500,5.639392578125,0.04185001373589039,-0.6534855357974767,0.3863870892614126
1733851137753361400,5.649361328125,-0.025642390778660772,-0.38695816714763637,0.47435354200601576
1733851137763330600,5.65933056640625,-0.05438099400699138,-0.0951294762417674,0.47756139813661574
1733851137773298200,5.669298095703125,-0.12272680048048495,0.19954905113726853,0.3643570437610149
1733851137783267300,5.679267333984375,-0.2147849064528942,0.4597814112961292,0.1750011775970459
1733851137793236200,5.689236328125,-0.281278363057971,0.6087161274835466,-0.0163040690690279
1733851137803204400,5.699204345703125,-0.34153584788292646,0.6724740216448902,-0.27263386883139606
1733851137813173200,5.70917333984375,-0.34669249999374147,0.6809224087774753,-0.5538391666531562
1733851137823141400,5.719141357421875,-0.19886720635294913,0.6444762999117374,-0.8952484655469656
1733851137833110300,5.7291103515625,0.07568506332039833,0.5695753727063536,-1.234753392124176
1733851137843079400,5.739079345703125,0.3028925212338567,0.46241000623404976,-1.4148060078918934
1733851137853047300,5.74904736328125,0.5102645210817456,0.37391923735439775,-1.4355857610702514
1733851137863016400,5.759016357421875,0.5625391904592514,0.2466214756965637,-1.3962556212008
1733851137872985300,5.7689853515625,0.5023989022731781,0.15244827726632357,-1.1996002456784247
1733851137882953500,5.778953369140625,0.3790069158822298,0.08050590760558843,-0.9895663331449032
1733851137892922400,5.78892236328125,0.18856851517856119,0.042431320755183695,-0.8680570917606353
1733851137902891500,5.7988916015625,0.06971154186874627,0.058147068542242046,-0.8245096264570951
1733851137912859400,5.808859375,0.04671791203320026,0.1249731181025505,-0.7512403921067714
1733851137922828500,5.81882861328125,-0.10025982486754655,0.2066904473245144,-0.5564128165334463
1733851137932796400,5.82879638671875,-0.11789134314805269,0.2774500369414687,-0.35046529653072356
1733851137942765600,5.838765625,0.002116553762555122,0.3707598965406418,-0.15291852512657642
1733851137952734500,5.848734375,0.045187049204111096,0.44650107396245,0.07105857256352902
1733851137962702300,5.858702392578125,0.01241495267599821,0.5169225176662207,0.2676303614556789
1733851137972671200,5.868671142578125,-0.1566489438265562,0.5404205898925661,0.320906024569273
1733851137982640400,5.878640380859375,-0.352372299195826,0.5155711030572653,0.21253274361193178
1733851137992608300,5.888608154296875,-0.4048056662663817,0.4158718346819281,-0.019948563051223753
1733851138002577400,5.898577392578125,-0.3256993963256478,0.2970803278237581,-0.26296646129786966
1733851138012546300,5.90854638671875,-0.03679185356348753,0.26493074710816145,-0.3748760996878147
1733851138022514400,5.918514404296875,0.18769816208481788,0.245334066234529,-0.3153951521933079
1733851138032483300,5.9284833984375,0.37480361897349357,0.2265098310381174,-0.1228121406763792
1733851138042451500,5.938451416015625,0.5241255809128285,0.28416823928058144,0.19337386963367462
1733851138052420400,5.94842041015625,0.4500353855684399,0.36013591893464325,0.5098690920233726
1733851138062389200,5.95838916015625,0.2048576789394021,0.5237734064742923,0.8308978661894798
1733851138072357400,5.968357421875,-0.01793663870692253,0.6729433927223086,0.9664566757142543
1733851138082326500,5.978326416015625,-0.17687632381916046,0.8143038742631673,0.8944768966525792
1733851138092295400,5.98829541015625,-0.24246669410467148,0.9829229496076702,0.7529349210649728
1733851138102263600,5.998263671875,-0.29938188276439903,1.0653414128363132,0.4770879354059696
1733851138112232400,6.008232421875,-0.3544616726905107,1.032723045565188,0.20679098508954047
1733851138122201300,6.018201416015625,-0.18027999478280543,0.9136500914171337,0.026319851648807523
1733851138132169500,6.02816943359375,0.04798179448917508,0.7624103131577372,-0.09818038824498652
1733851138142138400,6.038138427734375,0.1619733537197113,0.6439426314264536,-0.1322235276222229
1733851138152106200,6.048106201171875,0.05551876586526632,0.5584978061139583,-0.14284312131404875
1733851138162075400,6.058075439453125,-0.19858166740983724,0.4759007714480161,-0.20208499935567378
1733851138172044300,6.068044189453125,-0.391000428275764,0.4063900128483772,-0.41368776864111423
1733851138182012400,6.078012451171875,-0.43574440988749263,0.31792993136793374,-0.7137327914893626
1733851138191981300,6.087981201171875,-0.1959694390848279,0.2109524886831641,-1.0085253006368875
1733851138201950200,6.0979501953125,0.18380933795273302,0.0997545056939125,-1.234770343258977
1733851138211918300,6.10791845703125,0.5499877519220113,0.0043611178189516065,-1.4037334097355603
1733851138221887200,6.11788720703125,0.81396309800148,-0.11354542289823293,-1.5023995356708764
1733851138231855400,6.12785546875,0.9343637936219572,-0.23915800794810055,-1.4868717116713523
1733851138241824500,6.137824462890625,0.9777075530469417,-0.3857847394540906,-1.4294173015683889
1733851138251793400,6.14779345703125,0.9816752876341343,-0.53539662425071,-1.297251641613245
1733851138261761500,6.157761474609375,1.030954866848886,-0.7784615765094757,-1.1724386825084685
1733851138271730400,6.16773046875,1.2730220402419565,-1.1877315287083388,-1.0698866550505162
1733851138281699300,6.17769921875,1.622654393079877,-1.6789505730584262,-0.9673696989059448
1733851138291667500,6.18766748046875,1.854120092959702,-2.287408926388621,-0.8873778783023357
1733851138301636400,6.19763623046875,1.8410472608968615,-2.9407515465840697,-0.783960758447647
1733851138311605500,6.20760546875,1.698425673379004,-3.5019811157494782,-0.7777221563190221
1733851138321573400,6.217573486328125,1.5056483083337544,-3.6795538974002002,-1.4205793305963277
1733851138331542500,6.22754248046875,1.0889274556070565,-2.917200867387652,-2.278628823083639
1733851138341510400,6.237510498046875,0.5645961229890585,-1.5813766262739897,-3.0787288154274224
1733851138351479300,6.247479248046875,0.39551936700493096,-0.5724143955245614,-3.7055414483547207
1733851138361448200,6.2574482421875,0.626994419234991,0.0014975450813770293,-3.9676346339493986
1733851138371416300,6.267416259765625,1.033659157371521,0.40258828247785566,-3.603703706645965
1733851138381385200,6.27738525390625,1.3630343196004628,0.675742083530128,-2.9075305372446776
1733851138391354400,6.287354248046875,1.4959914221942423,0.6119853584125637,-2.223182245671749
1733851138401322200,6.297322265625,1.462834418001771,0.007723872250318527,-1.5647066465020179
1733851138411291400,6.30729150390625,1.1525669840857387,-0.8679805193930864,-0.8903378971517085
1733851138421260300,6.31726025390625,0.6175958917707205,-1.6037012708067893,-0.22467267873883245
1733851138431228400,6.327228515625,0.0744575673520565,-2.035664993111789,0.36744448838233945
1733851138441197300,6.337197265625,-0.3770098968461156,-2.0238605735495687,0.907293708127737
1733851138451165400,6.34716552734375,-0.7652756394609809,-1.6700237547591328,1.4584633633106947
1733851138461134300,6.35713427734375,-0.9460331886276602,-1.2659405575484037,1.9150801730960607
1733851138471103500,6.367103515625,-0.9519669625908136,-0.9898378435626626,2.1575480362445116
1733851138481071400,6.3770712890625,-0.8438993865817784,-0.911536460264027,2.1273235783725974
1733851138491040500,6.38704052734375,-0.5470087361112237,-0.981808266364038,1.931338649457693
1733851138501009400,6.397009521484375,-0.12809095786213873,-0.9183519854977726,1.7644342690765857
1733851138510977300,6.406977294921875,0.2464128013819456,-0.7506979557931422,1.4071493556588888
1733851138520946200,6.4169462890625,0.46101153761297464,-0.5524906746536493,0.7404051098376512
1733851138530914300,6.426914306640625,0.5316776037275791,-0.400426136007905,-0.08720306715667248
1733851138540883200,6.43688330078125,0.464809760852158,-0.29362960284799333,-1.0160860912799834
1733851138550852400,6.446852294921875,0.4739449612051248,-0.16774959903359413,-1.8881915816485881
1733851138560820200,6.4568203125,0.7693594016432762,-0.06254208863079548,-2.576733233258128
1733851138570789400,6.466789306640625,1.2724892485395074,-0.0017880524605512619,-3.0199329275876283
1733851138580758300,6.47675830078125,1.7276292637705801,0.10155600215792655,-3.2218525072485207
1733851138590726400,6.486726318359375,1.9257213940978049,0.28147856180518865,-3.1404952435106037
1733851138600695300,6.4966953125,1.627198758511245,0.589381020155549,-2.8419804989695545
1733851138610664400,6.50666455078125,1.160863980048895,0.888970115929842,-2.4002462010174987
1733851138620632300,6.51663232421875,0.8706769188702106,1.027933180940151,-1.8601918140888214
1733851138630601500,6.5266015625,0.8978162702083587,0.9556704932838678,-1.3187304829716682
1733851138640569300,6.5365693359375,1.0511404535263775,0.6837687381193042,-0.9002677550137043
1733851138650538500,6.54653857421875,1.076600765736401,0.2960471853837371,-0.6711714146137238
1733851138660507400,6.55650732421875,0.9619014966279268,-0.058596273614466184,-0.5936059443742037
1733851138670475500,6.5664755859375,0.7528025268569588,-0.3111246352672577,-0.5895902789920568
1733851138680444400,6.5764443359375,0.6334557242035865,-0.447993066085875,-0.6549287203431129
1733851138690413600,6.58641357421875,0.5377955020859837,-0.40231005005836484,-0.9265425984770059
1733851138700381200,6.596381103515625,0.24735680423378942,-0.14776450336426494,-1.3057985206842422
1733851138710350300,6.606350341796875,-0.009989479094743728,0.16568477545827626,-1.6139216360479591
1733851138720319700,6.61631982421875,-0.08117489290833473,0.38420916070044037,-1.6776070494949817
1733851138730287600,6.62628759765625,0.037809213912487025,0.5361497807055712,-1.6360697549700736
1733851138740256500,6.636256591796875,0.3179632491156459,0.6269613937482238,-1.5997276910007
1733851138750224600,6.646224609375,0.5886795938879251,0.6279115340799093,-1.5882786607474089
1733851138760193500,6.656193603515625,0.7302940501898527,0.5434039896175265,-1.5476146419256924
1733851138770162700,6.66616259765625,0.665723086079955,0.4229197073668241,-1.5240654240339992
1733851138780130600,6.676130615234375,0.6005231764167547,0.3904249664753675,-1.3739894288569687
1733851138790099700,6.686099609375,0.5314493479296565,0.5532575673729181,-1.063469189223647
1733851138800068600,6.696068603515625,0.3300602218836546,0.7921119161993264,-0.667383128246665
1733851138810036700,6.70603662109375,-0.09339549205601215,1.0479369813099504,-0.25114742868840695
1733851138820005600,6.716005615234375,-0.578336479049921,1.27639122441411,0.2591653154492378
1733851138829974500,6.725974609375,-0.8186948026984929,1.405095637999475,0.8272539567291736
1733851138839942700,6.735942626953125,-0.800333801099658,1.3855845895826815,1.2883651553243398
1733851138849911800,6.745911865234375,-0.714509913341701,1.1981009470313786,1.5872937413632868
1733851138859879700,6.755879638671875,-0.533128679318726,0.9311498000115156,1.7152338925778865
1733851138869848800,6.765848876953125,-0.5089046309053897,0.6920154651999473,1.598761476317048
1733851138879817700,6.775817626953125,-0.5844172602683305,0.5116077523842454,1.1140262410283088
1733851138889785900,6.785785888671875,-0.5337263529509305,0.4328095254793763,0.4378256000757217
1733851138899754800,6.795754638671875,-0.4038116867929697,0.4994029353275895,-0.040913609668612475
1733851138909723600,6.8057236328125,-0.5632599059492349,0.6966945629268885,-0.20822481728494166
1733851138919691500,6.81569140625,-0.6673620854586363,0.8992629618853331,-0.11146832436323165
1733851138929660700,6.82566064453125,-0.4764703880295157,1.0292691057190297,0.06876490866839885
1733851138939628500,6.835628662109375,-0.23418255762308834,1.0541960417047143,0.13991115951538086
1733851138949597700,6.84559765625,-0.054506666213274,0.9118819127008319,0.1853226651251316
1733851138959566600,6.855566650390625,-0.11324907030016183,0.6478773405268788,0.21693010178804395
1733851138969534700,6.86553466796875,-0.35229660361111165,0.4180716828137636,0.18404373123049736
1733851138979503600,6.875503662109375,-0.6145800510808825,0.3412406643286347,0.05732756885290145
1733851138989472500,6.885472412109375,-0.661530602826178,0.3902124927684664,-0.07914660195112228
1733851138999440600,6.895440673828125,-0.3993210973754525,0.324374869723618,0.02754384048581123
1733851139009409800,6.905409912109375,-0.20671061332970855,0.10192015929520129,0.12360241427123546
1733851139019378700,6.915378662109375,-0.3590782265752554,-0.1483466871663928,0.05115735578536987
1733851139029346800,6.925346923828125,-0.838417155778408,-0.412904801569879,-0.07362871531248093
1733851139039315700,6.935315673828125,-1.7189064436107873,-0.8367708498761057,0.25420155556201934
1733851139049283800,6.945283935546875,-3.828448866099119,-1.558672919295728,1.50151632309556
1733851139059252700,6.955252685546875,-6.633852907821535,-2.9328911884725093,3.7533553389310836
1733851139069221600,6.9652216796875,-5.298896097192168,-3.822932148504257,6.863548967680335
1733851139079189800,6.975189697265625,-0.512020717099309,-3.286274418276548,9.343914415073394
1733851139089158700,6.98515869140625,1.372386669835448,-2.1105296799600124,9.552892096552252
1733851139099127800,6.9951279296875,-0.052876434662938114,-0.7488955825462937,6.757171244454383
1733851139109095700,7.005095703125,-1.631317007485032,0.6970639807611704,3.2214410038381813
1733851139119064600,7.015064697265625,-2.028055394890904,1.753325430563092,1.3361363758027553
1733851139129032700,7.02503271484375,-1.4552183900400995,2.4728631089389324,-0.1961889270544052
1733851139139001600,7.035001708984375,-0.3991773049905896,2.8547543480858204,-1.929686206075549
1733851139148970500,7.044970458984375,0.633352263829112,3.0082576873630282,-3.436850179669261
1733851139158938600,7.054938720703125,1.279177932523191,3.1215614104598757,-4.49358275411427
1733851139168907500,7.064907470703125,1.5063599637344478,3.0841555166512724,-5.054695711162686
1733851139178876700,7.074876708984375,1.4218635251879692,2.524003513589501,-4.582694869762658
1733851139188844800,7.0848447265625,1.10594873303473,1.3754600859314203,-2.7780788124233484
1733851139198813700,7.094813720703125,0.6893149740695953,0.258721078813076,-1.1130512585163115
1733851139208782600,7.104782470703125,0.1326928986996412,-0.5179743648067117,-0.1578162340402603
1733851139218750700,7.114750732421875,-0.5208002358824014,-0.8798650184541941,0.34821313368976115
1733851139228719600,7.1247197265625,-0.8726187005877495,-0.8811915908828377,0.694246585252881
1733851139238687700,7.134687744140625,-0.8598977507025003,-0.7338590491950512,0.9638210665136575
1733851139248656600,7.14465673828125,-0.8441527768209576,-0.663073156093061,1.1927326979964972
1733851139258625800,7.154625732421875,-0.7121849775254726,-0.6430863068580627,1.6270231096833943
1733851139268593700,7.16459375,-0.2813952674359083,-0.6827239052414894,1.8662801940917968
1733851139278562800,7.174562744140625,-0.005754618003964424,-0.6548778669387102,1.7511860804468393
1733851139288531700,7.18453173828125,-0.04139291761815548,-0.41964580026268955,1.6525100176393985
1733851139298499600,7.19449951171875,-0.10194120208323001,-0.10887041682451963,1.6746622282147408
1733851139308468500,7.204468505859375,-0.10360329007655382,0.1613300873801112,1.6263380500286817
1733851139318437600,7.214437744140625,-0.0748652713701129,0.4041343428760767,1.4552484929174183
1733851139328405500,7.224405517578125,0.037810675217211244,0.6316004517257213,1.3832809888154267
1733851139338374700,7.234374755859375,-0.02083440597504377,0.8094593568414449,1.2450544213861225
1733851139348342800,7.2443427734375,-0.12683745066970586,0.8959949000000953,0.946190132755041
1733851139358311700,7.254311767578125,-0.14093115021288394,0.9172948776602744,0.6208972714036702
1733851139368280600,7.264280517578125,0.008101181130111218,0.819849233430624,0.2794382881492376
1733851139378248700,7.274248779296875,0.023652093744277954,0.547545034945011,0.0858469763725996
1733851139388217600,7.284217529296875,-0.1816319939136505,0.1503928060412407,0.04484335033297539
1733851139398186800,7.294186767578125,-0.37181115915924307,-0.24396423918604848,0.23032266732454298
1733851139408154600,7.304154541015625,-0.389948581135273,-0.32097119875997304,0.5934183128476143
1733851139418123800,7.314123779296875,-0.284120600746572,-0.06931260567903519,0.8590040167331695
1733851139428091600,7.324091552734375,-0.2619239665076136,0.27055647803544997,0.9145780199170112
1733851139438060800,7.334060791015625,-0.37204876730740066,0.6927505014762282,0.8313117076873778
1733851139448029700,7.34402978515625,-0.6462389256700873,0.959429845817387,0.5478220983207226
1733851139457997600,7.35399755859375,-0.8638441502407193,1.0640896592095495,0.30636487351953984
1733851139467966500,7.363966552734375,-1.019555813217163,1.0271469989985227,0.15690437989234923
1733851139477935600,7.373935546875,-0.9997150944545864,0.8720286257401109,0.023100889602303505
1733851139487903500,7.383903564453125,-0.34638737956732507,0.6762392193973064,-0.09655132573843002
1733851139497872600,7.39387255859375,0.3859881530717015,0.4693608482852578,-0.11189268725514412
1733851139507841500,7.403841552734375,0.5564049254879355,0.18166648070514202,-0.11225684439241886
1733851139517809700,7.4138095703125,0.4871487261712551,-0.059680853980779644,-0.12020868017971514
1733851139527778600,7.423778564453125,0.3702598380640149,-0.22176526685953138,-0.18284136970341205
1733851139537746700,7.43374658203125,0.2774433149397373,-0.31497838808596135,-0.27086042941808697
1733851139547715600,7.443715576171875,0.30444764172136785,-0.38700171402841804,-0.3266647342264652
1733851139557684700,7.453684814453125,0.30661008045226334,-0.46518297807872294,-0.4215747224986553
1733851139567652600,7.463652587890625,0.14544833537638185,-0.5612266465559601,-0.5871048919171095
1733851139577621800,7.473621826171875,-0.1717418835401535,-0.6611620617747307,-0.7390121941745281
1733851139587590700,7.483590576171875,-0.3144926503956318,-0.685531363877654,-0.7469353883892297
1733851139597558800,7.493558837890625,-0.0296060337126255,-0.6616632892951368,-0.6393640714645386
1733851139607527700,7.503527587890625,0.15406155768185853,-0.6569032352864742,-0.5328577534228564
1733851139617495800,7.513495849609375,0.041655367946624756,-0.61783905287683,-0.3930757732450962
1733851139627464700,7.523464599609375,-0.05751724620610475,-0.5323331450268626,-0.26036124723553655
1733851139637433900,7.533433837890625,-0.234407014028728,-0.4675073293730616,-0.12498480854034423
1733851139647401500,7.5434013671875,-0.3890916720449924,-0.2849541289612651,0.14767185664474963
1733851139657370600,7.55337060546875,-0.3615338030338287,-0.14491875854432582,0.6289443842589855
1733851139667339500,7.563339599609375,-0.2171411141902208,-0.11891571775972842,1.1442910309106111
1733851139677307600,7.5733076171875,-0.07098404602259398,-0.15420739589333532,1.543213776618242
1733851139687276500,7.583276611328125,-0.019516016852855683,-0.27141221808195115,1.7389216421574354
1733851139697245700,7.59324560546875,-0.09003156858086585,-0.5585629803046583,1.6817127312481401
1733851139707213600,7.603213623046875,0.042103111714124675,-0.9849109085544944,1.373388540354371
1733851139717182700,7.6131826171875,0.34334289730489254,-1.4669342545360327,0.9327239174604416
1733851139727150300,7.623150390625,0.45626785021722316,-1.8586282180339098,0.3633136721879244
1733851139737119500,7.633119384765625,0.3743044372797012,-2.110068199928105,-0.24667466718852518
1733851139747088400,7.64308837890625,0.3244771610543132,-2.2298113084226845,-0.8339040622681378
1733851139757056500,7.653056396484375,0.33378801023513077,-2.2834937987715005,-1.3671107752591372
1733851139767025400,7.663025390625,0.3041667789533734,-2.235971000096202,-1.7674048093199728
1733851139776994600,7.67299462890625,0.24498393762260673,-1.9719611672252415,-1.9299720372796056
1733851139786962400,7.68296240234375,0.22807839552909134,-1.5709180683627724,-1.8970307216644287
1733851139796931600,7.692931640625,0.20525369251966474,-1.052362981058657,-1.5732488493978976
1733851139806899500,7.7028994140625,0.16035159773677587,-0.5764686393514276,-1.0514286228179932
1733851139816868600,7.71286865234375,0.19769465544223785,-0.2089054930254817,-0.5019920750379562
1733851139826837500,7.72283740234375,0.21179273889958858,0.08875234242528676,-0.10192892712354659
1733851139836805600,7.7328056640625,0.14194441890865564,0.38517595990598197,0.1928127286195755
1733851139846774500,7.7427744140625,-0.07325520582497119,0.6501447009369731,0.4272124361246824
1733851139856743700,7.75274365234375,-0.445807246479392,0.894108063340187,0.6105190852522849
1733851139866711600,7.762711669921875,-0.8802274220257997,1.1051461844801902,0.7655991723269223
1733851139876680700,7.7726806640625,-1.22041784664914,1.24414548984766,0.890480520492792
1733851139886649600,7.782649658203125,-1.221686989802122,1.279895725403726,0.813666745403409
1733851139896617500,7.792617431640625,-0.8374427577883005,1.2181003634870051,0.6209954710811376
1733851139906586400,7.80258642578125,-0.33308775301128624,1.0375263541936874,0.40802316700816155
1733851139916554500,7.812554443359375,0.029429654232412575,0.7957008806020021,0.27830723829269405
1733851139926523400,7.8225234375,0.22628215976208446,0.4420657218635082,0.20764204896092414
1733851139936492500,7.832492431640625,0.42745910436213014,0.1021443234398961,0.12090893740355968
1733851139946460400,7.84246044921875,0.6261129602253437,-0.11855682131946087,0.09737024090588092
1733851139956429600,7.8524296875,0.73781509334445,-0.1829354777276516,0.05170213018655777
1733851139966398500,7.8623984375,0.6691672351844609,-0.17362112141549585,0.0031599253356456754
1733851139976366600,7.87236669921875,0.5144401993311941,-0.11618044757694006,-0.15559271277189254
1733851139986335500,7.88233544921875,0.26062033656314015,-0.03208119165450334,-0.35240649372637267
1733851139996303600,7.8923037109375,-0.07809738515913486,0.14380582886636256,-0.5288935259670019
1733851140006272500,7.9022724609375,-0.2325660623371601,0.3430284245282411,-0.6749094320982694
1733851140016241700,7.91224169921875,-0.3052893532425165,0.5185223540782928,-0.7655074023902416
1733851140026209500,7.92220947265625,-0.19437953954488038,0.6109750123262405,-0.8738099561989306
1733851140036178700,7.9321787109375,0.23741481754258273,0.5741878349378705,-1.0241332041352986
1733851140046147600,7.942147705078125,0.5833586911261082,0.4279159082189202,-1.2141945882201195
1733851140056115500,7.952115478515625,0.6471786907382309,0.23570757523328065,-1.3784265345215796
1733851140066084400,7.96208447265625,0.6272500014312565,0.027209493964910507,-1.4705132820665836
1733851140076053500,7.972053466796875,0.5293196424245834,-0.09310644598156213,-1.481066240262985
1733851140086021400,7.982021484375,0.4627744556322694,-0.1873223145097494,-1.530074893581867
1733851140095990500,7.991990478515625,0.3720103349931538,-0.291886558572948,-1.6101590686440468
1733851140105958400,8.00195849609375,0.15265139862298965,-0.4158811870321631,-1.7677432474941015
1733851140115927600,8.011927490234376,0.39920448525846003,-0.5132812385544181,-2.009514360550046
1733851140125896400,8.021896484375,0.8994356881037354,-0.5678334974750876,-2.185149159875512
1733851140135864600,8.031864501953125,1.1800734151706098,-0.47276627281457184,-2.134043826538324
1733851140145833500,8.04183349609375,1.078070253767073,-0.26982787149995563,-1.8781249456644058
1733851140155802400,8.05180224609375,0.7936293350249528,-0.05100830270349979,-1.5062082803040742
1733851140165770500,8.0617705078125,0.5857002858161926,0.0805617294460535,-1.150264844623208
1733851140175739600,8.07173974609375,0.5258785620599985,0.15079232675284146,-0.9300292715489864
1733851140185707500,8.08170751953125,0.4773416179060936,0.1917056441605091,-0.7615572034597397
1733851140195676700,8.0916767578125,0.37847134770080443,0.17911153552532194,-0.6408452499330043
1733851140205645600,8.1016455078125,0.19941943340823054,0.14285598079562187,-0.5490940179526805
1733851140215613700,8.11161376953125,0.04439560656547546,0.14293810612112282,-0.486216413757205
1733851140225582600,8.12158251953125,0.00842997469305992,0.15369184758663176,-0.43865737472474575
1733851140235551500,8.131551513671875,0.0492173276335001,0.14403788405656814,-0.4486398395568132
1733851140245519400,8.141519287109375,0.1198445230424404,0.08813362600505352,-0.5793278281748294
1733851140255488500,8.151488525390626,0.16733210427388548,0.049371933673322196,-0.7506932796180248
1733851140265457400,8.16145751953125,0.1447147604048252,0.014654840557277202,-0.9814847334980964
1733851140275425500,8.171425537109375,0.22092004820704458,0.0226674666211009,-1.2689748106777667
1733851140285394400,8.18139453125,0.3702396720588207,0.07343202369660139,-1.5972802978485823
1733851140295362600,8.191362548828126,0.5497732323884964,0.1487362710058689,-1.9190975920438766
1733851140305331500,8.20133154296875,0.7032803710579871,0.26053572701960803,-2.228319024038315
1733851140315300400,8.21130029296875,0.8006652250111103,0.39914807889610526,-2.429069559919834
1733851140325268500,8.2212685546875,0.8663311447508633,0.49617462093085046,-2.5668396157532927
1733851140335237400,8.2312373046875,0.9654606504142283,0.5481564448416233,-2.679309810635447
1733851140345206500,8.24120654296875,1.141066515906155,0.513945255421102,-2.7467887711465355
1733851140355174700,8.251174560546875,1.2742600576043128,0.45456513795256615,-2.7100357882887125
1733851140365143600,8.2611435546875,1.3237592709191144,0.3328510216459632,-2.5922411835134027
1733851140375111700,8.271111572265625,1.3124889582335948,0.12667524584531784,-2.3963415947943925
1733851140385080600,8.28108056640625,1.2765303406238555,-0.08692366569340229,-2.176137001380324
1733851140395049500,8.291049560546876,1.1690724209457635,-0.2376712765216827,-1.9670055906444788
1733851140405017600,8.301017578125,1.0598860700398682,-0.2696475464969873,-1.7077321386456488
1733851140414986500,8.310986572265625,1.0106342556148766,-0.22135259440541266,-1.4335598082005976
1733851140424955600,8.32095556640625,0.9731332308687269,-0.18241203837543724,-1.1682616890847681
1733851140434923500,8.330923583984376,0.8889689468860625,-0.12363690106272697,-0.87284140342772
1733851140444892400,8.340892333984375,0.7275859602749347,-0.04248246642053127,-0.5996189210534095
1733851140454861300,8.350861328125,0.6014644027896225,-0.0020899580165743828,-0.42375089749395844
1733851140464829400,8.360829345703126,0.5132509895466267,-0.0364946241825819,-0.28600772966742516
1733851140474798300,8.37079833984375,0.4639952295988798,-0.10165274053066968,-0.07423720259964466
1733851140484766500,8.380766357421875,0.47263212504088875,-0.14437836805731058,0.29544951175153256
1733851140494735400,8.3907353515625,0.3863286370724439,-0.11965835282057523,0.7547656436234712
1733851140504704500,8.40070458984375,0.13564064258933067,-0.06021393794417381,1.1504185738801955
1733851140514672600,8.410672607421875,-0.07281506084203719,0.013537234704196452,1.4588608381956816
1733851140524641500,8.4206416015625,-0.2850209105871618,0.06649374886602163,1.6276882955938576
1733851140534610400,8.4306103515625,-0.5815133555203675,0.09994798243939876,1.7242904747366905
1733851140544578600,8.44057861328125,-1.0197931291043758,0.06384498792290687,1.8062644090682267
1733851140554547500,8.45054736328125,-1.3974012841045855,-0.032978140494227405,1.8617483958810568
1733851140564515600,8.460515625,-1.5465326919078826,-0.22185966714471578,1.8862030381798742
1733851140574484500,8.470484375,-1.477478444904089,-0.45439796469211574,1.8544488865226507
1733851140584453600,8.48045361328125,-1.3144903611838816,-0.6861380975991487,1.7619330999106169
1733851140594421500,8.49042138671875,-1.3259417295247315,-0.9706392220959067,1.619707233712077
1733851140604390400,8.500390380859375,-1.1431751786231994,-1.317410048022866,1.5451263322412967
1733851140614359600,8.510359619140624,-0.793947899454832,-1.5860408186927437,1.5286352161675691
1733851140624327400,8.520327392578125,-0.5868938795149325,-1.676094014583528,1.3890689245671033
1733851140634296300,8.53029638671875,-0.5489839817069471,-1.4367504209354518,1.1564344731688498
1733851140644264400,8.540264404296876,-0.6333496334806085,-0.8170426515772938,0.9635878422796725
1733851140654233300,8.5502333984375,-0.6602537147581576,-0.05984218202233314,0.8880769664824009
1733851140664202500,8.560202392578125,-0.5913672255367041,0.5761854384958743,0.8043085499495267
1733851140674170400,8.57017041015625,-0.35363398969471455,0.9476084751203656,0.6909270854413508
1733851140684139500,8.580139404296874,-0.059578562650084495,1.0184475597143172,0.6502525452256203
1733851140694108400,8.5901083984375,0.22170623014867305,0.8511644091486931,0.6939099006444215
1733851140704076500,8.60007666015625,0.3506897529363632,0.557489505854249,0.7343406952321528
1733851140714045400,8.61004541015625,0.2746294265627861,0.1277598262116313,0.8652858734816312
1733851140724015400,8.620015380859375,0.02280161439478397,-0.3985261476054787,1.1989064181953668
1733851140733983000,8.62998291015625,-0.4060498211085796,-0.9873445654422044,1.7355033581465482
1733851140743952100,8.6399521484375,-0.890012610720098,-1.5765478909432886,2.4285125105589627
1733851140753920000,8.649919921875,-1.1415914165630936,-2.0769082731261848,3.0244524508386847
1733851140763889200,8.65988916015625,-0.9127326843112706,-2.2765146074086426,3.1301492060631513
1733851140773858000,8.669858154296875,-0.45857846524715423,-1.9736416676580906,2.443463995975256
1733851140783826200,8.679826171875,-0.19864684160053728,-1.2449068296089767,1.1778536932945252
1733851140793795000,8.689795166015625,-0.026167291435599326,-0.4690782319515943,0.05062368730008602
1733851140803764200,8.69976416015625,0.1755798542678356,0.14415829556584359,-0.7788263181686401
1733851140813732000,8.709732177734375,0.36302258028686046,0.45363107197284697,-1.3984165986269712
1733851140823701200,8.719701171875,0.45787850028425453,0.5457607818767428,-1.6485756007999182
1733851140833669000,8.729669189453125,0.46693099078983064,0.5702151319146156,-1.5490332765519619
1733851140843638300,8.73963818359375,0.3968699048310518,0.47977293670624493,-1.2709376351833344
1733851140853607200,8.749607177734376,0.3053831690058112,0.2086287219107151,-0.901141030716896
1733851140863575300,8.7595751953125,0.18504764757603406,-0.02655278362184763,-0.4839385319530964
1733851140873544200,8.769544189453125,-0.0033908114820718764,-0.2061301830932498,-0.14536182613670826
1733851140883513000,8.77951318359375,-0.05421732787787914,-0.31714550299197436,0.035598552125692365
1733851140893481000,8.78948095703125,0.06774287214428186,-0.39399844104796644,0.03168576259613037
1733851140903450000,8.7994501953125,0.20158581766188144,-0.416724359858036,-0.08654197289943695
1733851140913419000,8.8094189453125,0.17808277699947356,-0.35187282524108887,-0.21775720026195047
1733851140923387100,8.81938720703125,0.10657704519033431,-0.10367781661748886,-0.1566582961767912
1733851140933356000,8.82935595703125,-0.11229513057619332,0.17467267629504202,-0.0955851110547781
1733851140943324200,8.83932421875,-0.5181108506679535,0.4137809998825192,-0.11018354524970055
1733851140953293000,8.84929296875,-0.8575620012313127,0.6490643583543598,-0.1277963588297367
1733851140963262200,8.85926220703125,-0.902677738764882,0.8846338402912021,-0.044967853495478625
1733851140973230000,8.86922998046875,-0.8157073113203048,1.084363947083801,0.08746376391947269
1733851140983199200,8.87919921875,-0.6764625067591666,1.1672701938293875,0.2749573433429003
1733851140993168100,8.889168212890626,-0.5094546660035848,1.0636711415365339,0.33996611434817314
1733851141003136300,8.89913623046875,-0.4117962558060884,0.7559848101548851,0.2900041058272123
1733851141013105200,8.909105224609375,-0.1526882235020399,0.4262301470890641,0.21459902849197388
1733851141023074000,8.919073974609375,0.1814057839423418,0.085130060274899,0.11378069295883178
1733851141033042200,8.929042236328126,0.38543431858122346,-0.21508242809474468,-0.03280979818999767
1733851141043011000,8.939010986328125,0.37752515289187427,-0.5250402115397155,-0.14053542889356613
1733851141052979200,8.948979248046875,0.19660247629135846,-0.8857955775469541,-0.13339198687970638
1733851141062948400,8.9589482421875,0.04857756842523813,-1.2130058168269693,-0.03346913888156414
1733851141072917200,8.968917236328124,0.039218203927576537,-1.3743607463873921,0.14400982700586318
1733851141082885000,8.978885009765625,0.03283434810936451,-1.3340575237020849,0.2719184140384197
1733851141092854000,8.98885400390625,0.05392974310815334,-1.0957950032889843,0.2966927898108959
1733851141102823000,8.998822998046874,-0.045375849774479865,-0.8013681125834584,0.16218904229700565
1733851141112791000,9.008791015625,-0.023482582396268843,-0.5479375413939357,-0.12403437594771384
1733851141122760000,9.018760009765625,0.19020634551346302,-0.3717822253257036,-0.47582127647101874
1733851141132728000,9.02872802734375,0.2770020009130239,-0.21153101922348141,-0.8126654594063758
1733851141142697200,9.038697265625,0.2811006684035063,-0.11829100999012589,-1.0937176124930381
1733851141152666000,9.048666015625,0.331510420691967,-0.0979210066564381,-1.2863912249028682
1733851141162634200,9.05863427734375,0.2890241548791528,-0.11618906927481293,-1.323991764500737
1733851141172603100,9.06860302734375,0.11942483632564543,-0.09077478816360235,-1.2155401576101779
1733851141182572000,9.078572021484375,-0.02581190212666988,-0.03147431180253625,-0.9900859731048345
1733851141192540200,9.0885400390625,-0.09202654179036616,0.07433832488656043,-0.684602558594942
1733851141202509000,9.098509033203126,-0.15587854397594927,0.2129547684162855,-0.38510873988866806
1733851141212478200,9.108478271484374,-0.13342442784458397,0.34986163154914973,-0.2206628585755825
1733851141222446000,9.118446044921875,0.003369184172153473,0.4375850693181157,-0.11129939753711222
1733851141232415200,9.128415283203125,0.20146891328394412,0.5861164654016494,0.01952303111553192
1733851141242383400,9.13838330078125,0.35397067430317397,0.8252953700073062,0.057173255074024196
1733851141252352300,9.148352294921875,0.41406683108657594,1.1078365926079452,0.03491641508042812
1733851141262321200,9.158321044921875,0.36580958065688607,1.3171693711347878,-0.02553893040418625
1733851141272289000,9.1682890625,0.19993658915013074,1.4490005384385585,-0.03253682646751404
1733851141282258000,9.1782578125,-0.06429156264662743,1.4371179390735924,0.06685293756723404
1733851141292227000,9.18822705078125,-0.42453357230424876,1.1685049963213503,0.216109433054924
1733851141302195200,9.1981953125,-0.6021580841422081,0.6638561231642961,0.5158674556553363
1733851141312164000,9.2081640625,-0.5458078358888626,0.120468207898736,0.9786644153803586
1733851141322132200,9.21813232421875,-0.3943927010625601,-0.16976035433411596,1.4686498262822627
1733851141332101000,9.22810107421875,-0.20247516771703958,0.007580079865455627,1.7453560591191053
1733851141342070000,9.238070068359375,-0.1591588808208704,0.4871596859566867,1.4983914690732956
1733851141352038100,9.2480380859375,-0.3446089717179537,0.8249981406264006,0.6621048955827951
1733851141362007000,9.258007080078125,-0.36266076123714447,1.0119684268280864,-0.2248193937331438
1733851141371976200,9.26797607421875,-0.26141104854941366,1.0265522479757665,-0.7240735682398081
1733851141381944000,9.277944091796876,-0.19548107104599474,0.9214151724606752,-0.9290846841752528
1733851141391913200,9.287913330078124,-0.09339899918735027,0.8051873786106705,-0.8806833490997552
1733851141401882000,9.297882080078125,0.1864730042040348,0.7799271190173923,-0.6922521965652704
1733851141411850200,9.307850341796875,0.43512335537970065,0.7731253300480544,-0.48573652128577227
1733851141421819100,9.317819091796874,0.44015813467651604,0.7026524484179913,-0.4088303917378187
1733851141431787000,9.327787109375,0.2243003382951021,0.478581096573174,-0.37244624219238753
1733851141441756000,9.337755859375,-0.056763212968409055,0.12747238757237792,-0.30343992598354813
1733851141451725000,9.34772509765625,-0.2431988077715039,-0.2600195941910147,-0.13084405596256254
1733851141461693000,9.35769287109375,-0.27535131109654903,-0.6191136028572917,0.08619476689696312
1733851141471662000,9.367662109375,-0.2521715110391378,-0.8520829852983355,0.3047060003966093
1733851141481631000,9.377630859375,-0.34336394009292126,-0.9267691007092594,0.5040069219917058
1733851141491599000,9.38759912109375,-0.4802957915365696,-0.8666514627464115,0.6635124242931604
1733851141501568000,9.397568115234375,-0.4942249481678009,-0.7386312320329248,0.7555547481745482
1733851141511536000,9.4075361328125,-0.18418460100591183,-0.5959713583312928,0.8559329387247562
1733851141521505000,9.417505126953126,0.189452896797657,-0.3830827870190143,0.972287281563878
1733851141531474200,9.42747412109375,0.14824585714042185,-0.13037570779845117,0.8783610436320304
1733851141541442000,9.437442138671875,-0.29065526321232316,0.1344661919824779,0.6612170068323612
1733851141551411200,9.4474111328125,-0.5606003313511609,0.33590485625863076,0.5479039313852787
1733851141561380000,9.457380126953124,-0.4469716140836477,0.4136899605982005,0.4453232623547315
1733851141571348200,9.46734814453125,-0.21513503506481646,0.389709803943336,0.36348844423294063
1733851141581317000,9.477317138671875,-0.12211188345253467,0.33447102406322954,0.34969022050499915
1733851141591286300,9.487286376953126,-0.22129238865077494,0.19568682275116442,0.2911369092494249
1733851141601254100,9.497254150390624,-0.3872650411397218,-0.011150924089550972,0.2850923683881759
1733851141611223300,9.507223388671875,-0.46905368203222747,-0.21020605423003433,0.34088848989009857
1733851141621191000,9.51719091796875,-0.29766952588856216,-0.4034682801827788,0.4383744661301374
1733851141631160000,9.52716015625,-0.14241174415946006,-0.5814703931614756,0.602965893393755
1733851141641129000,9.53712890625,-0.12385346642285584,-0.6708835375830531,0.7658850035309791
1733851141651097000,9.54709716796875,-0.24544629443734883,-0.6376181045800448,0.9059294340372085
1733851141661066000,9.55706591796875,-0.45137627878338094,-0.5340493012949824,0.9996545964390039
1733851141671035100,9.56703515625,-0.6000584815144538,-0.3666568451359868,0.9999030182421207
1733851141681003000,9.5770029296875,-0.7230147068366408,-0.20184329955428837,0.889561067560315
1733851141690972200,9.58697216796875,-0.6415484297662973,-0.039994741258025164,0.7109931373924017
1733851141700940000,9.59693994140625,-0.37320758195370435,0.11519494367092847,0.42431320755183694
1733851141710909200,9.6069091796875,-0.2996639145761728,0.16703355971872805,0.11007482417821883
1733851141720878000,9.616878173828125,-0.431704194585979,0.1133940317288041,-0.1374333712249994
1733851141730845400,9.626845458984375,-0.5736538741916418,-0.07816022126227617,-0.2806201914101839
1733851141740814300,9.636814453125,-0.5979343289673328,-0.33666531923711296,-0.34581074872314926
1733851141750783500,9.646783447265625,-0.5100692907705903,-0.5683981456205248,-0.31075872456431386
1733851141760751400,9.65675146484375,-0.3518193414881825,-0.7128153843834996,-0.2145458370000124
1733851141770720500,9.666720458984376,-0.1636252125799656,-0.7885296737983822,-0.12193009714484214
1733851141780689400,9.676689453125,0.03711830903887749,-0.8482868078857659,0.04568915350735187
1733851141790657300,9.6866572265625,0.22744097440838812,-0.8645265795469284,0.28045243362784383
1733851141800626200,9.696626220703125,0.2631570154339075,-0.8618965233042836,0.5015677121460438
1733851141810594300,9.70659423828125,0.14994681583940983,-0.8142404536381364,0.7308113520622253
1733851141820563200,9.716563232421874,-0.045211014601588245,-0.6935115489766002,0.8984972382098436
1733851141830532400,9.726532470703125,-0.19662264229655266,-0.5256222492113709,0.9842840088278054
1733851141840500500,9.73650048828125,-0.3036328182071447,-0.36515725422799583,0.9797124631285666
1733851141850469400,9.746469482421874,-0.3814639536455273,-0.13934884945750237,0.9763327575623989
1733851141860438300,9.756438232421875,-0.44510231308043,0.08195493737012148,0.8776262996166944
1733851141870406400,9.766406494140625,-0.4454737767413258,0.28569793306589125,0.7510814021527766
1733851141880375300,9.776375244140626,-0.38422903444468975,0.4322437082901597,0.6602040303975343
1733851141890343400,9.786343505859374,-0.27790552562400694,0.5429270197555423,0.591602203336358
1733851141900312300,9.796312255859375,-0.23084172276258466,0.5784279567256569,0.5900555584162473
1733851141910281500,9.806281494140626,-0.29788404542207714,0.5784527989059687,0.7059007826894521
1733851141920249300,9.816249267578126,-0.32683366105258466,0.49801791070997714,0.9049410075217484
1733851141930218500,9.826218505859375,-0.2756925257496536,0.43736967300176616,1.167739711037278
1733851141940187400,9.8361875,-0.2454541854828596,0.39787060630619525,1.3606371953308583
1733851141950155300,9.8461552734375,-0.30891572704613207,0.41005671866238114,1.4368740473151207
1733851141960124400,9.85612451171875,-0.3669423840790987,0.47273353958874936,1.3936124132156371
1733851141970092300,9.86609228515625,-0.299092836689949,0.5260805143728852,1.2546505172491074
1733851141980061200,9.876061279296875,-0.13085077796429395,0.590460924346745,1.049537694504857
1733851141990030300,9.8860302734375,0.1477086815237999,0.6631798313379287,0.6238637199938297
1733851141999998200,9.895998291015625,0.36701311122775077,0.7367536015927791,0.27470599893033504
1733851142009967400,9.90596728515625,0.5114584070414304,0.7572562913954257,-0.04369184221029281
1733851142019936300,9.915936279296876,0.4583621921479702,0.7201426585316658,-0.3031161008566618
1733851142029904400,9.925904296875,0.4021452148854732,0.634422815670073,-0.5153443085640669
1733851142039873300,9.935873291015625,0.2749374695986509,0.5505711047679186,-0.7344827340513468
1733851142049842400,9.945842529296876,0.07776245411634444,0.5205684729531407,-0.837516407546401
1733851142059810300,9.955810302734376,-0.09908522813022136,0.5257181108012795,-0.949925812152028
1733851142069779500,9.965779541015625,-0.2112812822461128,0.5496031365185976,-1.0190350042134524
1733851142079747300,9.975747314453125,-0.04444967484027147,0.5526379741698503,-1.1829232516437769
1733851142089716500,9.985716552734376,0.34874387956559655,0.5676338832497596,-1.324702543118596
1733851142099685400,9.995685302734374,0.6742042064383625,0.5599243317857384,-1.3623761479526757
1733851142109653500,10.005653564453125,0.7503660934902727,0.4749439091145992,-1.345424428629875
1733851142119622400,10.015622314453125,0.5550523418352008,0.3474202297464013,-1.2370254287093878
1733851142129591600,10.025591552734374,0.28722660393789406,0.20559300747662781,-1.0977174957841633
1733851142139559200,10.03555908203125,0.1639392469651997,0.052532151269912716,-1.0514332989931106
1733851142149528300,10.0455283203125,0.11534867292791605,-0.03984627269804478,-1.0374579651325941
1733851142159496200,10.05549609375,0.18538287087976932,-0.07578735465109347,-1.004027989217639
1733851142169465300,10.06546533203125,0.19080314236283302,-0.044451136144995684,-0.932396585202217
1733851142179434200,10.075434326171875,0.04977262342870235,0.06242167712152004,-0.7825713499158621
1733851142189402400,10.08540234375,-0.060517012543976303,0.1537844943061471,-0.5859855324983596
1733851142199371300,10.095371337890626,-0.16945698747336863,0.17867752802222966,-0.424050172701478
1733851142209340400,10.10534033203125,-0.12367708694264291,0.1314236094161868,-0.2829787372350693
1733851142219308300,10.115308349609375,-0.03974339684545994,0.07666501426845788,-0.16425708074271678
1733851142229277400,10.12527734375,-0.004058335480093956,-0.0028860768303275107,-0.10272446141541003
1733851142239246300,10.135246337890624,-0.06912950419709087,-0.09630436524003744,-0.011060323196649551
1733851142249214500,10.14521435546875,-0.21682897950112817,-0.14244447738528251,0.10617723221778869
1733851142259183400,10.155183349609375,-0.34231092390865087,-0.15218495015501976,0.07897767512500285
1733851142269151500,10.1651513671875,-0.3790080849260092,-0.1651470153197646,0.06736848587393761
1733851142279120400,10.175120361328124,-0.37128830432891846,-0.17982172962129114,0.028635142853856085
1733851142289089500,10.185089599609375,-0.14849632477015257,-0.1711789889603853,-0.08988543810844421
1733851142299057400,10.195057373046875,-0.0420452440470457,-0.0929199834987521,-0.14561024793982505
1733851142309026600,10.205026611328124,-0.0030579262658953664,0.03648760991990566,-0.14019523715376853
1733851142318995500,10.214995361328125,0.08819339336827396,0.09070318423211574,-0.19715280365049836
1733851142328963300,10.22496337890625,0.12151274851560592,0.07598229270130395,-0.3220370744258165
1733851142338932200,10.23493212890625,0.24710019912421702,-0.007755436432361602,-0.46906887960135935
1733851142348900400,10.244900390625,0.4485797799326479,-0.13102321192175148,-0.6150058752775192
1733851142358869200,10.254869140625,0.4905678869649768,-0.22540157753527162,-0.7227069560617208
1733851142368838400,10.26483837890625,0.4097944144643843,-0.2904030420169234,-0.8386433657497168
1733851142378806300,10.27480615234375,0.3335737829625606,-0.27199907805919643,-1.0092010079413651
1733851142388775400,10.284775390625,0.38270284779071806,-0.26912293810099364,-1.3189572774648666
1733851142398744300,10.294744384765625,0.48898587847054004,-0.18306348802149294,-1.6538970880836248
1733851142408712400,10.30471240234375,0.6211809106506407,-0.13167904548197984,-1.926332803994417
1733851142418681300,10.314681396484374,0.723375210712105,-0.15554712006449697,-2.1636317400723692
1733851142428649500,10.3246494140625,0.7578180169314146,-0.21963936074674129,-2.3099299702763556
1733851142438618400,10.334618408203125,0.7219599370867014,-0.2619081844165921,-2.30930686994195
1733851142448587500,10.34458740234375,0.7100504497148096,-0.24958207906782626,-2.173557506281137
1733851142458555400,10.354555419921875,0.6798293528437614,-0.20504151107370852,-1.9323592246770858
1733851142468524500,10.364524658203125,0.7165992868363856,-0.21318945395499467,-1.6712497894227503
1733851142478493400,10.374493408203126,0.7506622999578714,-0.2954781533241272,-1.4334388121694326
1733851142488461300,10.38446142578125,0.7396551682531833,-0.3594596271082759,-1.332858377045393
1733851142498430500,10.394430419921875,0.6990913949355483,-0.3067690704062581,-1.417596515393257
1733851142508399400,10.4043994140625,0.6283303440138698,-0.15927227806746957,-1.6067103894948958
1733851142518367200,10.4143671875,0.5749686100520193,-0.015754910753667355,-1.9736317307859659
1733851142528336400,10.42433642578125,0.6499760663717985,0.11249766741096973,-2.4299469272762537
1733851142538304300,10.43430419921875,0.782375535082817,0.19805121379494667,-2.868468692922592
1733851142548273400,10.4442734375,0.9499468549400567,0.20624270355701446,-3.2278339197456836
1733851142558242300,10.4542421875,1.1754232512772083,0.083017013643682,-3.5043273866146802
1733851142568210400,10.46421044921875,1.4796072736263275,-0.10229571460932492,-3.643738195392489
1733851142578179300,10.474179443359375,1.705831273460388,-0.32125030796229836,-3.732568571490049
1733851142588148500,10.4841484375,1.715974043420702,-0.5568500389069319,-3.6400089457362887
1733851142598116400,10.494116455078125,1.38712144376114,-0.6739473090678453,-3.358206851065159
1733851142608085500,10.50408544921875,0.8115538449026644,-0.6787453569993376,-2.944946952447295
1733851142618053400,10.514053466796875,0.2838040821433067,-0.5570350400850177,-2.5383634628534315
1733851142628022500,10.5240224609375,0.01316138712912798,-0.3910591727256775,-2.2556769865632056
1733851142637991400,10.533991455078125,-0.019149375497549772,-0.25845278326570986,-2.1084587189048527
1733851142647959600,10.54395947265625,0.1238558045104146,-0.2912564439758658,-2.0315145954340696
1733851142657928400,10.553928466796876,0.3123042004406452,-0.5428554158240556,-1.8974188441991804
1733851142667897300,10.5638974609375,0.45751419701650736,-0.9288201880201696,-1.607588341373205
1733851142677865200,10.573865234375,0.5277158604897558,-1.3008257007077335,-1.2046207041889427
1733851142687834400,10.58383447265625,0.5506175742581486,-1.5252087488502264,-0.7205196751505136
1733851142697802200,10.59380224609375,0.4975125915363431,-1.466334827338159,-0.11128419996798038
1733851142707771400,10.603771484375,0.2498598730958998,-1.107767180633545,0.5750906289964914
1733851142717740300,10.613740234375,-0.1561257967352867,-0.6449667137771844,1.0506424408763646
1733851142727708700,10.623708740234376,-0.4832153322450816,-0.11069354059845209,1.1584990044832228
1733851142737677600,10.633677490234374,-0.7397732416749,0.3302238880127668,1.0303881728768347
1733851142747646500,10.643646484375,-0.8109738530576228,0.52455169737041,0.8640285668969154
1733851142757614600,10.653614501953125,-0.7204818273581564,0.48675563520044085,0.6830512374997139
1733851142767583500,10.66358349609375,-0.5118839389771223,0.30656536452770233,0.46238370274901386
1733851142777552600,10.673552734375,-0.12272665435001254,0.11182312915027141,0.18817747003436086
1733851142787520500,10.6835205078125,0.19618790414109824,0.10130728809386491,-0.11302315258979796
1733851142797489400,10.693489501953126,0.26388489131703974,0.28097295037060976,-0.357657838383317
1733851142807457500,10.70345751953125,0.14537307818308473,0.5432172348737716,-0.4600122974425554
1733851142817426400,10.713426513671875,0.009020634062588214,0.7758288899183273,-0.3703577454805374
1733851142827395300,10.723395263671875,-0.16690438038110733,0.881122032777965,-0.16452771437764166
1733851142837363500,10.733363525390626,-0.32635932153910396,0.8171931659638881,-0.03345744844377041
1733851142847332400,10.743332275390625,-0.17235738508999346,0.5707441242247819,0.006055062255263328
1733851142857301500,10.753301513671875,0.1607277375727892,0.28713439560979603,-0.04822480946481228
1733851142867269600,10.76326953125,0.48400136805623767,0.1029132619857788,-0.22426585150361059
1733851142877238500,10.773238525390624,0.6723275989115238,0.12453677251189946,-0.41079730789661406
1733851142887206700,10.78320654296875,0.6028326224029064,0.28884119952768084,-0.5107248320698737
1733851142897175600,10.793175537109375,0.2682891176253557,0.47311961629688737,-0.3895663038194179
1733851142907144400,10.80314453125,-0.2667038942605257,0.609849515427649,-0.04517652781009674
1733851142917112600,10.813112548828125,-0.8628390648514032,0.7479507029116154,0.2844178301274776
1733851142927081500,10.82308154296875,-1.0043611666947603,0.7718447887182235,0.5530553227990865
1733851142937050600,10.833050537109376,-0.8957365413248538,0.6267766848310827,0.7295780108749866
1733851142947018500,10.8430185546875,-0.7565078111156821,0.4083998913660645,0.8409288463383913
1733851142956987400,10.8529873046875,-0.5336451044082642,0.2536579502046108,0.9232242677092551
1733851142966955500,10.86295556640625,-0.33299422950893637,0.1942047674998641,1.0533137059122324
1733851142976924400,10.87292431640625,-0.18424977519661187,0.2734387554734945,1.2389882532149552
1733851142986893300,10.882893310546875,-0.10682897412478923,0.3859676948055625,1.479382232698798
1733851142996861400,10.892861328125,-0.1157581305116415,0.5016936766132712,1.6984616214752197
1733851143006830300,10.902830322265626,-0.2558896547794342,0.6253232711523771,1.8090303666502237
1733851143016799500,10.912799560546874,-0.4433317962765693,0.6856126124203205,1.8331769659131765
1733851143026767600,10.922767578125,-0.597284925147891,0.6742810710668563,1.6762182254850864
1733851143036736500,10.932736572265625,-0.6421499027907848,0.684669778612256,1.2720903123497962
1733851143046704600,10.94270458984375,-0.609918489010632,0.7519576004654168,0.6941226666122674
1733851143056673500,10.952673583984375,-0.5445484834775328,0.8817495170265436,0.20994681877195834
1733851143066642400,10.962642333984375,-0.4240145168662071,1.0296461223378777,-0.034515433064103124
1733851143076610600,10.972610595703125,-0.23871932426989076,1.0844517714977264,-0.007349778240919112
1733851143086579500,10.982579345703124,-0.15099311002194882,0.9877288885846733,0.18494155685305594
1733851143096548600,10.992548583984375,-0.1261389470115304,0.7744298367753625,0.5936503680378198
1733851143106516500,11.0025166015625,-0.05569266112744808,0.4572077614158392,1.2229501416057347
1733851143116485600,11.012485595703126,0.017257424271106717,0.12081278355270623,1.8642255996495485
1733851143126453500,11.02245361328125,-0.3078837536498904,-0.1413885385915637,2.2612223457306624
1733851143136422400,11.03242236328125,-0.6739642602026462,-0.3003587649725377,2.335802078157663
1733851143146391300,11.042391357421875,-0.6122729431822895,-0.36674729989841576,2.2661405129104852
1733851143156359400,11.052359375,-0.5254740729123354,-0.3249194979943335,2.145117009216547
1733851143166328300,11.062328369140625,-0.7815317777350544,-0.2328374266244471,2.0013444980978963
1733851143176297500,11.07229736328125,-1.0447601048395037,-0.21117782187163828,1.7656027283340692
1733851143186265300,11.082265380859376,-1.0483782953366636,-0.3861230314977467,1.3103659747302532
1733851143196234500,11.092234375,-0.9815651052579283,-0.6772704621411859,0.6431190400838852
1733851143206202600,11.10220263671875,-1.0674573820769786,-1.0147449058040976,-0.08760054204165935
1733851143216171500,11.112171630859375,-1.1759466906294227,-1.2476558360561727,-0.6966501392632722
1733851143226140400,11.122140380859374,-1.2175287010788918,-1.3465610314443706,-1.0687439147561788
1733851143236108500,11.132108642578125,-1.0891162561774252,-1.2936506945118307,-1.2485031005352736
1733851143246077400,11.142077392578125,-0.7698512768134474,-1.0852489132247864,-1.2499462850809095
1733851143256046600,11.152046630859376,-0.40223815386593337,-0.79609177961573,-1.0914999364435671
1733851143266014500,11.162014404296874,-0.05254121135920286,-0.561530890199542,-0.647858343565464
1733851143275983600,11.171983642578125,0.21129297268390654,-0.43624592966884373,-0.026773440635204315
1733851143285951500,11.181951416015625,0.36977147002518174,-0.41032136094793675,0.514665094128251
1733851143295920600,11.191920654296876,0.36577684743106365,-0.4444682529605925,0.8462275372684002
1733851143305889500,11.2018896484375,0.14419132105261087,-0.471328056704998,1.0175222615629433
1733851143315857400,11.211857421875,-0.05648293472230434,-0.503312802247703,1.0729624092340468
1733851143325826300,11.221826416015626,-0.1756973431676626,-0.4531552711546421,1.0655816513329743
1733851143335795500,11.23179541015625,-0.3041188481584191,-0.3151065445102751,0.9916267728060484
1733851143345763300,11.241763427734375,-0.3642211424216628,-0.1527788243949413,0.8710784854084253
1733851143355732500,11.251732421875,-0.31348522691875697,0.014841156909614801,0.6507271770000458
1733851143365700600,11.26170068359375,-0.26145021151602266,0.14431202482283115,0.3805179049670696
1733851143375669500,11.27166943359375,-0.306966931065917,0.22460721228718755,0.1796194850474596
1733851143385638400,11.281638427734375,-0.3919584596529603,0.27385581184178587,0.11567863553464412
1733851143395606500,11.2916064453125,-0.43097032735347746,0.3008615999281406,0.14130699778795242
1733851143405575400,11.301575439453124,-0.41022038479149336,0.3083125004559755,0.1748959636569023
1733851143415544600,11.311544677734375,-0.36022973469793795,0.3158618929222226,0.19587270071208476
1733851143425512400,11.321512451171875,-0.2608662741482258,0.3741626907214522,0.29297406154870986
1733851143435481600,11.331481689453126,-0.20989012014865874,0.4196826251417398,0.5581237121045589
1733851143445450500,11.341450439453125,-0.3180889213219285,0.45999242369830606,0.9474626369088888
1733851143455418600,11.351418701171875,-0.29008184723854064,0.49513358744531866,1.404215055772662
1733851143465387500,11.361387451171876,-0.2027151139527559,0.4391432585455477,1.8010107263237236
1733851143475355400,11.37135546875,-0.06669774700552225,0.3802814658626914,2.145420960599184
1733851143485324300,11.38132421875,0.002404723054170608,0.3476359183236956,2.4670716660559178
1733851143495293700,11.391293701171875,0.009831658184528351,0.24836758871152995,2.6000281841278077
1733851143505261300,11.40126123046875,0.049451720911264416,0.10894742758348583,2.472446929353475
1733851143515230500,11.41123046875,-0.07773965776264667,0.05650777690261602,2.2205162413328883
1733851143525198300,11.4211982421875,-0.3394663481324911,0.0478968926846981,1.887650898900628
1733851143535167500,11.43116748046875,-0.6431301459997892,0.09322773427367209,1.5340473043441771
1733851143545136400,11.441136474609374,-0.9053574793681501,0.1567395447194576,1.3253694825947284
1733851143555104500,11.4511044921875,-1.0395593213260172,0.17607494430840015,1.2706816145956517
1733851143565073400,11.461073486328125,-1.0367962863534688,0.194842773142457,1.3230273033827542
1733851143575042600,11.47104248046875,-0.923711174443364,0.27846768955141304,1.4215852927684782
1733851143585010400,11.481010498046874,-0.7763146276086569,0.3668360010951757,1.508521233421564
1733851143594979600,11.4909794921875,-0.6937608475625514,0.44546442439109085,1.4519149645805358
1733851143604948500,11.500948486328125,-0.7253028177738189,0.45762072613090277,1.242291386413574
1733851143614916600,11.51091650390625,-0.797821526017785,0.3929895562663674,0.941620925143361
1733851143624885500,11.520885498046875,-0.7153820200011134,0.3511149926111102,0.6144178462564945
1733851143634853600,11.530853515625,-0.5572139037832617,0.352053442505002,0.3013502602279186
1733851143644822500,11.540822509765626,-0.31584669535309073,0.3670081427916884,0.040568741753697395
1733851143654791700,11.550791748046874,0.014071195450425147,0.3874599791899323,-0.19227555300295351
1733851143664759300,11.56075927734375,0.2676201323226094,0.32207536060959097,-0.442334601932764
1733851143674728400,11.570728515625,0.43313130477964873,0.20819296084195374,-0.6974474271208048
1733851143684697300,11.580697265625,0.38206279632151124,0.051904667021334165,-0.9099094435840844
1733851143694665500,11.59066552734375,0.06814589998722076,-0.09898907427936791,-1.058784246277809
1733851143704634400,11.60063427734375,-0.10492021789401769,-0.22744126666933298,-1.1727367886722087
1733851143714602500,11.6106025390625,0.0723573802024126,-0.2439946343243122,-1.2124006905406712
1733851143724571400,11.6205712890625,0.29543489870429035,-0.18312895447313784,-1.179215629297495
1733851143734541000,11.630541015625,0.4243263592943549,-0.12486702737957238,-1.0631219832211731
1733851143744509200,11.64050927734375,0.4481880041360855,-0.07413198865950107,-0.9123895699620246
1733851143754478300,11.650478271484374,0.38704292282164093,-0.04471797038763761,-0.7955810536146164
1733851143764447200,11.660447265625,0.30167233178913594,-0.0012009002223610876,-0.6808551887601614
1733851143774415400,11.670415283203125,0.10111293456554413,0.00943389103859663,-0.552229977890849
1733851143784384300,11.68038427734375,-0.051749184198677536,-0.027507015606760978,-0.3767150055527687
1733851143794352400,11.690352294921874,0.09195756820738316,-0.02663549346923828,-0.15741642106771467
1733851143804321300,11.7003212890625,0.2840082264132798,-0.004371346952021122,0.0931575916469097
1733851143814290200,11.710290283203125,0.24815716083124278,0.03505202415883541,0.3093114483654499
1733851143824258300,11.72025830078125,0.2593725284591317,0.09903174437731505,0.48306058007478714
1733851143834227200,11.730227294921875,0.21870836350694298,0.17074322789162397,0.6135252813309431
1733851143844195300,11.7401953125,0.10584873091578482,0.24871640214920043,0.6698445499241352
1733851143854164500,11.75016455078125,-0.03406885834038258,0.2780050404757261,0.5369903231829405
1733851143864133400,11.76013330078125,-0.14247019634842872,0.25979221517592666,0.26279870351552964
1733851143874101200,11.770101318359375,-0.33241409153342244,0.23038696473240852,-0.0321551336735487
1733851143884070100,11.780070068359375,-0.44782004760652777,0.20257892035245895,-0.4457996476948261
1733851143894039000,11.7900390625,-0.1103540795110166,0.2113224910393357,-0.8966448883414267
1733851143904007200,11.800007080078124,0.41680502387881274,0.24841361981034277,-1.209006956449151
1733851143913976300,11.809976318359375,0.6272137610740959,0.28113953910917044,-1.2753700646728277
1733851143923944200,11.819944091796875,0.6174129364192485,0.30318215183019637,-1.1927923192292451
1733851143933913300,11.829913330078124,0.5356731031045318,0.32230800032168627,-1.0095493829876183
1733851143943882200,11.83988232421875,0.43500995813310145,0.3492076976850629,-0.7338812610268592
1733851143953850400,11.849850341796875,0.2908592613518238,0.34528614032715554,-0.4507762670636177
1733851143963819300,11.8598193359375,0.025993250042945146,0.2946899255558848,-0.16411796453297137
1733851143973788200,11.8697880859375,-0.13132044130265713,0.19650164626538752,-0.013505378261208534
1733851143983756300,11.87975634765625,-0.12430939349681139,0.11769260570555924,0.005884381863474846
1733851143993725200,11.88972509765625,-0.19965382668599485,0.04982172326743602,0.04978899004161358
1733851144003693300,11.899693359375,-0.5139350262880324,0.018991700717806814,0.07913900316655635
1733851144013662500,11.909662353515625,-0.6976904420964419,0.008253741343319415,0.019932780960202217
1733851144023631400,11.91963134765625,-0.506430203615874,0.01377133572101593,-0.07319733815789223
1733851144033599200,11.92959912109375,-0.18079247434958814,0.04976327107846737,-0.17031038943231105
1733851144043568000,11.939568115234374,0.058662616848945616,0.10621668744534253,-0.2719236747354269
1733851144053537000,11.949537109375,0.18873861104846,0.13713321923464536,-0.4316571405738592
1733851144063505200,11.959505126953125,0.3142841222114861,0.11198533397465944,-0.6153577574551106
1733851144073474000,11.96947412109375,0.25562208988443014,0.0552384876191616,-0.7867407445549964
1733851144083442200,11.979442138671875,0.1872398969233036,-0.01707709926813841,-0.911089008757472
1733851144093411300,11.989411376953125,0.2295464222550392,-0.09663812723904848,-0.9747411044567823
1733851144103380200,11.999380126953126,0.2986053454339504,-0.1151911442786455,-0.9777882170677185
1733851144113348400,12.009348388671874,0.31263796243965625,-0.059683484329283235,-0.9066969112783669
1733851144123317200,12.019317138671875,0.2489573712982237,0.02968669773340225,-0.771556619426608
1733851144133286100,12.0292861328125,0.26476065123826265,0.0735360685929656,-0.5872001689851284
1733851144143254300,12.039254150390626,0.39230712696015835,0.0893520618841052,-0.35697394777238367
1733851144153223200,12.04922314453125,0.3793817405439913,0.061546647852659224,-0.12378595414459705
1733851144163191300,12.05919140625,0.26731471963524817,-0.0260813667178154,0.10678864211440085
1733851144173160200,12.06916015625,0.24599676792696118,-0.07680120786875486,0.33488428103923795
1733851144183129300,12.07912939453125,0.2759218044608831,-0.10800152503550052,0.47047523926794527
1733851144193097500,12.089097412109375,0.24388079868629572,-0.1293497257515788,0.479593780747056
1733851144203066400,12.09906640625,0.1184045533671975,-0.16760317630022764,0.40547757417857644
1733851144213035300,12.10903515625,-0.017679449075460433,-0.22976064952760933,0.3168494426548481
1733851144223003100,12.119003173828125,-0.10217018853351473,-0.2508069446876645,0.16264146223962306
1733851144232972000,12.128971923828125,-0.13428455180525778,-0.28845453829765316,-0.12164952663779258
1733851144242940200,12.138940185546875,-0.028115795154869554,-0.290787949681282,-0.5146756155222654
1733851144252909000,12.148908935546874,0.16079554211199282,-0.2548196874603629,-0.9920318464756012
1733851144262878200,12.158878173828125,0.37722237055301666,-0.2208864381983876,-1.481068578350544
1733851144272846300,12.168846435546875,0.6022562838196754,-0.23892039979994295,-1.8854864143431185
1733851144282815200,12.178815185546876,0.8242255488187075,-0.26559856336712834,-2.196810956096649
1733851144292784000,12.1887841796875,1.0023919124484062,-0.34691607961654664,-2.4028595983862875
1733851144302752300,12.198752197265625,1.076375140286982,-0.4189326835572719,-2.4824638809770345
1733851144312721200,12.20872119140625,1.0399287391602992,-0.4507525939270854,-2.505298228597641
1733851144322689300,12.218689208984374,1.039960887864232,-0.440450980143249,-2.4427859505832195
1733851144332658200,12.228658203125,1.0601263085365296,-0.4093795500531792,-2.289517296844721
1733851144342627300,12.23862744140625,0.9681082423135637,-0.32526071264743806,-2.02450150180161
1733851144352595500,12.248595458984376,0.7766597877845167,-0.22513825042396782,-1.6771353403300047
1733851144362564400,12.258564453125,0.5338032175794244,-0.22574323057979345,-1.3267226507693528
1733851144372533200,12.268533203125,0.3119125707745552,-0.28949732534885403,-0.9378367304295301
1733851144382501400,12.27850146484375,0.10941957513988017,-0.35065351257920263,-0.5417851562440396
1733851144392470300,12.28847021484375,0.016152239508181808,-0.42431057720333337,-0.2530792735338211
1733851144402438100,12.298438232421875,-0.006542407380789518,-0.5211828054592013,-0.05064823721945286
1733851144412407000,12.308406982421875,0.03142448131144047,-0.5548144414260983,0.0634469285160303
1733851144422376200,12.318376220703126,0.028882980135083197,-0.49516632067114114,0.10671440783441066
1733851144432344300,12.32834423828125,-0.03802592540308833,-0.4002703609243035,-0.02144669265449047
1733851144442313200,12.338313232421875,-0.1329614865079522,-0.254054840567708,-0.3913806597650051
1733851144452282000,12.3482822265625,-0.13182020751833914,-0.19513795669674872,-0.9700608376860618
1733851144462250200,12.358250244140624,0.02678177007213235,-0.18993600413948297,-1.675374175876379
1733851144472219100,12.36821923828125,0.4134171350061893,-0.2263639928266406,-2.3411299951821563
1733851144482187300,12.378187255859375,0.8092854615792632,-0.20697569400668142,-2.799502708724141
1733851144492156200,12.38815625,1.1267834312707186,-0.14058540551513432,-3.0352099916964765
1733851144502125300,12.398125244140624,1.3867407738804816,-0.08536620711833239,-3.0591257048130034
1733851144512093200,12.40809326171875,1.609371133136749,-0.03998948056101799,-2.8937352361261843
1733851144522062300,12.418062255859375,1.7011118437230586,-0.03239771025776863,-2.534246675184369
1733851144532031200,12.42803125,1.6471268632963298,-0.11098638606518506,-2.0647452493846417
