time,seconds_elapsed,z,y,x
1733851132121079300,0.017079345703125,-0.038340359926223755,0.2734738886356354,-0.3943445086479187
1733851132131048200,0.027048095703125,-0.051316630095243454,0.36732280254364014,-0.35179445147514343
1733851132141016000,0.03701611328125,-0.06297461688518524,0.4067719578742981,-0.3126281499862671
1733851132150985200,0.046985107421875,-0.06974758207798004,0.4275733232498169,-0.29251790046691895
1733851132160954000,0.0569541015625,-0.0787261575460434,0.4593498706817627,-0.2877545654773712
1733851132170922000,0.066921875,-0.08510152250528336,0.5048820972442627,-0.29408231377601624
1733851132180891100,0.07689111328125,-0.10346242040395737,0.6082140803337097,-0.3006509840488434
1733851132190860000,0.086860107421875,-0.07052969932556152,0.7314911484718323,-0.3103674352169037
1733851132200828200,0.096828125,0.05274723097681999,0.8491277694702148,-0.3388217091560364
1733851132210797000,0.106797119140625,0.21396180987358093,0.9153804779052734,-0.37001216411590576
1733851132220766000,0.116765869140625,0.36808669567108154,0.9917234182357788,-0.39044952392578125
1733851132230734000,0.126734130859375,0.4434800446033478,1.0760732889175415,-0.38860929012298584
1733851132240703200,0.136703125,0.443089097738266,1.1674391031265259,-0.35202756524086
1733851132250671000,0.146671142578125,0.41301414370536804,1.32718026638031,-0.3187158405780792
1733851132260640300,0.15664013671875,0.38127753138542175,1.5247050523757935,-0.3238954246044159
1733851132270609200,0.166609130859375,0.31762418150901794,1.686026930809021,-0.35299551486968994
1733851132280577300,0.176577392578125,0.19925786554813385,1.7132306098937988,-0.36406174302101135
1733851132290546200,0.186546142578125,0.043767038732767105,1.6816065311431885,-0.3654930591583252
1733851132300515000,0.19651513671875,-0.08872708678245544,1.6020020246505737,-0.3460128605365753
1733851132310483200,0.206483154296875,-0.16070325672626495,1.0604822635650635,-0.22345542907714844
1733851132320452000,0.2164521484375,-0.2874169945716858,-0.13219332695007324,-0.056121569126844406
1733851132330421200,0.226421142578125,-0.42194607853889465,-0.8272116184234619,0.018124276772141457
1733851132340389000,0.23638916015625,-0.42030131816864014,-0.7265065908432007,0.04233134537935257
1733851132350358000,0.24635791015625,-0.31990811228752136,-0.20794320106506348,0.016982998698949814
1733851132360327000,0.256326904296875,-0.18818175792694092,0.27812230587005615,-0.07379724085330963
1733851132370295000,0.266294921875,-0.0691857859492302,0.5637166500091553,-0.20594853162765503
1733851132380264000,0.276263916015625,0.032507553696632385,0.6385421752929688,-0.32425016164779663
1733851132390233000,0.286233154296875,0.11586548388004303,0.5808165073394775,-0.389604389667511
1733851132400201000,0.296200927734375,0.1844290941953659,0.46928921341896057,-0.3838580846786499
1733851132410170000,0.306170166015625,0.22264568507671356,0.34642770886421204,-0.3175578713417053
1733851132420139000,0.316138916015625,0.23558571934700012,0.2380272001028061,-0.22965730726718903
1733851132430107100,0.326107177734375,0.23125587403774261,0.1537659764289856,-0.1537741720676422
1733851132440076000,0.336075927734375,0.21360497176647186,0.10546715557575226,-0.11347948014736176
1733851132450045200,0.346045166015625,0.1837160289287567,0.08984129875898361,-0.09970451146364212
1733851132460013000,0.356012939453125,0.1416812241077423,0.1029115617275238,-0.10795258730649948
1733851132469982200,0.365982177734375,0.09955811500549316,0.13445447385311127,-0.12687766551971436
1733851132479951000,0.375951171875,0.06011936813592911,0.17405381798744202,-0.15053372085094452
1733851132489919200,0.385919189453125,0.02882935293018818,0.1994493454694748,-0.17286556959152222
1733851132499888000,0.39588818359375,0.005197526421397924,0.2065751552581787,-0.1892956793308258
1733851132509856300,0.405856201171875,-0.029485058039426804,0.2016829252243042,-0.19968245923519135
1733851132519825200,0.4158251953125,-0.06964632868766785,0.16964882612228394,-0.20526418089866638
1733851132529794300,0.425794189453125,-0.08560922741889954,0.1053774505853653,-0.20132111012935638
1733851132539762000,0.435761962890625,-0.09321734309196472,0.036535266786813736,-0.19361259043216705
1733851132549731000,0.44573095703125,-0.088688924908638,-0.01414592657238245,-0.17971061170101166
1733851132559700000,0.455699951171875,-0.07750657945871353,-0.021122608333826065,-0.1713341623544693
1733851132569668000,0.465668212890625,-0.05713701248168945,0.01252803485840559,-0.16836042702198029
1733851132579637000,0.475636962890625,-0.04931504279375076,0.054526884108781815,-0.16637103259563446
1733851132589606100,0.485606201171875,-0.05461913347244263,0.07463664561510086,-0.15731552243232727
1733851132599574000,0.495573974609375,-0.08035965263843536,0.07530110329389572,-0.13655591011047363
1733851132609543200,0.505543212890625,-0.1146617904305458,0.04109323397278786,-0.11476387828588486
1733851132619512000,0.515511962890625,-0.1402590423822403,-0.014901324175298214,-0.09867732226848602
1733851132629480200,0.525480224609375,-0.15203998982906342,-0.08504365384578705,-0.0816812664270401
1733851132639449000,0.535448974609375,-0.14279323816299438,-0.14475464820861816,-0.062075335532426834
1733851132649418200,0.545418212890625,-0.12167933583259583,-0.17218203842639923,-0.02747991494834423
1733851132659386000,0.55538623046875,-0.0970538854598999,-0.17330455780029297,0.01597595028579235
1733851132669355300,0.565355224609375,-0.0647081807255745,-0.1798023283481598,0.05441609025001526
1733851132679324200,0.57532421875,-0.02105790562927723,-0.19091250002384186,0.09067156910896301
1733851132689292300,0.585292236328125,0.011589729227125645,-0.1670060008764267,0.10178028792142868
1733851132699261200,0.59526123046875,0.045922137796878815,-0.11453454196453094,0.10554200410842896
1733851132709229300,0.605229248046875,0.07348218560218811,-0.03716198354959488,0.13453614711761475
1733851132719198000,0.615197998046875,0.07366088032722473,0.005551922135055065,0.1816655695438385
1733851132729167000,0.6251669921875,0.06701035052537918,-0.03566436097025871,0.23627963662147522
1733851132739135000,0.635135009765625,0.07801160216331482,-0.11599168926477432,0.28219518065452576
1733851132749104000,0.645104248046875,0.09656313061714172,-0.16135215759277344,0.29843395948410034
1733851132759073000,0.655072998046875,0.11458607017993927,-0.12586845457553864,0.29065006971359253
1733851132769041200,0.665041259765625,0.11552107334136963,-0.023033926263451576,0.26704055070877075
1733851132779010000,0.675010009765625,0.08846282213926315,0.09770021587610245,0.25662145018577576
1733851132788979000,0.68497900390625,0.04991699010133743,0.23484136164188385,0.28103339672088623
1733851132798947000,0.694947021484375,-0.0036993660032749176,0.39519187808036804,0.30070456862449646
1733851132808916000,0.704916015625,-0.07421485334634781,0.505462110042572,0.2835388481616974
1733851132818885000,0.714885009765625,-0.12828660011291504,0.5286763906478882,0.23310522735118866
1733851132828853200,0.724853271484375,-0.1597411185503006,0.49617502093315125,0.19041040539741516
1733851132838822100,0.734822265625,-0.1667223423719406,0.43583816289901733,0.18369364738464355
1733851132848791000,0.744791015625,-0.14884363114833832,0.33830317854881287,0.21485164761543274
1733851132858759000,0.754759033203125,-0.11922182887792587,0.20951296389102936,0.2613627016544342
1733851132868727800,0.764727783203125,-0.06252951920032501,0.09364628791809082,0.29512491822242737
1733851132878697200,0.774697265625,0.022195490077137947,0.047763753682374954,0.30427366495132446
1733851132888665000,0.7846650390625,0.10033711791038513,0.0795728787779808,0.29920756816864014
1733851132898634000,0.794634033203125,0.13520029187202454,0.15481595695018768,0.2839497923851013
1733851132908603000,0.804602783203125,0.09378745406866074,0.21146593987941742,0.2582583427429199
1733851132918571000,0.814571044921875,-0.022130893543362617,0.19228719174861908,0.21631915867328644
1733851132928540000,0.824539794921875,-0.1822291612625122,0.0511869452893734,0.1623242199420929
1733851132938509000,0.834509033203125,-0.3057822585105896,-0.1727425456047058,0.11992296576499939
1733851132948477000,0.844476806640625,-0.40139830112457275,-0.45019620656967163,0.06840814650058746
1733851132958446000,0.854446044921875,-0.42815667390823364,-0.6962815523147583,0.027032477781176567
1733851132968414000,0.8644140625,-0.38572877645492554,-0.8566844463348389,0.008355880156159401
1733851132978383000,0.874383056640625,-0.26776379346847534,-0.9327696561813354,0.012606551870703697
1733851132988352000,0.88435205078125,-0.10266310721635818,-0.9259186387062073,0.07405317574739456
1733851132998320000,0.894320068359375,0.07117260247468948,-0.8771255612373352,0.18567104637622833
1733851133008289000,0.9042890625,0.23217147588729858,-0.8000562787055969,0.337562620639801
1733851133018258200,0.914258056640625,0.34124764800071716,-0.7155802845954895,0.49470803141593933
1733851133028226000,0.92422607421875,0.39519375562667847,-0.6027443408966064,0.6190119385719299
1733851133038195200,0.9341953125,0.40500321984291077,-0.4494735896587372,0.6823043823242188
1733851133048164000,0.9441640625,0.38878852128982544,-0.24661685526371002,0.6835290193557739
1733851133058132000,0.954132080078125,0.3743685483932495,0.01619081199169159,0.6581533551216125
1733851133068100900,0.964100830078125,0.379172682762146,0.3345158100128174,0.6322554349899292
1733851133078070000,0.974070068359375,0.4063135087490082,0.6627029776573181,0.6196762919425964
1733851133088038000,0.984037841796875,0.4507688581943512,1.047263264656067,0.6368170976638794
1733851133098007000,0.994007080078125,0.5023125410079956,1.4993793964385986,0.6658934950828552
1733851133107976000,1.003975830078125,0.5391690135002136,1.9835108518600464,0.7313597202301025
1733851133117944000,1.013944091796875,0.5513013601303101,2.4609763622283936,0.7848602533340454
1733851133127913000,1.023912841796875,0.5248104333877563,2.8145532608032227,0.7761186957359314
1733851133137882000,1.033882080078125,0.4780016839504242,2.9826507568359375,0.7136681079864502
1733851133147850000,1.04385009765625,0.41820695996284485,2.954190492630005,0.6185771822929382
1733851133157819100,1.053819091796875,0.3669373691082001,2.770601749420166,0.5154678225517273
1733851133167787000,1.063787109375,0.3783007264137268,2.4244384765625,0.4557397663593292
1733851133177756200,1.073756103515625,0.4986122250556946,1.922507882118225,0.43393033742904663
1733851133187725000,1.08372509765625,0.7232629656791687,1.4132323265075684,0.44760313630104065
1733851133197693200,1.093693115234375,0.9497384428977966,1.2838956117630005,0.4360865652561188
1733851133207662000,1.103662109375,1.00421142578125,1.6422189474105835,0.4320486783981323
1733851133217631000,1.113630859375,0.9947957396507263,1.7578283548355103,0.5918932557106018
1733851133227599000,1.12359912109375,0.949781060218811,1.6418133974075317,0.7372183799743652
1733851133237568300,1.133568359375,0.7676988840103149,1.5512033700942993,0.7798435688018799
1733851133247537200,1.143537109375,0.45355090498924255,1.3882502317428589,0.7454285025596619
1733851133257505000,1.153505126953125,0.11991780251264572,1.106350302696228,0.6013674736022949
1733851133267474000,1.163473876953125,-0.09648104757070541,0.7212129235267639,0.4065416753292084
1733851133277442800,1.17344287109375,-0.12838172912597656,0.28091731667518616,0.23384927213191986
1733851133287411000,1.183410888671875,-0.053480591624975204,-0.05245410278439522,0.12942413985729218
1733851133297380000,1.193380126953125,0.03631454333662987,-0.1355934590101242,0.10929889976978302
1733851133307348000,1.203347900390625,0.10854537785053253,-0.03961426392197609,0.15191370248794556
1733851133317317000,1.213317138671875,0.1763009876012802,0.0634511336684227,0.18681947886943817
1733851133327286000,1.2232861328125,0.21371611952781677,0.15943142771720886,0.1583840698003769
1733851133337254100,1.233254150390625,0.19422177970409393,0.21015958487987518,0.09759902209043503
1733851133347223000,1.24322314453125,0.13002614676952362,0.2380097508430481,0.061659280210733414
1733851133357192000,1.25319189453125,0.039227791130542755,0.30978089570999146,0.05340294912457466
1733851133367160000,1.26316015625,-0.04428822547197342,0.41312745213508606,0.06742475926876068
1733851133377129000,1.27312890625,-0.10139118880033493,0.4611162841320038,0.05839770659804344
1733851133387098000,1.28309814453125,-0.1416550725698471,0.42614033818244934,0.009513868018984795
1733851133397066200,1.293066162109375,-0.17548814415931702,0.3232342004776001,-0.024853160604834557
1733851133407035100,1.30303515625,-0.206429123878479,0.17802199721336365,-0.025774503126740456
1733851133417004000,1.313004150390625,-0.22241607308387756,0.04157812148332596,-0.03233866021037102
1733851133426972200,1.32297216796875,-0.23042690753936768,0.028444649651646614,-0.05564775690436363
1733851133436941000,1.332941162109375,-0.22064244747161865,0.12505747377872467,-0.04092899709939957
1733851133446910200,1.34291015625,-0.18279457092285156,0.19093778729438782,0.029967358335852623
1733851133456877800,1.3528779296875,-0.15565936267375946,0.2919355034828186,0.06288189440965652
1733851133466847000,1.362846923828125,-0.16982945799827576,0.39339038729667664,0.03260267525911331
1733851133476816000,1.37281591796875,-0.215557262301445,0.4055173695087433,-0.017909767106175423
1733851133486784000,1.382783935546875,-0.28060492873191833,0.34465500712394714,-0.0788932666182518
1733851133496753000,1.3927529296875,-0.35153260827064514,0.21496544778347015,-0.13434268534183502
1733851133506721000,1.402720947265625,-0.434994637966156,-0.010339958593249321,-0.19290722906589508
1733851133516690000,1.41268994140625,-0.5390264987945557,-0.2776142954826355,-0.26669222116470337
1733851133526659000,1.4226591796875,-0.6640691161155701,-0.4707200527191162,-0.3443543612957001
1733851133536627000,1.432626953125,-0.7823023200035095,-0.4920674264431,-0.4260593354701996
1733851133546596000,1.44259619140625,-0.8190834522247314,-0.3943188190460205,-0.4902375638484955
1733851133556565000,1.45256494140625,-0.6905869841575623,-0.4022212326526642,-0.5024116635322571
1733851133566533000,1.462533203125,-0.45178210735321045,-0.598953366279602,-0.45787397027015686
1733851133576502000,1.472501953125,-0.23376481235027313,-0.8821666836738586,-0.3932105600833893
1733851133586471200,1.48247119140625,-0.09570224583148956,-1.1460684537887573,-0.37781164050102234
1733851133596439000,1.49243896484375,-0.023276515305042267,-1.3427373170852661,-0.4376765787601471
1733851133606408200,1.502408203125,-0.013617664575576782,-1.4424188137054443,-0.5601893663406372
1733851133616377000,1.512377197265625,-0.06437031924724579,-1.3389803171157837,-0.7176218628883362
1733851133626345200,1.52234521484375,-0.17045579850673676,-0.8793647289276123,-0.8581770658493042
1733851133636314000,1.532314208984375,-0.32171428203582764,-0.13474620878696442,-0.9257673025131226
1733851133646283300,1.542283203125,-0.4534209668636322,0.4594370424747467,-0.8846755027770996
1733851133656251000,1.5522509765625,-0.5413966178894043,0.6821308135986328,-0.8035494685173035
1733851133666220000,1.562219970703125,-0.607543408870697,0.6302666664123535,-0.7591959238052368
1733851133676189000,1.57218896484375,-0.6679924130439758,0.4204002618789673,-0.7609466910362244
1733851133686157000,1.582156982421875,-0.7214767932891846,0.14636392891407013,-0.7748194336891174
1733851133696126000,1.5921259765625,-0.7696440815925598,-0.07100009173154831,-0.7841612696647644
1733851133706094000,1.602093994140625,-0.7987439632415771,-0.1671067476272583,-0.7994407415390015
1733851133716063000,1.61206298828125,-0.8071611523628235,-0.08644998073577881,-0.8457499146461487
1733851133726032100,1.6220322265625,-0.7977875471115112,0.19137580692768097,-0.9476647973060608
1733851133736000000,1.632,-0.7970727682113647,0.5470998287200928,-1.0620176792144775
1733851133745969200,1.64196923828125,-0.7748017907142639,0.7403601408004761,-1.0922821760177612
1733851133755938000,1.65193798828125,-0.7286028265953064,0.8028547167778015,-1.0149474143981934
1733851133765906200,1.66190625,-0.6812443137168884,0.921220600605011,-0.8416960835456848
1733851133775875000,1.671875,-0.6212795376777649,1.1455849409103394,-0.6345189213752747
1733851133785844000,1.681843994140625,-0.5128277540206909,1.4254150390625,-0.44676414132118225
1733851133795812000,1.69181201171875,-0.38561415672302246,1.732962727546692,-0.291479229927063
1733851133805781200,1.70178125,-0.2573048174381256,2.027151584625244,-0.19140660762786865
1733851133815750100,1.711750244140625,-0.1508345603942871,2.2576160430908203,-0.1620391309261322
1733851133825718300,1.72171826171875,-0.09819754958152771,2.3763792514801025,-0.16435839235782623
1733851133835687200,1.731687255859375,-0.1109602153301239,2.3446013927459717,-0.1677781492471695
1733851133845655300,1.7416552734375,-0.258660227060318,2.2562921047210693,-0.1749759316444397
1733851133855624200,1.751624267578125,-0.5014774203300476,2.4111106395721436,-0.11777549237012863
1733851133865593000,1.761593017578125,-0.6781583428382874,3.0118205547332764,0.16524629294872284
1733851133875561200,1.771561279296875,-0.5239432454109192,2.076120138168335,0.5853990912437439
1733851133885530000,1.781530029296875,-0.19437463581562042,0.16287559270858765,0.568712055683136
1733851133895499300,1.791499267578125,-0.04805177450180054,-1.1182376146316528,0.1582728773355484
1733851133905467100,1.801467041015625,-0.029545512050390244,-1.5427672863006592,-0.19620303809642792
1733851133915436000,1.81143603515625,-0.009350228123366833,-1.524998664855957,-0.32779809832572937
1733851133925405000,1.821405029296875,0.067359559237957,-1.3731189966201782,-0.28321367502212524
1733851133935373000,1.831373046875,0.18171410262584686,-1.2125096321105957,-0.15071342885494232
1733851133945342000,1.841342041015625,0.2607779800891876,-1.0593231916427612,-0.02662561647593975
1733851133955311000,1.85131103515625,0.2517661154270172,-0.9789369702339172,0.019993815571069717
1733851133965279000,1.861279052734375,0.13783322274684906,-0.9632328748703003,-0.009859226644039154
1733851133975248100,1.871248046875,-0.0744638592004776,-0.8523340225219727,-0.08612683415412903
1733851133985217000,1.881217041015625,-0.3893762528896332,-0.40023747086524963,-0.2068789303302765
1733851133995185200,1.89118505859375,-0.7111444473266602,0.3617094159126282,-0.3250231146812439
1733851134005154000,1.901154052734375,-0.9117734432220459,1.114690899848938,-0.3871476352214813
1733851134015122200,1.9111220703125,-0.98616623878479,1.6013904809951782,-0.3752795159816742
1733851134025091000,1.921091064453125,-0.9599442481994629,1.71623694896698,-0.3077373504638672
1733851134035060200,1.931060302734375,-0.8456094264984131,1.4692740440368652,-0.20466473698616028
1733851134045028000,1.941028076171875,-0.6407089233398438,0.971842348575592,-0.09592460095882416
1733851134054997200,1.950997314453125,-0.40806180238723755,0.41247278451919556,0.002569480100646615
1733851134064966100,1.960966064453125,-0.17795716226100922,-0.06620623171329498,0.10715280473232269
1733851134074934000,1.97093408203125,0.04371611401438713,-0.373646080493927,0.230863556265831
1733851134084903200,1.980903076171875,0.2423417568206787,-0.4708249866962433,0.3291950225830078
1733851134094872300,1.990872314453125,0.38825926184654236,-0.384583055973053,0.36204245686531067
1733851134104840000,2.00083984375,0.4823334813117981,-0.18991884589195251,0.3159755766391754
1733851134114809000,2.01080908203125,0.5013710856437683,0.0061686355620622635,0.21678265929222107
1733851134124778000,2.020778076171875,0.4730190932750702,0.09739002585411072,0.09235060960054398
1733851134134746000,2.03074609375,0.4303416609764099,0.05533178895711899,-0.02574486844241619
1733851134144715000,2.040715087890625,0.3746514320373535,-0.06205063685774803,-0.1074761301279068
1733851134154683100,2.05068310546875,0.316109299659729,-0.20142289996147156,-0.1281673014163971
1733851134164652000,2.060652099609375,0.28398510813713074,-0.3311401307582855,-0.06839337199926376
1733851134174621200,2.07062109375,0.29575255513191223,-0.40371713042259216,0.06441793590784073
1733851134184589000,2.080589111328125,0.32438817620277405,-0.40013569593429565,0.23261573910713196
1733851134194558200,2.09055810546875,0.3434027135372162,-0.3583157956600189,0.3960890769958496
1733851134204527000,2.100527099609375,0.3656795620918274,-0.26354625821113586,0.4958765506744385
1733851134214495200,2.1104951171875,0.40986353158950806,-0.08953692018985748,0.5167089104652405
1733851134224464100,2.120464111328125,0.4672513008117676,0.08266863226890564,0.49772927165031433
1733851134234433300,2.130433349609375,0.5042737722396851,0.17309360206127167,0.46839189529418945
1733851134244401200,2.140401123046875,0.5051159858703613,0.18776586651802063,0.4476901590824127
1733851134254370300,2.150370361328125,0.4998554289340973,0.1619877964258194,0.4630294442176819
1733851134264338000,2.160337890625,0.5078240036964417,0.1683935523033142,0.5110774040222168
1733851134274307000,2.17030712890625,0.5306997895240784,0.2215302735567093,0.573599100112915
1733851134284276000,2.18027587890625,0.5439087152481079,0.23888063430786133,0.6353554129600525
1733851134294244000,2.190244140625,0.5396983027458191,0.1597653180360794,0.6853479743003845
1733851134304213000,2.200212890625,0.5054891705513,0.006638046819716692,0.7269102334976196
1733851134314182100,2.21018212890625,0.45314955711364746,-0.16300851106643677,0.7390167117118835
1733851134324150000,2.22014990234375,0.40495264530181885,-0.28895995020866394,0.703607439994812
1733851134334119200,2.230119140625,0.3665589392185211,-0.39674288034439087,0.6118801832199097
1733851134344088000,2.240088134765625,0.35763588547706604,-0.49824681878089905,0.4832966923713684
1733851134354056200,2.25005615234375,0.35792219638824463,-0.6204757690429688,0.3738285303115845
1733851134364025000,2.260025146484375,0.3743477463722229,-0.728610098361969,0.3151493966579437
1733851134373994200,2.269994140625,0.4097001254558563,-0.7849982380867004,0.310642808675766
1733851134383962000,2.279962158203125,0.47214365005493164,-0.7758642435073853,0.3381301760673523
1733851134393931300,2.28993115234375,0.5556052327156067,-0.6312010884284973,0.39105305075645447
1733851134403899100,2.299899169921875,0.6309394240379333,-0.3070515990257263,0.4698556363582611
1733851134413868300,2.309868408203125,0.698215663433075,0.1039857417345047,0.5730597972869873
1733851134423837200,2.319837158203125,0.7618622779846191,0.49311593174934387,0.6756932139396667
1733851134433805300,2.329805419921875,0.7950993180274963,0.8039672374725342,0.7364018559455872
1733851134443774200,2.339774169921875,0.795093834400177,1.0583959817886353,0.7317924499511719
1733851134453743000,2.3497431640625,0.7609332203865051,1.2836099863052368,0.6615779399871826
1733851134463711000,2.3597109375,0.69466632604599,1.4381312131881714,0.5717692375183105
1733851134473680100,2.36968017578125,0.6017025113105774,1.5312681198120117,0.49988415837287903
1733851134483649000,2.37964892578125,0.48086509108543396,1.5555020570755005,0.4726163148880005
1733851134493617200,2.3896171875,0.35608935356140137,1.49321448802948,0.5093026757240295
1733851134503586000,2.3995859375,0.2508739233016968,1.427123785018921,0.562454879283905
1733851134513555000,2.409554931640625,0.18137423694133759,1.4502984285354614,0.5809471011161804
1733851134523523000,2.419523193359375,0.12747444212436676,1.5293664932250977,0.5669233798980713
1733851134533492000,2.429491943359375,0.07726507633924484,1.426917314529419,0.5681308507919312
1733851134543460000,2.439460205078125,0.03710910677909851,1.1484166383743286,0.5668262839317322
1733851134553429200,2.44942919921875,0.003972191829234362,0.8920799493789673,0.5124077796936035
1733851134563398100,2.459398193359375,-0.029071399942040443,0.5812077522277832,0.459322065114975
1733851134573366300,2.4693662109375,-0.05647293105721474,0.22678546607494354,0.42354249954223633
1733851134583335200,2.479335205078125,-0.06202712282538414,-0.017490917816758156,0.3560441732406616
1733851134593304000,2.489303955078125,-0.021615250036120415,-0.24779176712036133,0.3192552626132965
1733851134603272200,2.499272216796875,0.05661008879542351,-0.3872041702270508,0.3248918652534485
1733851134613241000,2.509240966796875,0.12441603094339371,-0.45686420798301697,0.3748812675476074
1733851134623210200,2.519210205078125,0.15368212759494781,-0.45328834652900696,0.41004669666290283
1733851134633178000,2.52917822265625,0.14278553426265717,-0.3746529221534729,0.3907531797885895
1733851134643147300,2.539147216796875,0.09478515386581421,-0.23565252125263214,0.32247284054756165
1733851134653116200,2.5491162109375,0.009241760708391666,-0.019400643184781075,0.2580839991569519
1733851134663084000,2.559083984375,-0.06838402897119522,0.2280644178390503,0.24005800485610962
1733851134673053000,2.569052978515625,-0.08945629745721817,0.4430060088634491,0.2523362636566162
1733851134683022000,2.57902197265625,-0.08286502212285995,0.5369659066200256,0.2702016830444336
1733851134692990000,2.588989990234375,-0.060255054384469986,0.5315967202186584,0.2417934685945511
1733851134702959000,2.598958984375,-0.03891011327505112,0.4992446303367615,0.1707186996936798
1733851134712927000,2.608927001953125,-0.02966175228357315,0.5270462036132812,0.10721190273761749
1733851134722895600,2.6188955078125,-0.029685454443097115,0.6105071306228638,0.07296542823314667
1733851134732864500,2.628864501953125,-0.05299317091703415,0.6659131050109863,0.05864134803414345
1733851134742832600,2.63883251953125,-0.08819883316755295,0.6313720345497131,0.033278822898864746
1733851134752801500,2.648801513671875,-0.12611478567123413,0.5026625394821167,-0.01664293371140957
1733851134762770700,2.658770751953125,-0.15409724414348602,0.39428091049194336,-0.07266412675380707
1733851134772738800,2.66873876953125,-0.15755508840084076,0.3612510561943054,-0.07227130979299545
1733851134782707700,2.678707763671875,-0.1402011513710022,0.3518655002117157,-0.030367612838745117
1733851134792676600,2.688676513671875,-0.12584884464740753,0.3601521849632263,-0.005241754464805126
1733851134802644700,2.698644775390625,-0.10562952607870102,0.34691962599754333,0.005304753314703703
1733851134812613600,2.708613525390625,-0.08823589235544205,0.3298974931240082,-0.00566107826307416
1733851134822581500,2.71858154296875,-0.09337081015110016,0.2768198549747467,-0.026633745059370995
1733851134832550400,2.72855029296875,-0.1094946563243866,0.1943894326686859,-0.05962977930903435
1733851134842519600,2.73851953125,-0.12926997244358063,0.08738841861486435,-0.0892164334654808
1733851134852487700,2.74848779296875,-0.14693205058574677,0.010090701282024384,-0.09222367405891418
1733851134862456600,2.75845654296875,-0.162899449467659,-0.0007052159635350108,-0.06660346686840057
1733851134872425500,2.768425537109375,-0.16851072013378143,-0.005881601944565773,-0.04378603398799896
1733851134882393600,2.7783935546875,-0.14822836220264435,-0.01094560232013464,-0.05424826219677925
1733851134892362500,2.788362548828125,-0.10107256472110748,0.0062586842104792595,-0.07470453530550003
1733851134902331600,2.79833154296875,-0.05499320477247238,0.0434548556804657,-0.07035445421934128
1733851134912299500,2.808299560546875,-0.011442001909017563,0.11252740025520325,-0.054251912981271744
1733851134922268700,2.8182685546875,0.018513627350330353,0.1915200799703598,-0.03149382025003433
1733851134932237600,2.828237548828125,0.020767193287611008,0.21282057464122772,-0.016644567251205444
1733851134942205700,2.838205810546875,0.00879678875207901,0.165604829788208,-0.032894350588321686
1733851134952174600,2.848174560546875,-0.00793185830116272,0.06973236799240112,-0.06142878904938698
1733851134962143700,2.858143798828125,-0.027602624148130417,-0.07904253900051117,-0.09266700595617294
1733851134972111600,2.868111572265625,-0.06125352904200554,-0.25663384795188904,-0.14866556227207184
1733851134982080800,2.878080810546875,-0.0985216349363327,-0.4000427722930908,-0.22867977619171143
1733851134992048600,2.888048583984375,-0.13145509362220764,-0.3929201364517212,-0.3027023375034332
1733851135002017800,2.898017822265625,-0.13581015169620514,-0.2761983275413513,-0.295772522687912
1733851135011986700,2.907986572265625,-0.12342032790184021,-0.09706132113933563,-0.2067774087190628
1733851135021954600,2.91795458984375,-0.12849147617816925,0.12288346141576767,-0.10505066066980362
1733851135031923500,2.92792333984375,-0.15858972072601318,0.3078834116458893,-0.036204755306243896
1733851135041892600,2.937892578125,-0.1996496617794037,0.389045774936676,-0.00955642107874155
1733851135051860500,2.947860595703125,-0.24487918615341187,0.3332749009132385,-0.015096329152584076
1733851135061829600,2.95782958984375,-0.29567867517471313,0.16560372710227966,-0.04159926250576973
1733851135071798500,2.967798583984375,-0.3586142063140869,-0.07052119076251984,-0.08799685537815094
1733851135081766700,2.9777666015625,-0.4250434339046478,-0.2998626232147217,-0.14642266929149628
1733851135091735600,2.987735595703125,-0.49369415640830994,-0.46163448691368103,-0.20558877289295197
1733851135101703700,2.99770361328125,-0.5489976406097412,-0.5111235976219177,-0.23662231862545013
1733851135111672600,3.007672607421875,-0.5754473209381104,-0.41340509057044983,-0.23257404565811157
1733851135121641700,3.017641845703125,-0.5624167323112488,-0.1926703006029129,-0.18324591219425201
1733851135131609600,3.027609619140625,-0.5113836526870728,0.04388604685664177,-0.10591623187065125
1733851135141578800,3.037578857421875,-0.4615321457386017,0.21089115738868713,-0.03647786006331444
1733851135151547600,3.047547607421875,-0.4500004053115845,0.2415159046649933,-0.020033106207847595
1733851135161515800,3.057515869140625,-0.4599916934967041,0.11762335151433945,-0.07794879376888275
1733851135171484700,3.067484619140625,-0.4827273488044739,-0.08148548752069473,-0.19087933003902435
1733851135181453800,3.077453857421875,-0.5313267707824707,-0.2161213904619217,-0.32528162002563477
1733851135191421400,3.08742138671875,-0.6086601614952087,-0.16653786599636078,-0.43754053115844727
1733851135201390800,3.097390869140625,-0.6859898567199707,0.09357847273349762,-0.49547383189201355
1733851135211359700,3.10735986328125,-0.7106563448905945,0.5048664212226868,-0.4611600637435913
1733851135221327600,3.11732763671875,-0.6540617942810059,0.8618202805519104,-0.3150327205657959
1733851135231296500,3.127296630859375,-0.5582056045532227,1.0169705152511597,-0.12217697501182556
1733851135241264600,3.1372646484375,-0.44753625988960266,0.9419572353363037,0.04990505054593086
1733851135251233500,3.147233642578125,-0.33149486780166626,0.6880993843078613,0.1547265350818634
1733851135261202700,3.15720263671875,-0.2654776871204376,0.3323184847831726,0.17594441771507263
1733851135271170600,3.167170654296875,-0.2934233248233795,-0.0026158320251852274,0.11256171762943268
1733851135281139700,3.1771396484375,-0.3921457827091217,-0.1713367998600006,-0.005918804556131363
1733851135291108600,3.187108642578125,-0.4979928731918335,-0.11716785281896591,-0.14555951952934265
1733851135301076700,3.19707666015625,-0.5673441290855408,0.07462844997644424,-0.2709023058414459
1733851135311045600,3.207045654296875,-0.583316445350647,0.24350588023662567,-0.34080734848976135
1733851135321014500,3.2170146484375,-0.5302026867866516,0.2960224151611328,-0.36061644554138184
1733851135330982700,3.226982666015625,-0.45253583788871765,0.23694418370723724,-0.3494753837585449
1733851135340951800,3.236951904296875,-0.3844910264015198,0.1163567528128624,-0.3351283669471741
1733851135350920700,3.246920654296875,-0.3406742811203003,0.019128473475575447,-0.3070884644985199
1733851135360888800,3.256888916015625,-0.32087287306785583,0.00034047244116663933,-0.26084446907043457
1733851135370857700,3.266857666015625,-0.31424611806869507,0.0447247177362442,-0.21199090778827667
1733851135380825600,3.27682568359375,-0.2996678650379181,0.10442876070737839,-0.1708030253648758
1733851135390794500,3.28679443359375,-0.27857694029808044,0.16288940608501434,-0.13900569081306458
1733851135400763400,3.296763427734375,-0.2704358696937561,0.1932365596294403,-0.10552749782800674
1733851135410731500,3.3067314453125,-0.29835644364356995,0.1600402444601059,-0.0777890756726265
1733851135420700700,3.31670068359375,-0.36591941118240356,0.04473024606704712,-0.08958247303962708
1733851135430669600,3.326669677734375,-0.4381067752838135,-0.15444490313529968,-0.14609554409980774
1733851135440637700,3.3366376953125,-0.482425332069397,-0.4011725187301636,-0.2267889827489853
1733851135450606600,3.346606689453125,-0.47702816128730774,-0.662274956703186,-0.3048454523086548
1733851135460575500,3.356575439453125,-0.43110522627830505,-0.9038469195365906,-0.3579643964767456
1733851135470543600,3.366543701171875,-0.3841657042503357,-1.0531342029571533,-0.36419856548309326
1733851135480512500,3.376512451171875,-0.37055033445358276,-1.0256121158599854,-0.31690001487731934
1733851135490480600,3.386480712890625,-0.40028560161590576,-0.7793095111846924,-0.21264630556106567
1733851135500449500,3.396449462890625,-0.4752193093299866,-0.10696587711572647,-0.058857694268226624
1733851135510418700,3.406418701171875,-0.5766175985336304,1.8864635229110718,0.10491792857646942
1733851135520386800,3.41638671875,-0.6560207605361938,3.888442277908325,0.2730094790458679
1733851135530355700,3.426355712890625,-0.5726297497749329,2.706756830215454,0.4530447721481323
1733851135540324600,3.43632470703125,-0.43295058608055115,0.8185402154922485,0.39023178815841675
1733851135550292700,3.446292724609375,-0.407739520072937,-0.276290625333786,0.02433287911117077
1733851135560261600,3.45626171875,-0.33253347873687744,-0.6554316878318787,-0.44821083545684814
1733851135570230800,3.466230712890625,-0.16857995092868805,-0.9012068510055542,-0.7453075051307678
1733851135580198400,3.476198486328125,-0.020274950191378593,-1.0765721797943115,-0.7970026135444641
1733851135590167600,3.48616748046875,0.1074284166097641,-1.1251658201217651,-0.6597616672515869
1733851135600135700,3.4961357421875,0.20268909633159637,-1.0528122186660767,-0.43754300475120544
1733851135610104600,3.5061044921875,0.2670494318008423,-0.9019718766212463,-0.20534199476242065
1733851135620073500,3.516073486328125,0.2862689793109894,-0.7737420201301575,-0.0006649626884609461
1733851135630041600,3.52604150390625,0.23450618982315063,-0.7360247373580933,0.1371011584997177
1733851135640010500,3.536010498046875,0.11928291618824005,-0.6496203541755676,0.194258451461792
1733851135649979600,3.545979736328125,0.023207517340779305,-0.3828645646572113,0.15085692703723907
1733851135659947500,3.555947509765625,-0.038044583052396774,0.04530804231762886,0.056914906948804855
1733851135669916700,3.565916748046875,-0.06166229397058487,0.45866659283638,-0.005168703384697437
1733851135679885600,3.575885498046875,-0.03621317073702812,0.7057753205299377,0.00038686953485012054
1733851135689853700,3.585853759765625,0.015607682056725025,0.7503992915153503,0.04821111634373665
1733851135699822600,3.595822509765625,0.06864689290523529,0.5923336744308472,0.10486441105604172
1733851135709791700,3.605791748046875,0.11113549768924713,0.24770788848400116,0.14765873551368713
1733851135719759600,3.615759521484375,0.14883995056152344,-0.1275426298379898,0.17383021116256714
1733851135729728800,3.625728759765625,0.20118971168994904,-0.3445953130722046,0.18224899470806122
1733851135739696600,3.635696533203125,0.281902939081192,-0.36554816365242004,0.16966386139392853
1733851135749665800,3.645665771484375,0.35446876287460327,-0.22327224910259247,0.15303827822208405
1733851135759634700,3.655634765625,0.411226749420166,-0.0360318198800087,0.13684917986392975
1733851135769602800,3.665602783203125,0.4624510407447815,0.09738563001155853,0.11697161197662354
1733851135779571700,3.67557177734375,0.5013254880905151,0.15721693634986877,0.10917726904153824
1733851135789540900,3.685540771484375,0.5148692727088928,0.11358370631933212,0.11172511428594589
1733851135799508700,3.6955087890625,0.497552752494812,-0.027002373710274696,0.12401508539915085
1733851135809478000,3.705477783203125,0.446447491645813,-0.1882125586271286,0.15398629009723663
1733851135819446800,3.71544677734375,0.3822146952152252,-0.2942523956298828,0.20350705087184906
1733851135829415000,3.725414794921875,0.32513943314552307,-0.2960990369319916,0.25160348415374756
1733851135839383800,3.7353837890625,0.2981412410736084,-0.20524048805236816,0.27947351336479187
1733851135849351700,3.7453515625,0.30275940895080566,-0.04542951285839081,0.26806640625
1733851135859320600,3.755320556640625,0.3228040039539337,0.15826070308685303,0.21369072794914246
1733851135869289700,3.765289794921875,0.3535371422767639,0.37106403708457947,0.1602911502122879
1733851135879257600,3.775257568359375,0.3837541341781616,0.5408551096916199,0.1204914078116417
1733851135889226800,3.785226806640625,0.40502747893333435,0.614962100982666,0.11001719534397125
1733851135899195600,3.795195556640625,0.4153420627117157,0.6097041964530945,0.124549999833107
1733851135909163800,3.805163818359375,0.41917115449905396,0.5953084826469421,0.15534651279449463
1733851135919132700,3.815132568359375,0.4306248724460602,0.5367322564125061,0.20123891532421112
1733851135929101800,3.825101806640625,0.4597364068031311,0.4259870648384094,0.2465432733297348
1733851135939069700,3.835069580078125,0.4868888854980469,0.28302058577537537,0.2813401222229004
1733851135949038800,3.845038818359375,0.5022486448287964,0.14734984934329987,0.30078813433647156
1733851135959006700,3.8550068359375,0.511471688747406,0.0018940549343824387,0.32161715626716614
1733851135968976000,3.864975830078125,0.5248282551765442,-0.17466500401496887,0.36024177074432373
1733851135978944800,3.87494482421875,0.5472127795219421,-0.3454633057117462,0.3730868697166443
1733851135988913000,3.884912841796875,0.5723423957824707,-0.44050008058547974,0.3288584351539612
1733851135998881800,3.8948818359375,0.5823299884796143,-0.45472633838653564,0.22780375182628632
1733851136008850700,3.9048505859375,0.5725234746932983,-0.4148028790950775,0.07711970061063766
1733851136018818800,3.91481884765625,0.5531818270683289,-0.34984681010246277,-0.08227957785129547
1733851136028788000,3.9247880859375,0.5144379138946533,-0.30417174100875854,-0.17705801129341125
1733851136038756900,3.9347568359375,0.48000872135162354,-0.2821306884288788,-0.16235071420669556
1733851136048724700,3.944724853515625,0.45629194378852844,-0.2723206579685211,-0.038862600922584534
1733851136058693600,3.954693603515625,0.4432699978351593,-0.27053961157798767,0.11758865416049957
1733851136068662500,3.96466259765625,0.4317488968372345,-0.2499818652868271,0.2303767204284668
1733851136078630700,3.974630615234375,0.42145296931266785,-0.20262765884399414,0.2750838100910187
1733851136088599800,3.984599853515625,0.4170677959918976,-0.11886085569858551,0.28223225474357605
1733851136098567700,3.994567626953125,0.3994824290275574,0.015300944447517395,0.2728845477104187
1733851136108536800,4.004536865234375,0.36952558159828186,0.21085844933986664,0.2516317367553711
1733851136118505700,4.014505615234375,0.3263481855392456,0.49537909030914307,0.23120266199111938
1733851136128473900,4.024473876953125,0.26523423194885254,0.8502927422523499,0.24144384264945984
1733851136138442800,4.03444287109375,0.19225291907787323,1.1859140396118164,0.30662769079208374
1733851136148411600,4.04441162109375,0.11269550025463104,1.4377810955047607,0.39334315061569214
1733851136158379800,4.0543798828125,0.04301382601261139,1.5702998638153076,0.4363279640674591
1733851136168348700,4.0643486328125,-0.014143737033009529,1.5740211009979248,0.40580493211746216
1733851136178317800,4.07431787109375,-0.04741041734814644,1.4502497911453247,0.34018588066101074
1733851136188286000,4.084285888671875,-0.048780348151922226,1.2524147033691406,0.28004106879234314
1733851136198254800,4.0942548828125,-0.019592227414250374,1.0154669284820557,0.23409810662269592
1733851136208223000,4.104222900390625,0.03545611351728439,0.7322069406509399,0.20552238821983337
1733851136218192000,4.11419189453125,0.08902134001255035,0.5184439420700073,0.1748378723859787
1733851136228160800,4.124160888671875,0.13796889781951904,0.43080487847328186,0.1848023533821106
1733851136238128600,4.134128662109375,0.17347009479999542,0.4530051052570343,0.22577038407325745
1733851136248097500,4.14409765625,0.17799320816993713,0.5257189869880676,0.25784629583358765
1733851136258066700,4.154066650390625,0.14107954502105713,0.597756028175354,0.2400682121515274
1733851136268034800,4.164034912109375,0.0810052901506424,0.5956779718399048,0.18988333642482758
1733851136278003700,4.174003662109375,0.047554388642311096,0.4867495894432068,0.16099683940410614
1733851136287972600,4.18397265625,0.060357268899679184,0.29259583353996277,0.1629643738269806
1733851136297940700,4.193940673828125,0.09288565069437027,0.09225571155548096,0.15799233317375183
1733851136307909600,4.20390966796875,0.13150654733181,-0.08391079306602478,0.12897266447544098
1733851136317877800,4.213877685546875,0.17141573131084442,-0.2076479196548462,0.1066431924700737
1733851136327846700,4.2238466796875,0.21689826250076294,-0.2304360568523407,0.11157643049955368
1733851136337815800,4.23381591796875,0.2649611532688141,-0.17836062610149384,0.13641750812530518
1733851136347783700,4.24378369140625,0.2892734110355377,-0.0828639417886734,0.14509648084640503
1733851136357752800,4.2537529296875,0.27496302127838135,0.030635153874754906,0.13896611332893372
1733851136367721700,4.2637216796875,0.23984338343143463,0.08103068917989731,0.1111062541604042
1733851136377689900,4.27368994140625,0.18954560160636902,0.11636541038751602,0.07511095702648163
1733851136387658800,4.28365869140625,0.13954421877861023,0.13476519286632538,0.06431423127651215
1733851136397628000,4.2936279296875,0.0910586267709732,0.1511082798242569,0.07539325952529907
1733851136407595500,4.303595458984375,0.060597918927669525,0.16054998338222504,0.10034947842359543
1733851136417564700,4.313564697265625,0.043148089200258255,0.14727118611335754,0.12700745463371277
1733851136427532800,4.32353271484375,0.030031055212020874,0.09215956926345825,0.14159604907035828
1733851136437501700,4.333501708984375,0.03485453128814697,0.018055418506264687,0.13841380178928375
1733851136447470600,4.343470703125,0.036312077194452286,-0.042559463530778885,0.11556839942932129
1733851136457438700,4.353438720703125,0.03849117457866669,-0.07390769571065903,0.08945406228303909
1733851136467407600,4.36340771484375,0.04101691395044327,-0.08142580091953278,0.06079152226448059
1733851136477376800,4.373376708984375,0.03254685923457146,-0.07820900529623032,0.02783832885324955
1733851136487344600,4.3833447265625,0.020138926804065704,-0.11199306696653366,0.012454045936465263
1733851136497313800,4.393313720703125,0.003732199314981699,-0.1826077550649643,0.004524893127381802
1733851136507282700,4.40328271484375,-0.03028275817632675,-0.24694839119911194,-0.011717192828655243
1733851136517250800,4.413250732421875,-0.05785476043820381,-0.2527531385421753,-0.03757663443684578
1733851136527219700,4.4232197265625,-0.055410247296094894,-0.16943402588367462,-0.054774798452854156
1733851136537188900,4.43318896484375,-0.03937971219420433,-0.0052404869347810745,-0.040759097784757614
1733851136547156700,4.44315673828125,-0.035490963608026505,0.16321617364883423,-0.002337409183382988
1733851136557126000,4.4531259765625,-0.037296827882528305,0.2719271779060364,0.01632847636938095
1733851136567093800,4.46309375,-0.04057091847062111,0.3276897668838501,-0.0025927501264959574
1733851136577063000,4.47306298828125,-0.0545923188328743,0.33722594380378723,-0.04442449286580086
1733851136587031800,4.48303173828125,-0.07838419824838638,0.29392507672309875,-0.08235136419534683
1733851136596999700,4.492999755859375,-0.10451764613389969,0.2072262465953827,-0.10693169385194778
1733851136606968600,4.502968505859375,-0.1368872970342636,0.14641588926315308,-0.1165664792060852
1733851136616937700,4.512937744140625,-0.16725267469882965,0.16335831582546234,-0.10949905961751938
1733851136626905600,4.522905517578125,-0.1842700093984604,0.21674376726150513,-0.08769762516021729
1733851136636874800,4.532874755859375,-0.17991407215595245,0.267130047082901,-0.06099853292107582
1733851136646843600,4.54284375,-0.16309195756912231,0.27935609221458435,-0.038274042308330536
1733851136656811800,4.552811767578125,-0.13774262368679047,0.24868203699588776,-0.021867841482162476
1733851136666780700,4.56278076171875,-0.12860345840454102,0.20498090982437134,-0.015591570176184177
1733851136676748800,4.572748779296875,-0.14382825791835785,0.18334683775901794,-0.0090695321559906
1733851136686717700,4.5827177734375,-0.1757153421640396,0.25533396005630493,-0.011666113510727882
1733851136696686800,4.592686767578125,-0.2214263379573822,0.3797386586666107,-0.030742915347218513
1733851136706654700,4.60265478515625,-0.2653796970844269,0.46075868606567383,-0.06667827814817429
1733851136716624000,4.612623779296875,-0.28678998351097107,0.5070908069610596,-0.10899637639522552
1733851136726592500,4.622592529296875,-0.28948163986206055,0.5551360845565796,-0.14309096336364746
1733851136736560600,4.632560546875,-0.274689257144928,0.5477334260940552,-0.14998306334018707
1733851136746529500,4.642529541015625,-0.2328517884016037,0.4303801953792572,-0.13036222755908966
1733851136756498700,4.652498779296875,-0.17656290531158447,0.23551183938980103,-0.11851946264505386
1733851136766466600,4.662466552734375,-0.13576248288154602,0.020983297377824783,-0.11807817965745926
1733851136776435700,4.672435791015625,-0.11895114928483963,-0.17605188488960266,-0.12257300317287445
1733851136786403600,4.682403564453125,-0.12620027363300323,-0.31469178199768066,-0.12463907897472382
1733851136796372700,4.692372802734375,-0.15974538028240204,-0.39253485202789307,-0.13479679822921753
1733851136806341600,4.702341552734375,-0.20707693696022034,-0.42644408345222473,-0.15886539220809937
1733851136816309500,4.7123095703125,-0.26794856786727905,-0.420745313167572,-0.19413484632968903
1733851136826278400,4.7222783203125,-0.339009165763855,-0.39165693521499634,-0.2302885800600052
1733851136836247600,4.73224755859375,-0.41155779361724854,-0.3160150647163391,-0.25196874141693115
1733851136846215400,4.74221533203125,-0.4574701488018036,-0.13541999459266663,-0.2534630298614502
1733851136856184600,4.7521845703125,-0.4619421660900116,0.1129809319972992,-0.23749077320098877
1733851136866152400,4.76215234375,-0.4268627464771271,0.30876854062080383,-0.1827697455883026
1733851136876121600,4.77212158203125,-0.3584190607070923,0.36235588788986206,-0.10817159712314606
1733851136886090500,4.782090576171875,-0.2742181420326233,0.2839713394641876,-0.0647950991988182
1733851136896058600,4.79205859375,-0.21773944795131683,0.10246726870536804,-0.06408132612705231
1733851136906027500,4.802027587890625,-0.19468073546886444,-0.16586405038833618,-0.09034702181816101
1733851136915996700,4.81199658203125,-0.19982370734214783,-0.4421945810317993,-0.11128298938274384
1733851136925964500,4.821964599609375,-0.22349441051483154,-0.6498221158981323,-0.10760410130023956
1733851136935933700,4.83193359375,-0.2733573913574219,-0.7521942257881165,-0.09205809980630875
1733851136945902600,4.841902587890625,-0.3443452715873718,-0.764183521270752,-0.07705491781234741
1733851136955870700,4.85187060546875,-0.4103291630744934,-0.7101414203643799,-0.07141850888729095
1733851136965839600,4.861839599609375,-0.4615153670310974,-0.6068539023399353,-0.08999352902173996
1733851136975807500,4.871807373046875,-0.4828828275203705,-0.4932112991809845,-0.12883467972278595
1733851136985776400,4.8817763671875,-0.4645608067512512,-0.4167844355106354,-0.1747955083847046
1733851136995745500,4.89174560546875,-0.4041935205459595,-0.4071204662322998,-0.20634953677654266
1733851137005713400,4.90171337890625,-0.3425176441669464,-0.4559950530529022,-0.22390829026699066
1733851137015682600,4.9116826171875,-0.2874394655227661,-0.5202833414077759,-0.24728327989578247
1733851137025651500,4.9216513671875,-0.2418203055858612,-0.5568338632583618,-0.2810199558734894
1733851137035619600,4.93161962890625,-0.2027784287929535,-0.5655019283294678,-0.3007485568523407
1733851137045588500,4.94158837890625,-0.1540367156267166,-0.5788022875785828,-0.27210545539855957
1733851137055557400,4.951557373046875,-0.0937616154551506,-0.6400156021118164,-0.20739169418811798
1733851137065525500,4.961525390625,-0.021448269486427307,-0.7402369976043701,-0.13017120957374573
1733851137075494400,4.971494384765625,0.051479846239089966,-0.8423075079917908,-0.05710430070757866
1733851137085462500,4.981462646484375,0.12042802572250366,-0.9217463731765747,0.0034788837656378746
1733851137095431700,4.991431640625,0.19684737920761108,-0.963336706161499,0.05054017901420593
1733851137105400600,5.001400634765625,0.279262900352478,-0.9484613537788391,0.09418193250894547
1733851137115368700,5.01136865234375,0.33562397956848145,-0.8700206875801086,0.14878463745117188
1733851137125337600,5.021337646484375,0.35529887676239014,-0.7249072194099426,0.20221936702728271
1733851137135306500,5.031306396484375,0.35038328170776367,-0.5557323694229126,0.23260855674743652
1733851137145274600,5.041274658203125,0.3275884985923767,-0.40194204449653625,0.24189579486846924
1733851137155243500,5.051243408203125,0.29482901096343994,-0.30488383769989014,0.23441454768180847
1733851137165212700,5.061212646484375,0.21550969779491425,-0.2421182096004486,0.2168712317943573
1733851137175180500,5.0711806640625,0.08544361591339111,-0.1568913608789444,0.21369893848896027
1733851137185149400,5.0811494140625,-0.03132987394928932,0.0151246078312397,0.25350067019462585
1733851137195117600,5.09111767578125,-0.1800885796546936,0.6376482248306274,0.3535268306732178
1733851137205086500,5.10108642578125,-0.45364874601364136,2.2514102458953857,0.5384551286697388
1733851137215055400,5.111055419921875,-0.6392156481742859,4.445855140686035,0.4522826671600342
1733851137225023500,5.1210234375,-0.5596425533294678,4.7431254386901855,0.11477384716272354
1733851137234992400,5.130992431640625,-0.24718710780143738,3.098989248275757,-0.17522373795509338
1733851137244961500,5.14096142578125,0.0763842985033989,0.7176167964935303,-0.3601967990398407
1733851137254929700,5.1509296875,0.32710883021354675,-1.285216212272644,-0.4848058819770813
1733851137264898600,5.160898681640625,0.4879634976387024,-2.3959169387817383,-0.5534725785255432
1733851137274867500,5.170867431640625,0.4995245635509491,-2.8017499446868896,-0.5623560547828674
1733851137284835600,5.180835693359375,0.4125957787036896,-2.828725576400757,-0.5097181797027588
1733851137294804500,5.190804443359375,0.28349414467811584,-2.6551411151885986,-0.38416725397109985
1733851137304772600,5.200772705078125,0.16711346805095673,-2.399012327194214,-0.20388323068618774
1733851137314741500,5.210741455078125,0.09810863435268402,-2.100191354751587,0.004104437306523323
1733851137324710700,5.220710693359375,0.06580156087875366,-1.6737245321273804,0.1788618564605713
1733851137334678500,5.230678466796875,0.038932811468839645,-1.0389775037765503,0.24790087342262268
1733851137344647700,5.240647705078125,-0.01020597293972969,-0.21515069901943207,0.18626387417316437
1733851137354616600,5.250616455078125,-0.08853926509618759,0.645835280418396,0.03454950451850891
1733851137364584400,5.26058447265625,-0.14859728515148163,1.2521867752075195,-0.09785940498113632
1733851137374553300,5.27055322265625,-0.1708056628704071,1.4825892448425293,-0.13510645925998688
1733851137384522500,5.2805224609375,-0.15122397243976593,1.4576215744018555,-0.11129166185855865
1733851137394490400,5.290490478515625,-0.07911303639411926,1.295628309249878,-0.07116854935884476
1733851137404459500,5.30045947265625,0.040009625256061554,1.0142635107040405,-0.024820761755108833
1733851137414427400,5.310427490234375,0.18986506760120392,0.6206833720207214,0.034975647926330566
1733851137424396500,5.320396484375,0.3208039104938507,0.20964601635932922,0.10900460183620453
1733851137434365400,5.330365478515625,0.4051312804222107,-0.09139081090688705,0.18899106979370117
1733851137444333600,5.34033349609375,0.455953449010849,-0.2564151883125305,0.25908973813056946
1733851137454302500,5.350302490234375,0.47846755385398865,-0.34906846284866333,0.3110060691833496
1733851137464271600,5.360271728515625,0.4824087619781494,-0.41257181763648987,0.3308005630970001
1733851137474239500,5.370239501953125,0.4740524888038635,-0.42101046442985535,0.30858275294303894
1733851137484208600,5.380208740234375,0.44482937455177307,-0.3192995488643646,0.2518606185913086
1733851137494177500,5.390177490234375,0.3614543080329895,-0.047473229467868805,0.1659436970949173
1733851137504145700,5.400145751953125,0.2328720986843109,0.33987370133399963,0.0749453529715538
1733851137514114600,5.410114501953125,0.1696968674659729,0.5520129203796387,0.013830404728651047
1733851137524082400,5.42008251953125,0.1824643313884735,0.4710941016674042,0.011796815320849419
1733851137534051600,5.430051513671875,0.1347339153289795,0.3633992373943329,0.0627269521355629
1733851137544020700,5.440020751953125,0.04872392490506172,0.41412287950515747,0.13695989549160004
1733851137553988400,5.44998828125,0.020722059532999992,0.5130013227462769,0.18310365080833435
1733851137563957500,5.45995751953125,0.0324905700981617,0.5635156631469727,0.20837518572807312
1733851137573926400,5.469926513671875,0.057440925389528275,0.5549728870391846,0.24891257286071777
1733851137583894500,5.47989453125,0.1028403639793396,0.5317519903182983,0.3141840100288391
1733851137593863400,5.489863525390625,0.16933804750442505,0.526069164276123,0.38545161485671997
1733851137603832600,5.49983251953125,0.2251134216785431,0.5519564747810364,0.4294845759868622
1733851137613800400,5.509800537109375,0.26968732476234436,0.5941168069839478,0.4264993369579315
1733851137623769600,5.51976953125,0.3011927902698517,0.6235945224761963,0.37419670820236206
1733851137633737500,5.529737548828125,0.3149658441543579,0.6379330158233643,0.307227224111557
1733851137643706600,5.53970654296875,0.31986871361732483,0.637501060962677,0.30469241738319397
1733851137653675500,5.549675537109375,0.32878535985946655,0.5683483481407166,0.36419975757598877
1733851137663643600,5.5596435546875,0.3261594772338867,0.3936937153339386,0.4206782281398773
1733851137673612500,5.569612548828125,0.29616907238960266,0.15965233743190765,0.43089208006858826
1733851137683581700,5.579581787109375,0.25244608521461487,-0.03631158545613289,0.37317419052124023
1733851137693549600,5.589549560546875,0.18987882137298584,-0.13930435478687286,0.26942455768585205
1733851137703518700,5.599518798828125,0.1305025815963745,-0.16269277036190033,0.15267129242420197
1733851137713487600,5.609487548828125,0.08969736099243164,-0.13714568316936493,0.05583114176988602
1733851137723455500,5.61945556640625,0.079321950674057,-0.07652068883180618,0.005735219456255436
1733851137733424400,5.62942431640625,0.1049145832657814,-0.00040964619256556034,-0.00048213242553174496
1733851137743392500,5.639392578125,0.15343046188354492,0.09325026720762253,0.014862735755741596
1733851137753361400,5.649361328125,0.1995539367198944,0.21229423582553864,0.025311889126896858
1733851137763330600,5.65933056640625,0.21991167962551117,0.3495631217956543,0.014070154167711735
1733851137773298200,5.669298095703125,0.21797260642051697,0.47619691491127014,-0.008193561807274818
1733851137783267300,5.679267333984375,0.20916660130023956,0.5585591793060303,-0.029375813901424408
1733851137793236200,5.689236328125,0.19902139902114868,0.5574138164520264,-0.025970034301280975
1733851137803204400,5.699204345703125,0.20031224191188812,0.4689371883869171,0.008970372378826141
1733851137813173200,5.70917333984375,0.18614310026168823,0.32162001729011536,0.06356345117092133
1733851137823141400,5.719141357421875,0.14849185943603516,0.1583794504404068,0.10665658861398697
1733851137833110300,5.7291103515625,0.08233053237199783,0.03243285417556763,0.128215029835701
1733851137843079400,5.739079345703125,0.0022945546079427004,-0.029365794733166695,0.12400378286838531
1733851137853047300,5.74904736328125,-0.07868887484073639,-0.027617331594228745,0.10188231617212296
1733851137863016400,5.759016357421875,-0.145755797624588,0.04486112669110298,0.08031576871871948
1733851137872985300,5.7689853515625,-0.19314828515052795,0.1642557680606842,0.05992111936211586
1733851137882953500,5.778953369140625,-0.2261858582496643,0.30490291118621826,0.046058833599090576
1733851137892922400,5.78892236328125,-0.25170406699180603,0.43416714668273926,0.05667736008763313
1733851137902891500,5.7988916015625,-0.27162158489227295,0.5196053385734558,0.07508885860443115
1733851137912859400,5.808859375,-0.26885855197906494,0.5492941737174988,0.10854288190603256
1733851137922828500,5.81882861328125,-0.24930855631828308,0.5427918434143066,0.14554084837436676
1733851137932796400,5.82879638671875,-0.22697991132736206,0.5135158896446228,0.15858279168605804
1733851137942765600,5.838765625,-0.22468452155590057,0.5107579231262207,0.13243241608142853
1733851137952734500,5.848734375,-0.21216677129268646,0.5237767696380615,0.08591292053461075
1733851137962702300,5.858702392578125,-0.1864350438117981,0.5261022448539734,0.0536188930273056
1733851137972671200,5.868671142578125,-0.14641351997852325,0.527934193611145,0.05367395281791687
1733851137982640400,5.878640380859375,-0.10623706132173538,0.5196376442909241,0.07783174514770508
1733851137992608300,5.888608154296875,-0.08702841401100159,0.5041508078575134,0.1037176102399826
1733851138002577400,5.898577392578125,-0.08791471272706985,0.4439540207386017,0.12313738465309143
1733851138012546300,5.90854638671875,-0.1101984977722168,0.34751883149147034,0.11679956316947937
1733851138022514400,5.918514404296875,-0.16890017688274384,0.2736661732196808,0.09485937654972076
1733851138032483300,5.9284833984375,-0.22633235156536102,0.2123965322971344,0.06088157370686531
1733851138042451500,5.938451416015625,-0.2684718072414398,0.18638810515403748,0.0177982859313488
1733851138052420400,5.94842041015625,-0.2824750542640686,0.21849244832992554,-0.01459651067852974
1733851138062389200,5.95838916015625,-0.2613937258720398,0.2669800817966461,-0.018075929954648018
1733851138072357400,5.968357421875,-0.23251093924045563,0.28919872641563416,0.01222310122102499
1733851138082326500,5.978326416015625,-0.21013054251670837,0.28813880681991577,0.05622731149196625
1733851138092295400,5.98829541015625,-0.18938486278057098,0.2683737277984619,0.08151784539222717
1733851138102263600,5.998263671875,-0.19303791224956512,0.25043442845344543,0.09527786076068878
1733851138112232400,6.008232421875,-0.20387838780879974,0.2045026272535324,0.09380243718624115
1733851138122201300,6.018201416015625,-0.22133061289787292,0.11298016458749771,0.06955409049987793
1733851138132169500,6.02816943359375,-0.23726490139961243,0.014654426835477352,0.025641296058893204
1733851138142138400,6.038138427734375,-0.23089967668056488,-0.07645630836486816,-0.010774502530694008
1733851138152106200,6.048106201171875,-0.1927078366279602,-0.13348503410816193,-0.013186069205403328
1733851138162075400,6.058075439453125,-0.1368139386177063,-0.14922884106636047,0.015125196427106857
1733851138172044300,6.068044189453125,-0.08733291178941727,-0.1428259313106537,0.06053410470485687
1733851138182012400,6.078012451171875,-0.05502184480428696,-0.1577894389629364,0.0948428064584732
1733851138191981300,6.087981201171875,-0.05347505211830139,-0.2010747343301773,0.09121253341436386
1733851138201950200,6.0979501953125,-0.06633146107196808,-0.2627391815185547,0.05204330012202263
1733851138211918300,6.10791845703125,-0.08936415612697601,-0.32457417249679565,-0.0017250378150492907
1733851138221887200,6.11788720703125,-0.10680866241455078,-0.35245320200920105,-0.04343093931674957
1733851138231855400,6.12785546875,-0.12234184145927429,-0.30904221534729004,-0.07271360605955124
1733851138241824500,6.137824462890625,-0.12595601379871368,-0.1856723427772522,-0.08674393594264984
1733851138251793400,6.14779345703125,-0.11091779917478561,-0.02353404089808464,-0.08250903338193893
1733851138261761500,6.157761474609375,-0.08555412292480469,0.1182052493095398,-0.06756071001291275
1733851138271730400,6.16773046875,-0.07214415818452835,0.1871623545885086,-0.052778635174036026
1733851138281699300,6.17769921875,-0.05826935917139053,0.17014048993587494,-0.04859534278512001
1733851138291667500,6.18766748046875,-0.044669266790151596,0.13762149214744568,-0.06384765356779099
1733851138301636400,6.19763623046875,-0.013292969204485416,0.11471271514892578,-0.1162932887673378
1733851138311605500,6.20760546875,0.03418440744280815,0.006589746102690697,-0.19668610394001007
1733851138321573400,6.217573486328125,0.08563081920146942,-0.2597138583660126,-0.253500372171402
1733851138331542500,6.22754248046875,0.14174191653728485,-0.6904314160346985,-0.189649298787117
1733851138341510400,6.237510498046875,0.16987715661525726,-1.05844247341156,-0.02495408244431019
1733851138351479300,6.247479248046875,0.12542520463466644,-1.0993738174438477,0.1258254498243332
1733851138361448200,6.2574482421875,0.03893771767616272,-0.8196478486061096,0.20671497285366058
1733851138371416300,6.267416259765625,-0.03851882368326187,-0.37875768542289734,0.21066595613956451
1733851138381385200,6.27738525390625,-0.10397319495677948,0.10060305893421173,0.17584751546382904
1733851138391354400,6.287354248046875,-0.1574328988790512,0.5399888157844543,0.12006684392690659
1733851138401322200,6.297322265625,-0.21354836225509644,0.9324373006820679,0.06166691705584526
1733851138411291400,6.30729150390625,-0.255664587020874,1.25548255443573,0.01872788369655609
1733851138421260300,6.31726025390625,-0.25766700506210327,1.461793065071106,-0.011648664250969887
1733851138431228400,6.327228515625,-0.2356998324394226,1.5090757608413696,-0.0390390008687973
1733851138441197300,6.337197265625,-0.2074389010667801,1.3859013319015503,-0.06080448627471924
1733851138451165400,6.34716552734375,-0.15922924876213074,1.0979725122451782,-0.08445233106613159
1733851138461134300,6.35713427734375,-0.07945239543914795,0.6856768727302551,-0.11561770737171173
1733851138471103500,6.367103515625,0.02062336727976799,0.2391093671321869,-0.13718196749687195
1733851138481071400,6.3770712890625,0.11667000502347946,-0.14723940193653107,-0.14120467007160187
1733851138491040500,6.38704052734375,0.19703060388565063,-0.4219304323196411,-0.13951151072978973
1733851138501009400,6.397009521484375,0.27617761492729187,-0.5946134924888611,-0.15571658313274384
1733851138510977300,6.406977294921875,0.33780041337013245,-0.7078633308410645,-0.17531530559062958
1733851138520946200,6.4169462890625,0.36969655752182007,-0.7728819847106934,-0.18997973203659058
1733851138530914300,6.426914306640625,0.3746444582939148,-0.7846293449401855,-0.19191887974739075
1733851138540883200,6.43688330078125,0.3462224006652832,-0.728042483329773,-0.18604794144630432
1733851138550852400,6.446852294921875,0.29551926255226135,-0.6353213787078857,-0.18413525819778442
1733851138560820200,6.4568203125,0.23192697763442993,-0.5550126433372498,-0.191617950797081
1733851138570789400,6.466789306640625,0.16041532158851624,-0.5162854790687561,-0.20341014862060547
1733851138580758300,6.47675830078125,0.10079460591077805,-0.5108758211135864,-0.20303650200366974
1733851138590726400,6.486726318359375,0.06768368184566498,-0.4831727147102356,-0.17716911435127258
1733851138600695300,6.4966953125,0.054852038621902466,-0.3497430086135864,-0.13473430275917053
1733851138610664400,6.50666455078125,0.035064078867435455,-0.08724600821733475,-0.11552485823631287
1733851138620632300,6.51663232421875,0.00930918101221323,0.18352849781513214,-0.12349116802215576
1733851138630601500,6.5266015625,-0.007591575849801302,0.30615270137786865,-0.1484965980052948
1733851138640569300,6.5365693359375,-0.0048272148706018925,0.24322594702243805,-0.1728256344795227
1733851138650538500,6.54653857421875,0.025112224742770195,0.05796508491039276,-0.19782376289367676
1733851138660507400,6.55650732421875,0.07021818310022354,-0.16083835065364838,-0.22072242200374603
1733851138670475500,6.5664755859375,0.10617681592702866,-0.36715999245643616,-0.2507662773132324
1733851138680444400,6.5764443359375,0.11309517920017242,-0.5726718902587891,-0.2893384099006653
1733851138690413600,6.58641357421875,0.0871383547782898,-0.7537901401519775,-0.3171590566635132
1733851138700381200,6.596381103515625,0.04390619322657585,-0.8709455132484436,-0.31542667746543884
1733851138710350300,6.606350341796875,-0.004456488881260157,-0.9007601141929626,-0.28074750304222107
1733851138720319700,6.61631982421875,-0.01908683031797409,-0.8723255395889282,-0.2307775467634201
1733851138730287600,6.62628759765625,-0.00951115507632494,-0.8389780521392822,-0.17754344642162323
1733851138740256500,6.636256591796875,0.017444564029574394,-0.8062499165534973,-0.13747112452983856
1733851138750224600,6.646224609375,0.047250859439373016,-0.7369319200515747,-0.11660555750131607
1733851138760193500,6.656193603515625,0.058863040059804916,-0.5806059837341309,-0.11533044278621674
1733851138770162700,6.66616259765625,0.02598012052476406,-0.3562307357788086,-0.11823844164609909
1733851138780130600,6.676130615234375,-0.027660204097628593,-0.15144243836402893,-0.10900020599365234
1733851138790099700,6.686099609375,-0.07000493258237839,0.00825008936226368,-0.08847326040267944
1733851138800068600,6.696068603515625,-0.10624123364686966,0.17698584496974945,-0.04573085159063339
1733851138810036700,6.70603662109375,-0.13160333037376404,0.37653449177742004,0.018389130011200905
1733851138820005600,6.716005615234375,-0.12574811279773712,0.5609043836593628,0.10723324865102768
1733851138829974500,6.725974609375,-0.08443177491426468,0.6517148017883301,0.19851349294185638
1733851138839942700,6.735942626953125,-0.022450430318713188,0.6689385175704956,0.2597630023956299
1733851138849911800,6.745911865234375,0.032917022705078125,0.6450122594833374,0.24905213713645935
1733851138859879700,6.755879638671875,0.09131428599357605,0.5529483556747437,0.19165222346782684
1733851138869848800,6.765848876953125,0.14158785343170166,0.37099888920783997,0.1440967619419098
1733851138879817700,6.775817626953125,0.12139923125505447,0.14340461790561676,0.10862638801336288
1733851138889785900,6.785785888671875,0.041472047567367554,-0.1250382661819458,0.05324731767177582
1733851138899754800,6.795754638671875,-0.037699468433856964,-0.3952612280845642,-0.0016199233941733837
1733851138909723600,6.8057236328125,-0.072180837392807,-0.6257309913635254,-0.013758692890405655
1733851138919691500,6.81569140625,-0.04609251767396927,-0.804712176322937,0.012823649682104588
1733851138929660700,6.82566064453125,0.009736926294863224,-0.9030147790908813,0.041182853281497955
1733851138939628500,6.835628662109375,0.07676416635513306,-0.8914934396743774,0.045975212007761
1733851138949597700,6.84559765625,0.12025522440671921,-0.7478511333465576,0.021175013855099678
1733851138959566600,6.855566650390625,0.11962245404720306,-0.4813706874847412,-0.010301952250301838
1733851138969534700,6.86553466796875,0.06685356050729752,-0.1812528669834137,-0.024568723514676094
1733851138979503600,6.875503662109375,-0.03735007345676422,0.058315251022577286,-0.03247671574354172
1733851138989472500,6.885472412109375,-0.1406591236591339,0.12645289301872253,-0.0744948610663414
1733851138999440600,6.895440673828125,-0.2041608691215515,-0.008593338541686535,-0.16965971887111664
1733851139009409800,6.905409912109375,-0.23226989805698395,-0.2646138370037079,-0.2998138964176178
1733851139019378700,6.915378662109375,-0.2550247609615326,-0.5110169649124146,-0.4125058352947235
1733851139029346800,6.925346923828125,-0.2842977046966553,-0.5822485685348511,-0.49622344970703125
1733851139039315700,6.935315673828125,-0.3141426742076874,-0.21257172524929047,-0.5217351913452148
1733851139049283800,6.945283935546875,-0.45711657404899597,1.0023443698883057,-0.46526458859443665
1733851139059252700,6.955252685546875,-0.6478159427642822,2.4165761470794678,-0.32058143615722656
1733851139069221600,6.9652216796875,-0.6149232983589172,2.520857095718384,-0.226609006524086
1733851139079189800,6.975189697265625,-0.33250969648361206,1.5923051834106445,-0.369965136051178
1733851139089158700,6.98515869140625,-0.0029891710728406906,0.6285686492919922,-0.6523378491401672
1733851139099127800,6.9951279296875,0.14607328176498413,-0.013338426128029823,-0.8943907022476196
1733851139109095700,7.005095703125,0.2113339602947235,-0.5513675212860107,-0.9295364618301392
1733851139119064600,7.015064697265625,0.29580703377723694,-0.9442375898361206,-0.7257271409034729
1733851139129032700,7.02503271484375,0.36634182929992676,-1.2175161838531494,-0.43973520398139954
1733851139139001600,7.035001708984375,0.3526792824268341,-1.3940224647521973,-0.1897469460964203
1733851139148970500,7.044970458984375,0.2618255317211151,-1.4391543865203857,-0.01098472997546196
1733851139158938600,7.054938720703125,0.1239243894815445,-1.3149996995925903,0.09761285781860352
1733851139168907500,7.064907470703125,-0.02179725468158722,-1.0070915222167969,0.16747798025608063
1733851139178876700,7.074876708984375,-0.09725712239742279,-0.5252783298492432,0.21789509057998657
1733851139188844800,7.0848447265625,-0.09584848582744598,0.05440589785575867,0.25571608543395996
1733851139198813700,7.094813720703125,-0.06385406851768494,0.6457166075706482,0.28773045539855957
1733851139208782600,7.104782470703125,-0.043058138340711594,1.1290684938430786,0.3290533721446991
1733851139218750700,7.114750732421875,-0.048787929117679596,1.3880034685134888,0.3803996443748474
1733851139228719600,7.1247197265625,-0.0734923928976059,1.3944916725158691,0.4031963050365448
1733851139238687700,7.134687744140625,-0.1069137305021286,1.1998932361602783,0.3823176622390747
1733851139248656600,7.14465673828125,-0.11783084273338318,0.893975019454956,0.3370838165283203
1733851139258625800,7.154625732421875,-0.08097349107265472,0.5336996912956238,0.2699500322341919
1733851139268593700,7.16459375,-0.04845782369375229,0.2213282734155655,0.191162109375
1733851139278562800,7.174562744140625,-0.03584882244467735,0.062482964247465134,0.1335454285144806
1733851139288531700,7.18453173828125,-0.023472314700484276,0.030502932146191597,0.11187927424907684
1733851139298499600,7.19449951171875,-0.020294658839702606,0.0728454664349556,0.12111710757017136
1733851139308468500,7.204468505859375,-0.040812619030475616,0.15404944121837616,0.13779699802398682
1733851139318437600,7.214437744140625,-0.06947409361600876,0.23529742658138275,0.1327231526374817
1733851139328405500,7.224405517578125,-0.07398205250501633,0.2917591333389282,0.09899309277534485
1733851139338374700,7.234374755859375,-0.07613548636436462,0.32126694917678833,0.0649120882153511
1733851139348342800,7.2443427734375,-0.08188369125127792,0.3080807626247406,0.03934808820486069
1733851139358311700,7.254311767578125,-0.0831654742360115,0.22947275638580322,0.021232735365629196
1733851139368280600,7.264280517578125,-0.08989464491605759,0.12373070418834686,-0.00025303452275693417
1733851139378248700,7.274248779296875,-0.10947181284427643,0.08624298870563507,-0.023904569447040558
1733851139388217600,7.284217529296875,-0.16185805201530457,0.13841351866722107,-0.05437219515442848
1733851139398186800,7.294186767578125,-0.2315860092639923,0.18258017301559448,-0.09209586679935455
1733851139408154600,7.304154541015625,-0.262104332447052,0.1413908302783966,-0.16137143969535828
1733851139418123800,7.314123779296875,-0.25664353370666504,-0.014954032376408577,-0.23538947105407715
1733851139428091600,7.324091552734375,-0.21660371124744415,-0.24847957491874695,-0.2849512994289398
1733851139438060800,7.334060791015625,-0.18436747789382935,-0.45356348156929016,-0.2882815897464752
1733851139448029700,7.34402978515625,-0.175652876496315,-0.5670855045318604,-0.23385727405548096
1733851139457997600,7.35399755859375,-0.15543682873249054,-0.5817329287528992,-0.13414771854877472
1733851139467966500,7.363966552734375,-0.12555842101573944,-0.5125234127044678,-0.005435137078166008
1733851139477935600,7.373935546875,-0.0921219065785408,-0.45074525475502014,0.10048649460077286
1733851139487903500,7.383903564453125,-0.055997319519519806,-0.461902379989624,0.1254497766494751
1733851139497872600,7.39387255859375,-0.03038676269352436,-0.4499591588973999,0.09271260350942612
1733851139507841500,7.403841552734375,-0.011836753226816654,-0.34690213203430176,0.04159177094697952
1733851139517809700,7.4138095703125,0.006086587905883789,-0.18854181468486786,0.004777033347636461
1733851139527778600,7.423778564453125,0.035168375819921494,-0.03508490324020386,0.0005902122939005494
1733851139537746700,7.43374658203125,0.08059125393629074,0.09122350066900253,0.019895734265446663
1733851139547715600,7.443715576171875,0.13631632924079895,0.1928931027650833,0.0314810685813427
1733851139557684700,7.453684814453125,0.19103789329528809,0.2985183298587799,0.04298805445432663
1733851139567652600,7.463652587890625,0.20966127514839172,0.43105700612068176,0.07975220680236816
1733851139577621800,7.473621826171875,0.19127054512500763,0.5697948932647705,0.14714376628398895
1733851139587590700,7.483590576171875,0.16735391318798065,0.6263256072998047,0.20243395864963531
1733851139597558800,7.493558837890625,0.1380690038204193,0.5813072919845581,0.2217852920293808
1733851139607527700,7.503527587890625,0.0986671894788742,0.5140775442123413,0.21666684746742249
1733851139617495800,7.513495849609375,0.05911418795585632,0.463702529668808,0.20406530797481537
1733851139627464700,7.523464599609375,0.008741114288568497,0.4412655234336853,0.19139575958251953
1733851139637433900,7.533433837890625,-0.042118337005376816,0.45450571179389954,0.19589783251285553
1733851139647401500,7.5434013671875,-0.05626708269119263,0.4779791533946991,0.20854419469833374
1733851139657370600,7.55337060546875,-0.021665427833795547,0.48378297686576843,0.21305985748767853
1733851139667339500,7.563339599609375,0.03832511976361275,0.46607479453086853,0.2088688313961029
1733851139677307600,7.5733076171875,0.12274306267499924,0.41776666045188904,0.2099040001630783
1733851139687276500,7.583276611328125,0.2285117655992508,0.3326481878757477,0.2375844568014145
1733851139697245700,7.59324560546875,0.3319537341594696,0.22444607317447662,0.2782309651374817
1733851139707213600,7.603213623046875,0.41430842876434326,0.08507030457258224,0.29206180572509766
1733851139717182700,7.6131826171875,0.4440152049064636,-0.06583159416913986,0.2802634537220001
1733851139727150300,7.623150390625,0.40171828866004944,-0.19523341953754425,0.2641275227069855
1733851139737119500,7.633119384765625,0.3234458565711975,-0.2983108162879944,0.25221067667007446
1733851139747088400,7.64308837890625,0.24191538989543915,-0.3832049071788788,0.24823030829429626
1733851139757056500,7.653056396484375,0.161696195602417,-0.4270149767398834,0.2604512870311737
1733851139767025400,7.663025390625,0.09839312732219696,-0.4035820960998535,0.2859533727169037
1733851139776994600,7.67299462890625,0.055748458951711655,-0.29619359970092773,0.3065185546875
1733851139786962400,7.68296240234375,0.026149554178118706,-0.10045818239450455,0.3220546543598175
1733851139796931600,7.692931640625,0.018001612275838852,0.19429488480091095,0.31741994619369507
1733851139806899500,7.7028994140625,0.03827132657170296,0.5446457266807556,0.2900815010070801
1733851139816868600,7.71286865234375,0.07924139499664307,0.8687044978141785,0.24416807293891907
1733851139826837500,7.72283740234375,0.11992957442998886,1.0899778604507446,0.20325173437595367
1733851139836805600,7.7328056640625,0.15698081254959106,1.1891710758209229,0.18445301055908203
1733851139846774500,7.7427744140625,0.18400096893310547,1.2007309198379517,0.18943756818771362
1733851139856743700,7.75274365234375,0.20550225675106049,1.1468671560287476,0.2206125259399414
1733851139866711600,7.762711669921875,0.23084913194179535,1.0280251502990723,0.2801184058189392
1733851139876680700,7.7726806640625,0.25364741683006287,0.8253718614578247,0.34220603108406067
1733851139886649600,7.782649658203125,0.258566290140152,0.534191370010376,0.3681906759738922
1733851139896617500,7.792617431640625,0.2408623993396759,0.19285161793231964,0.33331021666526794
1733851139906586400,7.80258642578125,0.21547377109527588,-0.11225499212741852,0.26298490166664124
1733851139916554500,7.812554443359375,0.203304722905159,-0.29054003953933716,0.19298265874385834
1733851139926523400,7.8225234375,0.2022489458322525,-0.3387855291366577,0.13463574647903442
1733851139936492500,7.832492431640625,0.2162608951330185,-0.3102119565010071,0.08898890018463135
1733851139946460400,7.84246044921875,0.24074040353298187,-0.23876439034938812,0.04712507501244545
1733851139956429600,7.8524296875,0.26939842104911804,-0.1482827067375183,0.018517134711146355
1733851139966398500,7.8623984375,0.2957734763622284,-0.0570201613008976,0.012871586717665195
1733851139976366600,7.87236669921875,0.3106088936328888,0.02625449188053608,0.02592107653617859
1733851139986335500,7.88233544921875,0.30936241149902344,0.09782873839139938,0.07032143324613571
1733851139996303600,7.8923037109375,0.31070995330810547,0.125605508685112,0.13203752040863037
1733851140006272500,7.9022724609375,0.31509050726890564,0.10583730041980743,0.2035028338432312
1733851140016241700,7.91224169921875,0.32165706157684326,0.07340319454669952,0.2674890160560608
1733851140026209500,7.92220947265625,0.32731616497039795,-0.0019857375882565975,0.2918378710746765
1733851140036178700,7.9321787109375,0.32331448793411255,-0.10379279404878616,0.2645532488822937
1733851140046147600,7.942147705078125,0.3035280406475067,-0.17944440245628357,0.21729283034801483
1733851140056115500,7.952115478515625,0.2625366747379303,-0.20138351619243622,0.17906874418258667
1733851140066084400,7.96208447265625,0.215462788939476,-0.16978493332862854,0.16337992250919342
1733851140076053500,7.972053466796875,0.17928826808929443,-0.0872567668557167,0.1600339263677597
1733851140086021400,7.982021484375,0.1605379283428192,-0.006762483157217503,0.15993377566337585
1733851140095990500,7.991990478515625,0.14823758602142334,0.09226662665605545,0.18230460584163666
1733851140105958400,8.00195849609375,0.1240888312458992,0.20226523280143738,0.19649703800678253
1733851140115927600,8.011927490234376,0.0830114409327507,0.2557865083217621,0.16682356595993042
1733851140125896400,8.021896484375,0.03184950351715088,0.2634110450744629,0.09666699171066284
1733851140135864600,8.031864501953125,-0.015389914624392986,0.2941921353340149,0.025663919746875763
1733851140145833500,8.04183349609375,-0.041636135429143906,0.3782457411289215,-0.009951815009117126
1733851140155802400,8.05180224609375,-0.04869244620203972,0.46670636534690857,-0.004493134096264839
1733851140165770500,8.0617705078125,-0.04835466295480728,0.5280451774597168,0.0204975176602602
1733851140175739600,8.07173974609375,-0.04737062379717827,0.5606081485748291,0.04171305522322655
1733851140185707500,8.08170751953125,-0.043359678238630295,0.5733197927474976,0.05081365630030632
1733851140195676700,8.0916767578125,-0.037836551666259766,0.5745589733123779,0.057040661573410034
1733851140205645600,8.1016455078125,-0.035385195165872574,0.5674222111701965,0.06838732212781906
1733851140215613700,8.11161376953125,-0.0342208594083786,0.5335001945495605,0.0748303011059761
1733851140225582600,8.12158251953125,-0.04127221181988716,0.46284785866737366,0.07291416823863983
1733851140235551500,8.131551513671875,-0.05943789705634117,0.3507639467716217,0.0492439940571785
1733851140245519400,8.141519287109375,-0.08725367486476898,0.19414082169532776,0.015929220244288445
1733851140255488500,8.151488525390626,-0.12107928097248077,0.028307652100920677,-0.019340883940458298
1733851140265457400,8.16145751953125,-0.15313944220542908,-0.1533287763595581,-0.05231938511133194
1733851140275425500,8.171425537109375,-0.18753176927566528,-0.3477342426776886,-0.08622302114963531
1733851140285394400,8.18139453125,-0.21007128059864044,-0.5344491600990295,-0.11757577210664749
1733851140295362600,8.191362548828126,-0.22563320398330688,-0.6896944046020508,-0.14470726251602173
1733851140305331500,8.20133154296875,-0.2313864380121231,-0.7896897792816162,-0.159066304564476
1733851140315300400,8.21130029296875,-0.22379882633686066,-0.806137204170227,-0.1576409786939621
1733851140325268500,8.2212685546875,-0.21504928171634674,-0.7346692681312561,-0.15118317306041718
1733851140335237400,8.2312373046875,-0.21772362291812897,-0.5936759114265442,-0.15543676912784576
1733851140345206500,8.24120654296875,-0.22722572088241577,-0.4209311902523041,-0.1715133637189865
1733851140355174700,8.251174560546875,-0.23182553052902222,-0.2406894862651825,-0.19135044515132904
1733851140365143600,8.2611435546875,-0.21975304186344147,-0.08127649873495102,-0.19263926148414612
1733851140375111700,8.271111572265625,-0.19258294999599457,0.03009689785540104,-0.1690545678138733
1733851140385080600,8.28108056640625,-0.15951305627822876,0.09561655670404434,-0.11495564132928848
1733851140395049500,8.291049560546876,-0.13384124636650085,0.12403354793787003,-0.03573671728372574
1733851140405017600,8.301017578125,-0.11306232959032059,0.13117201626300812,0.043264567852020264
1733851140414986500,8.310986572265625,-0.09684314578771591,0.13475583493709564,0.09364890307188034
1733851140424955600,8.32095556640625,-0.08135857433080673,0.14942318201065063,0.1089460477232933
1733851140434923500,8.330923583984376,-0.060898568481206894,0.18731117248535156,0.08784502744674683
1733851140444892400,8.340892333984375,-0.025321416556835175,0.23853355646133423,0.037031035870313644
1733851140454861300,8.350861328125,0.009192884899675846,0.28186556696891785,-0.022552931681275368
1733851140464829400,8.360829345703126,0.02370886504650116,0.29808905720710754,-0.056133851408958435
1733851140474798300,8.37079833984375,0.012123847380280495,0.2679404616355896,-0.048059411346912384
1733851140484766500,8.380766357421875,-0.0034326715394854546,0.2073182761669159,-0.0133656095713377
1733851140494735400,8.3907353515625,-0.004473434761166573,0.14966776967048645,0.04500395804643631
1733851140504704500,8.40070458984375,0.005103909410536289,0.10572192072868347,0.10865617543458939
1733851140514672600,8.410672607421875,0.0174119733273983,0.08710535615682602,0.1533176451921463
1733851140524641500,8.4206416015625,0.01936355233192444,0.08166059106588364,0.1832098364830017
1733851140534610400,8.4306103515625,-0.003654414787888527,0.0815063938498497,0.20255796611309052
1733851140544578600,8.44057861328125,-0.04232141003012657,0.10020900517702103,0.20726719498634338
1733851140554547500,8.45054736328125,-0.08211622387170792,0.13087743520736694,0.1877155900001526
1733851140564515600,8.460515625,-0.10570081323385239,0.13699519634246826,0.1323479264974594
1733851140574484500,8.470484375,-0.10736715793609619,0.06078111007809639,0.05792482942342758
1733851140584453600,8.48045361328125,-0.09397011995315552,-0.11924725025892258,-0.005538565572351217
1733851140594421500,8.49042138671875,-0.11063458770513535,-0.3342258632183075,-0.04689585790038109
1733851140604390400,8.500390380859375,-0.12105786800384521,-0.5612361431121826,-0.10664287954568863
1733851140614359600,8.510359619140624,-0.14851079881191254,-0.7704532742500305,-0.18466177582740784
1733851140624327400,8.520327392578125,-0.2106025367975235,-0.9599710702896118,-0.26977723836898804
1733851140634296300,8.53029638671875,-0.30315059423446655,-1.1194032430648804,-0.3399669826030731
1733851140644264400,8.540264404296876,-0.37919777631759644,-1.252204179763794,-0.3858965039253235
1733851140654233300,8.5502333984375,-0.41384071111679077,-1.3825671672821045,-0.40066054463386536
1733851140664202500,8.560202392578125,-0.41851237416267395,-1.5237692594528198,-0.39375948905944824
1733851140674170400,8.57017041015625,-0.3897893726825714,-1.6583582162857056,-0.39349237084388733
1733851140684139500,8.580139404296874,-0.3283126652240753,-1.7493481636047363,-0.42741990089416504
1733851140694108400,8.5901083984375,-0.27170529961586,-1.7602676153182983,-0.48972854018211365
1733851140704076500,8.60007666015625,-0.24058979749679565,-1.6708073616027832,-0.551110565662384
1733851140714045400,8.61004541015625,-0.23405574262142181,-1.4649505615234375,-0.588096559047699
1733851140724015400,8.620015380859375,-0.25521889328956604,-1.125647783279419,-0.5899673700332642
1733851140733983000,8.62998291015625,-0.2906423807144165,-0.6782605051994324,-0.5462124347686768
1733851140743952100,8.6399521484375,-0.3350035548210144,-0.19338229298591614,-0.45988667011260986
1733851140753920000,8.649919921875,-0.37612035870552063,0.1793563961982727,-0.3651159405708313
1733851140763889200,8.65988916015625,-0.3958107829093933,0.3136230707168579,-0.30120447278022766
1733851140773858000,8.669858154296875,-0.39290928840637207,0.255296915769577,-0.2804808020591736
1733851140783826200,8.679826171875,-0.3739945888519287,0.15071037411689758,-0.2980434000492096
1733851140793795000,8.689795166015625,-0.3514253497123718,0.049615707248449326,-0.3553810119628906
1733851140803764200,8.69976416015625,-0.35952940583229065,-0.03714022785425186,-0.4285239577293396
1733851140813732000,8.709732177734375,-0.4203730523586273,-0.09837082773447037,-0.5009326338768005
1733851140823701200,8.719701171875,-0.5046740174293518,-0.14100641012191772,-0.5595062375068665
1733851140833669000,8.729669189453125,-0.6085072159767151,-0.18832919001579285,-0.5782210826873779
1733851140843638300,8.73963818359375,-0.7526585459709167,-0.23370522260665894,-0.5457356572151184
1733851140853607200,8.749607177734376,-0.923065721988678,-0.24545429646968842,-0.48862096667289734
1733851140863575300,8.7595751953125,-1.0867722034454346,-0.1909588873386383,-0.4304924011230469
1733851140873544200,8.769544189453125,-1.2289756536483765,-0.09971445798873901,-0.39610806107521057
1733851140883513000,8.77951318359375,-1.3337081670761108,-0.023337064310908318,-0.39957302808761597
1733851140893481000,8.78948095703125,-1.396058440208435,-0.016028819605708122,-0.4287772476673126
1733851140903450000,8.7994501953125,-1.4191352128982544,-0.08066004514694214,-0.46185755729675293
1733851140913419000,8.8094189453125,-1.3845934867858887,-0.19914939999580383,-0.48699435591697693
1733851140923387100,8.81938720703125,-1.3065242767333984,-0.3205878734588623,-0.48388364911079407
1733851140933356000,8.82935595703125,-1.2112348079681396,-0.3848598003387451,-0.44206297397613525
1733851140943324200,8.83932421875,-1.1033927202224731,-0.3495914936065674,-0.3667261302471161
1733851140953293000,8.84929296875,-0.9669214487075806,-0.27071690559387207,-0.26860544085502625
1733851140963262200,8.85926220703125,-0.8141578435897827,-0.21760550141334534,-0.15944424271583557
1733851140973230000,8.86922998046875,-0.647148072719574,-0.20340020954608917,-0.04250749945640564
1733851140983199200,8.87919921875,-0.4883538484573364,-0.20028531551361084,0.05094638466835022
1733851140993168100,8.889168212890626,-0.36487558484077454,-0.151243194937706,0.10661150515079498
1733851141003136300,8.89913623046875,-0.2790025472640991,-0.06829525530338287,0.11518480628728867
1733851141013105200,8.909105224609375,-0.22813083231449127,-0.017801186069846153,0.0740184634923935
1733851141023074000,8.919073974609375,-0.21471811830997467,-0.030579766258597374,0.001976268133148551
1733851141033042200,8.929042236328126,-0.23711638152599335,-0.08059153705835342,-0.0714912936091423
1733851141043011000,8.939010986328125,-0.29571035504341125,-0.10899101942777634,-0.13120150566101074
1733851141052979200,8.948979248046875,-0.3807879686355591,-0.09169671684503555,-0.17909686267375946
1733851141062948400,8.9589482421875,-0.4649380147457123,-0.0926266461610794,-0.21211037039756775
1733851141072917200,8.968917236328124,-0.5146732926368713,-0.1396801769733429,-0.22532151639461517
1733851141082885000,8.978885009765625,-0.5243680477142334,-0.21657226979732513,-0.21624548733234406
1733851141092854000,8.98885400390625,-0.501693069934845,-0.26098528504371643,-0.19391247630119324
1733851141102823000,8.998822998046874,-0.46173134446144104,-0.24668356776237488,-0.1657724827528
1733851141112791000,9.008791015625,-0.39729082584381104,-0.24327684938907623,-0.1524161994457245
1733851141122760000,9.018760009765625,-0.3229755461215973,-0.24385657906532288,-0.16011355817317963
1733851141132728000,9.02872802734375,-0.2594980299472809,-0.2341640144586563,-0.17320112884044647
1733851141142697200,9.038697265625,-0.21790443360805511,-0.21280649304389954,-0.19262941181659698
1733851141152666000,9.048666015625,-0.1957368105649948,-0.175226092338562,-0.2281237542629242
1733851141162634200,9.05863427734375,-0.1711229681968689,-0.10965534299612045,-0.26405802369117737
1733851141172603100,9.06860302734375,-0.14333634078502655,-0.016325661912560463,-0.2917426526546478
1733851141182572000,9.078572021484375,-0.1100209429860115,0.06199178099632263,-0.3036578595638275
1733851141192540200,9.0885400390625,-0.05807705223560333,0.08589258790016174,-0.2783178687095642
1733851141202509000,9.098509033203126,0.012015232816338539,0.04606790840625763,-0.21214932203292847
1733851141212478200,9.108478271484374,0.08489716053009033,-0.013367456384003162,-0.12974020838737488
1733851141222446000,9.118446044921875,0.16688182950019836,-0.05287251994013786,-0.0698118656873703
1733851141232415200,9.128415283203125,0.2577832341194153,-0.06895215064287186,-0.03152253106236458
1733851141242383400,9.13838330078125,0.3500884175300598,-0.06488031148910522,-0.010805654339492321
1733851141252352300,9.148352294921875,0.4429911971092224,-0.04418036341667175,0.0002062499988824129
1733851141262321200,9.158321044921875,0.5194652080535889,0.004798232112079859,0.01630624197423458
1733851141272289000,9.1682890625,0.5760080814361572,0.08127489686012268,0.04776296764612198
1733851141282258000,9.1782578125,0.5863370299339294,0.19552800059318542,0.10949987173080444
1733851141292227000,9.18822705078125,0.5229737758636475,0.3381440043449402,0.19170579314231873
1733851141302195200,9.1981953125,0.4002023935317993,0.4607270061969757,0.24903284013271332
1733851141312164000,9.2081640625,0.23125703632831573,0.5281632542610168,0.2426990419626236
1733851141322132200,9.21813232421875,0.05381545424461365,0.483474463224411,0.19050565361976624
1733851141332101000,9.22810107421875,-0.06522811949253082,0.253488153219223,0.14013224840164185
1733851141342070000,9.238070068359375,-0.09651749581098557,-0.02333776466548443,0.0890267938375473
1733851141352038100,9.2480380859375,-0.07250004261732101,-0.19350123405456543,0.013140284456312656
1733851141362007000,9.258007080078125,-0.004267137963324785,-0.274594783782959,-0.06746318191289902
1733851141371976200,9.26797607421875,0.08848277479410172,-0.2782691419124603,-0.11977566033601761
1733851141381944000,9.277944091796876,0.18509751558303833,-0.20754872262477875,-0.1210317388176918
1733851141391913200,9.287913330078124,0.2672717273235321,-0.1100408062338829,-0.0849006325006485
1733851141401882000,9.297882080078125,0.31797847151756287,-0.02687590941786766,-0.04404458776116371
1733851141411850200,9.307850341796875,0.33558011054992676,0.038977138698101044,0.011726266704499722
1733851141421819100,9.317819091796874,0.324219673871994,0.09195047616958618,0.09808876365423203
1733851141431787000,9.327787109375,0.29193177819252014,0.1587524116039276,0.20301704108715057
1733851141441756000,9.337755859375,0.25479087233543396,0.24520240724086761,0.3054865300655365
1733851141451725000,9.34772509765625,0.22440871596336365,0.3201770782470703,0.3766975998878479
1733851141461693000,9.35769287109375,0.20440934598445892,0.3542255759239197,0.39751067757606506
1733851141471662000,9.367662109375,0.19552476704120636,0.35822805762290955,0.379700243473053
1733851141481631000,9.377630859375,0.20116189122200012,0.3513731360435486,0.3413473665714264
1733851141491599000,9.38759912109375,0.22620120644569397,0.3370448052883148,0.2873797118663788
1733851141501568000,9.397568115234375,0.259183794260025,0.29306483268737793,0.20048320293426514
1733851141511536000,9.4075361328125,0.2951519191265106,0.19008812308311462,0.07223787903785706
1733851141521505000,9.417505126953126,0.32957398891448975,0.07413599640130997,-0.05416020750999451
1733851141531474200,9.42747412109375,0.34252119064331055,0.046071600168943405,-0.11639055609703064
1733851141541442000,9.437442138671875,0.3478182554244995,0.10553526133298874,-0.08370603621006012
1733851141551411200,9.4474111328125,0.34251296520233154,0.16452135145664215,0.014316661283373833
1733851141561380000,9.457380126953124,0.3161444365978241,0.17513804137706757,0.13284647464752197
1733851141571348200,9.46734814453125,0.28704139590263367,0.15269319713115692,0.25190842151641846
1733851141581317000,9.477317138671875,0.2625263035297394,0.14272503554821014,0.35990262031555176
1733851141591286300,9.487286376953126,0.23704807460308075,0.1898432821035385,0.4444689154624939
1733851141601254100,9.497254150390624,0.22423988580703735,0.28267982602119446,0.49349164962768555
1733851141611223300,9.507223388671875,0.23050977289676666,0.37379881739616394,0.4874936640262604
1733851141621191000,9.51719091796875,0.24085502326488495,0.4406832456588745,0.4141045808792114
1733851141631160000,9.52716015625,0.2545359134674072,0.48194652795791626,0.2983284592628479
1733851141641129000,9.53712890625,0.26694875955581665,0.4859241545200348,0.1968635469675064
1733851141651097000,9.54709716796875,0.2821125090122223,0.4631964862346649,0.1420072317123413
1733851141661066000,9.55706591796875,0.30017945170402527,0.43763208389282227,0.13336136937141418
1733851141671035100,9.56703515625,0.31226247549057007,0.42422813177108765,0.15516839921474457
1733851141681003000,9.5770029296875,0.3202373683452606,0.41101327538490295,0.18645524978637695
1733851141690972200,9.58697216796875,0.3312074542045593,0.33986690640449524,0.19458401203155518
1733851141700940000,9.59693994140625,0.33340927958488464,0.2111610621213913,0.18071573972702026
1733851141710909200,9.6069091796875,0.33055248856544495,0.08335888385772705,0.16937680542469025
1733851141720878000,9.616878173828125,0.3422301411628723,-0.004021758213639259,0.1771671175956726
1733851141730845400,9.626845458984375,0.35718512535095215,-0.0430234856903553,0.19871369004249573
1733851141740814300,9.636814453125,0.376667320728302,-0.014845509082078934,0.2212013602256775
1733851141750783500,9.646783447265625,0.39978358149528503,0.07620051503181458,0.22037310898303986
1733851141760751400,9.65675146484375,0.4289942979812622,0.20819240808486938,0.19568376243114471
1733851141770720500,9.666720458984376,0.4487767815589905,0.35597917437553406,0.15626497566699982
1733851141780689400,9.676689453125,0.4669516086578369,0.4906463027000427,0.09939485788345337
1733851141790657300,9.6866572265625,0.4837428331375122,0.6107814908027649,0.04679263010621071
1733851141800626200,9.696626220703125,0.496340811252594,0.7222089767456055,0.011115631088614464
1733851141810594300,9.70659423828125,0.5076967477798462,0.8348467946052551,0.000019570346921682358
1733851141820563200,9.716563232421874,0.5185126066207886,0.941119909286499,0.009169843047857285
1733851141830532400,9.726532470703125,0.5184164643287659,1.0218161344528198,0.02641860395669937
1733851141840500500,9.73650048828125,0.5111255049705505,1.0648187398910522,0.04295763745903969
1733851141850469400,9.746469482421874,0.49684545397758484,1.0647740364074707,0.05899466574192047
1733851141860438300,9.756438232421875,0.47199323773384094,1.0173603296279907,0.06816655397415161
1733851141870406400,9.766406494140625,0.4400781989097595,0.9244003295898438,0.06675135344266891
1733851141880375300,9.776375244140626,0.40300285816192627,0.7870050072669983,0.05254083499312401
1733851141890343400,9.786343505859374,0.35844844579696655,0.617636501789093,0.026303904131054878
1733851141900312300,9.796312255859375,0.3254486322402954,0.4629777669906616,-0.0015744580887258053
1733851141910281500,9.806281494140626,0.31496402621269226,0.3563019335269928,-0.021081313490867615
1733851141920249300,9.816249267578126,0.32423868775367737,0.2920515537261963,-0.03509114682674408
1733851141930218500,9.826218505859375,0.3504337966442108,0.26584604382514954,-0.04972628131508827
1733851141940187400,9.8361875,0.38218238949775696,0.267219603061676,-0.057509806007146835
1733851141950155300,9.8461552734375,0.4077226519584656,0.2944834530353546,-0.053845297545194626
1733851141960124400,9.85612451171875,0.4234657287597656,0.3030148446559906,-0.040338605642318726
1733851141970092300,9.86609228515625,0.4286431670188904,0.25424811244010925,-0.02345975674688816
1733851141980061200,9.876061279296875,0.4115731418132782,0.11785970628261566,-0.020154699683189392
1733851141990030300,9.8860302734375,0.3770473897457123,-0.08474612981081009,-0.032395657151937485
1733851141999998200,9.895998291015625,0.3438284397125244,-0.3147296905517578,-0.05782920867204666
1733851142009967400,9.90596728515625,0.31313949823379517,-0.509284496307373,-0.08378836512565613
1733851142019936300,9.915936279296876,0.29723215103149414,-0.6139533519744873,-0.09478265047073364
1733851142029904400,9.925904296875,0.285925954580307,-0.6211561560630798,-0.09377118200063705
1733851142039873300,9.935873291015625,0.28845492005348206,-0.5385587215423584,-0.06996128708124161
1733851142049842400,9.945842529296876,0.2882642149925232,-0.40836775302886963,-0.020229948684573174
1733851142059810300,9.955810302734376,0.2880411744117737,-0.2576928734779358,0.05603386461734772
1733851142069779500,9.965779541015625,0.26867812871932983,-0.13627563416957855,0.12972912192344666
1733851142079747300,9.975747314453125,0.23203788697719574,-0.09104301035404205,0.16786731779575348
1733851142089716500,9.985716552734376,0.19588761031627655,-0.11135707050561905,0.16112393140792847
1733851142099685400,9.995685302734374,0.16591602563858032,-0.15383438766002655,0.1288750171661377
1733851142109653500,10.005653564453125,0.14699985086917877,-0.1485581248998642,0.09361609816551208
1733851142119622400,10.015622314453125,0.14990977942943573,-0.05039038509130478,0.07111790031194687
1733851142129591600,10.025591552734374,0.15892112255096436,0.11063046008348465,0.06850400567054749
1733851142139559200,10.03555908203125,0.1707022488117218,0.2781108319759369,0.07340609282255173
1733851142149528300,10.0455283203125,0.18571367859840393,0.39928385615348816,0.07726821303367615
1733851142159496200,10.05549609375,0.19826854765415192,0.4495931565761566,0.07338698953390121
1733851142169465300,10.06546533203125,0.213078111410141,0.4626338481903076,0.07685176283121109
1733851142179434200,10.075434326171875,0.22187739610671997,0.45952171087265015,0.08318748325109482
1733851142189402400,10.08540234375,0.23162056505680084,0.4599643349647522,0.09721621870994568
1733851142199371300,10.095371337890626,0.23000192642211914,0.46403205394744873,0.113346166908741
1733851142209340400,10.10534033203125,0.22722850739955902,0.4516321122646332,0.11644554883241653
1733851142219308300,10.115308349609375,0.21719598770141602,0.4177553355693817,0.10628928244113922
1733851142229277400,10.12527734375,0.21097058057785034,0.3686288297176361,0.09243232756853104
1733851142239246300,10.135246337890624,0.20500950515270233,0.32249176502227783,0.0897599533200264
1733851142249214500,10.14521435546875,0.20442147552967072,0.2939282953739166,0.10332529991865158
1733851142259183400,10.155183349609375,0.19780723750591278,0.268851637840271,0.12240517139434814
1733851142269151500,10.1651513671875,0.19483782351016998,0.23909641802310944,0.13402080535888672
1733851142279120400,10.175120361328124,0.183803528547287,0.1651853621006012,0.1264192909002304
1733851142289089500,10.185089599609375,0.16669325530529022,0.04105810075998306,0.09955917298793793
1733851142299057400,10.195057373046875,0.1562609225511551,-0.09000274538993835,0.07722930610179901
1733851142309026600,10.205026611328124,0.14696621894836426,-0.19671028852462769,0.06380616873502731
1733851142318995500,10.214995361328125,0.1364092081785202,-0.24625107645988464,0.04622572660446167
1733851142328963300,10.22496337890625,0.12579677999019623,-0.2480950504541397,0.022555019706487656
1733851142338932200,10.23493212890625,0.11450067162513733,-0.2629748582839966,-0.004315963014960289
1733851142348900400,10.244900390625,0.1011182889342308,-0.3190847337245941,-0.022749032825231552
1733851142358869200,10.254869140625,0.08772796392440796,-0.3801332414150238,-0.02308516949415207
1733851142368838400,10.26483837890625,0.08099815249443054,-0.41456499695777893,-0.0018552490510046482
1733851142378806300,10.27480615234375,0.06029614061117172,-0.4193178713321686,0.024919474497437477
1733851142388775400,10.284775390625,0.03463445603847504,-0.401170015335083,0.03956925868988037
1733851142398744300,10.294744384765625,0.016279781237244606,-0.34217849373817444,0.029041599482297897
1733851142408712400,10.30471240234375,0.008914009667932987,-0.24221569299697876,0.002923710737377405
1733851142418681300,10.314681396484374,0.004516541957855225,-0.10936246067285538,-0.030220787972211838
1733851142428649500,10.3246494140625,-0.0007224284345284104,0.0582536980509758,-0.05618660897016525
1733851142438618400,10.334618408203125,-0.00460833078250289,0.22005364298820496,-0.06983894854784012
1733851142448587500,10.34458740234375,-0.004736694972962141,0.3105145990848541,-0.07128158211708069
1733851142458555400,10.354555419921875,-0.0015771209727972746,0.29229864478111267,-0.06974822282791138
1733851142468524500,10.364524658203125,-0.015260974876582623,0.18718048930168152,-0.07844612002372742
1733851142478493400,10.374493408203126,-0.048658668994903564,0.04434424266219139,-0.09614843875169754
1733851142488461300,10.38446142578125,-0.09327034652233124,-0.10903838276863098,-0.11320704966783524
1733851142498430500,10.394430419921875,-0.1327369660139084,-0.22561496496200562,-0.11550368368625641
1733851142508399400,10.4043994140625,-0.15992224216461182,-0.2818108797073364,-0.10498419404029846
1733851142518367200,10.4143671875,-0.17963260412216187,-0.29893332719802856,-0.09373576194047928
1733851142528336400,10.42433642578125,-0.19665712118148804,-0.30262765288352966,-0.08310122042894363
1733851142538304300,10.43430419921875,-0.21280425786972046,-0.30118945240974426,-0.07618488371372223
1733851142548273400,10.4442734375,-0.2288399487733841,-0.2956918776035309,-0.0756722241640091
1733851142558242300,10.4542421875,-0.2553557753562927,-0.2957760989665985,-0.0838751271367073
1733851142568210400,10.46421044921875,-0.29345229268074036,-0.29831063747406006,-0.1016053855419159
1733851142578179300,10.474179443359375,-0.34282156825065613,-0.2884148359298706,-0.12197400629520416
1733851142588148500,10.4841484375,-0.3811021149158478,-0.23285196721553802,-0.1348474621772766
1733851142598116400,10.494116455078125,-0.38489869236946106,-0.08888315409421921,-0.10960127413272858
1733851142608085500,10.50408544921875,-0.3623124063014984,0.13590069115161896,-0.0376698262989521
1733851142618053400,10.514053466796875,-0.31941232085227966,0.40698128938674927,0.051698729395866394
1733851142628022500,10.5240224609375,-0.2757737636566162,0.6646919250488281,0.1145344153046608
1733851142637991400,10.533991455078125,-0.25089529156684875,0.8603667616844177,0.12528735399246216
1733851142647959600,10.54395947265625,-0.2502193748950958,0.960554301738739,0.088638536632061
1733851142657928400,10.553928466796876,-0.27496543526649475,0.9597328901290894,0.01384193729609251
1733851142667897300,10.5638974609375,-0.31421616673469543,0.8568192720413208,-0.07520884275436401
1733851142677865200,10.573865234375,-0.36724787950515747,0.6708620190620422,-0.1494917869567871
1733851142687834400,10.58383447265625,-0.41534295678138733,0.4425603747367859,-0.20055896043777466
1733851142697802200,10.59380224609375,-0.42465096712112427,0.24814292788505554,-0.2139187902212143
1733851142707771400,10.603771484375,-0.3994939625263214,0.167784184217453,-0.17314019799232483
1733851142717740300,10.613740234375,-0.3837939202785492,0.1970520317554474,-0.08363883197307587
1733851142727708700,10.623708740234376,-0.38988855481147766,0.2837408483028412,0.02086840197443962
1733851142737677600,10.633677490234374,-0.400033175945282,0.36097562313079834,0.09981133788824081
1733851142747646500,10.643646484375,-0.4015173316001892,0.31217053532600403,0.14006660878658295
1733851142757614600,10.653614501953125,-0.3891056776046753,0.08048216998577118,0.15379121899604797
1733851142767583500,10.66358349609375,-0.3778109550476074,-0.31018516421318054,0.13918671011924744
1733851142777552600,10.673552734375,-0.383291095495224,-0.7621901631355286,0.09725072234869003
1733851142787520500,10.6835205078125,-0.38712045550346375,-1.1509919166564941,0.043337948620319366
1733851142797489400,10.693489501953126,-0.39448243379592896,-1.4151757955551147,0.015481461770832539
1733851142807457500,10.70345751953125,-0.40419232845306396,-1.5321383476257324,0.031156029552221298
1733851142817426400,10.713426513671875,-0.4019714593887329,-1.5119177103042603,0.07388909161090851
1733851142827395300,10.723395263671875,-0.39671197533607483,-1.3605992794036865,0.12209656834602356
1733851142837363500,10.733363525390626,-0.3931102156639099,-1.1449472904205322,0.14608292281627655
1733851142847332400,10.743332275390625,-0.38825926184654236,-0.982706606388092,0.12684983015060425
1733851142857301500,10.753301513671875,-0.38619568943977356,-0.9259544014930725,0.07086773961782455
1733851142867269600,10.76326953125,-0.3896447420120239,-0.9724524021148682,0.0008511021733283997
1733851142877238500,10.773238525390624,-0.4007932245731354,-1.0691864490509033,-0.060285016894340515
1733851142887206700,10.78320654296875,-0.40590646862983704,-1.1131312847137451,-0.09905532002449036
1733851142897175600,10.793175537109375,-0.40566831827163696,-1.023003101348877,-0.10528270155191422
1733851142907144400,10.80314453125,-0.41210249066352844,-0.7475769519805908,-0.08172384649515152
1733851142917112600,10.813112548828125,-0.41883406043052673,-0.3923182189464569,-0.049359604716300964
1733851142927081500,10.82308154296875,-0.411903977394104,-0.12705591320991516,-0.014381913468241692
1733851142937050600,10.833050537109376,-0.39449343085289,-0.008008244447410107,0.03239741921424866
1733851142947018500,10.8430185546875,-0.3750435709953308,-0.0008182418532669544,0.0705232322216034
1733851142956987400,10.8529873046875,-0.37837687134742737,-0.061183881014585495,0.08653227984905243
1733851142966955500,10.86295556640625,-0.401787668466568,-0.15216200053691864,0.07682399451732635
1733851142976924400,10.87292431640625,-0.42315447330474854,-0.21814173460006714,0.03820820525288582
1733851142986893300,10.882893310546875,-0.42778491973876953,-0.23935221135616302,-0.0190042145550251
1733851142996861400,10.892861328125,-0.418601930141449,-0.22906622290611267,-0.07471166551113129
1733851143006830300,10.902830322265626,-0.40264371037483215,-0.20828877389431,-0.11060335487127304
1733851143016799500,10.912799560546874,-0.3879639804363251,-0.19877402484416962,-0.12325164675712585
1733851143026767600,10.922767578125,-0.3737027645111084,-0.22524531185626984,-0.12415605783462524
1733851143036736500,10.932736572265625,-0.38151317834854126,-0.3072814345359802,-0.12897807359695435
1733851143046704600,10.94270458984375,-0.41728582978248596,-0.4219944477081299,-0.1450268179178238
1733851143056673500,10.952673583984375,-0.44749268889427185,-0.5527949333190918,-0.1712653785943985
1733851143066642400,10.962642333984375,-0.46420589089393616,-0.6767309904098511,-0.19358105957508087
1733851143076610600,10.972610595703125,-0.4611840844154358,-0.7517769932746887,-0.20999503135681152
1733851143086579500,10.982579345703124,-0.44814684987068176,-0.7407030463218689,-0.20665143430233002
1733851143096548600,10.992548583984375,-0.4019952118396759,-0.6704044938087463,-0.18356221914291382
1733851143106516500,11.0025166015625,-0.3334105610847473,-0.5893051028251648,-0.14955177903175354
1733851143116485600,11.012485595703126,-0.2673124372959137,-0.4481790363788605,-0.0952080637216568
1733851143126453500,11.02245361328125,-0.22208477556705475,-0.19748662412166595,-0.012937426567077637
1733851143136422400,11.03242236328125,-0.21522173285484314,0.06854521483182907,0.07179582864046097
1733851143146391300,11.042391357421875,-0.24565419554710388,0.26683300733566284,0.11777450889348984
1733851143156359400,11.052359375,-0.27812162041664124,0.45050907135009766,0.1191396713256836
1733851143166328300,11.062328369140625,-0.28650978207588196,0.6417900919914246,0.10004986822605133
1733851143176297500,11.07229736328125,-0.2792728543281555,0.7522902488708496,0.06949137896299362
1733851143186265300,11.082265380859376,-0.27285677194595337,0.7103270888328552,0.022312946617603302
1733851143196234500,11.092234375,-0.281593382358551,0.5367032289505005,-0.03751538693904877
1733851143206202600,11.10220263671875,-0.30056121945381165,0.24320822954177856,-0.0831981897354126
1733851143216171500,11.112171630859375,-0.3178890347480774,-0.12109409272670746,-0.07955815643072128
1733851143226140400,11.122140380859374,-0.34090593457221985,-0.43397900462150574,-0.029006296768784523
1733851143236108500,11.132108642578125,-0.3628080189228058,-0.572210431098938,0.02356734499335289
1733851143246077400,11.142077392578125,-0.3798011243343353,-0.5331801772117615,0.05125809460878372
1733851143256046600,11.152046630859376,-0.37257540225982666,-0.4031887650489807,0.049942728132009506
1733851143266014500,11.162014404296874,-0.32783085107803345,-0.2469477504491806,0.03202364966273308
1733851143275983600,11.171983642578125,-0.2611890435218811,-0.09540896117687225,-0.006363061722368002
1733851143285951500,11.181951416015625,-0.19655252993106842,0.03740660846233368,-0.05342511087656021
1733851143295920600,11.191920654296876,-0.14526453614234924,0.12945593893527985,-0.08853617310523987
1733851143305889500,11.2018896484375,-0.11163546144962311,0.17527082562446594,-0.09759491682052612
1733851143315857400,11.211857421875,-0.09157171100378036,0.18020179867744446,-0.10084488987922668
1733851143325826300,11.221826416015626,-0.0781475156545639,0.15576863288879395,-0.0953981876373291
1733851143335795500,11.23179541015625,-0.06552692502737045,0.12139631807804108,-0.0856935903429985
1733851143345763300,11.241763427734375,-0.05500663444399834,0.0806073397397995,-0.07554242014884949
1733851143355732500,11.251732421875,-0.04711165279150009,0.02461254969239235,-0.06820689141750336
1733851143365700600,11.26170068359375,-0.024277709424495697,-0.028559058904647827,-0.05607699602842331
1733851143375669500,11.27166943359375,0.01689152419567108,-0.05939733237028122,-0.029838956892490387
1733851143385638400,11.281638427734375,0.07517985999584198,-0.06616096198558807,0.007426657248288393
1733851143395606500,11.2916064453125,0.14185386896133423,-0.04484601691365242,0.04553331434726715
1733851143405575400,11.301575439453124,0.20582087337970734,0.0048749311827123165,0.07791176438331604
1733851143415544600,11.311544677734375,0.26136231422424316,0.06225753203034401,0.1042819395661354
1733851143425512400,11.321512451171875,0.3171131908893585,0.11658548563718796,0.12784157693386078
1733851143435481600,11.331481689453126,0.35969772934913635,0.20112930238246918,0.15981030464172363
1733851143445450500,11.341450439453125,0.4051158130168915,0.3057028353214264,0.2015787810087204
1733851143455418600,11.351418701171875,0.45202624797821045,0.390276700258255,0.23095381259918213
1733851143465387500,11.361387451171876,0.49038589000701904,0.45345088839530945,0.24516230821609497
1733851143475355400,11.37135546875,0.5331658720970154,0.5023956894874573,0.23686137795448303
1733851143485324300,11.38132421875,0.5757727026939392,0.5566951036453247,0.20992536842823029
1733851143495293700,11.391293701171875,0.5991674065589905,0.6259249448776245,0.1500328928232193
1733851143505261300,11.40126123046875,0.5989679098129272,0.6884858012199402,0.06499097496271133
1733851143515230500,11.41123046875,0.5922600626945496,0.7293938398361206,-0.014718711376190186
1733851143525198300,11.4211982421875,0.5725169777870178,0.7384070158004761,-0.06570972502231598
1733851143535167500,11.43116748046875,0.5464513301849365,0.7140914797782898,-0.0736551433801651
1733851143545136400,11.441136474609374,0.5161120891571045,0.654904842376709,-0.04271692782640457
1733851143555104500,11.4511044921875,0.47368279099464417,0.5774526596069336,0.002192746615037322
1733851143565073400,11.461073486328125,0.41454675793647766,0.49327197670936584,0.028358837589621544
1733851143575042600,11.47104248046875,0.3618355393409729,0.4142814874649048,0.017351625487208366
1733851143585010400,11.481010498046874,0.3425174951553345,0.3220207989215851,-0.023989954963326454
1733851143594979600,11.4909794921875,0.35762736201286316,0.20908816158771515,-0.062188971787691116
1733851143604948500,11.500948486328125,0.37482842803001404,0.09089360386133194,-0.06416822969913483
1733851143614916600,11.51091650390625,0.38098523020744324,-0.02993844449520111,-0.03497936949133873
1733851143624885500,11.520885498046875,0.38370031118392944,-0.1400739997625351,0.008462113328278065
1733851143634853600,11.530853515625,0.3955726623535156,-0.20958925783634186,0.05562397465109825
1733851143644822500,11.540822509765626,0.4238485097885132,-0.22513173520565033,0.0815916582942009
1733851143654791700,11.550791748046874,0.45777955651283264,-0.18727616965770721,0.0889202207326889
1733851143664759300,11.56075927734375,0.48440292477607727,-0.09294141083955765,0.08737878501415253
1733851143674728400,11.570728515625,0.4948858618736267,0.053143396973609924,0.08723064512014389
1733851143684697300,11.580697265625,0.49756553769111633,0.2722880244255066,0.1163853332400322
1733851143694665500,11.59066552734375,0.49122515320777893,0.543554425239563,0.17729702591896057
1733851143704634400,11.60063427734375,0.4653323292732239,0.773608922958374,0.2381846159696579
1733851143714602500,11.6106025390625,0.43328481912612915,0.9061852693557739,0.26434075832366943
1733851143724571400,11.6205712890625,0.3971686363220215,0.9530078768730164,0.25024276971817017
1733851143734541000,11.630541015625,0.362701952457428,0.946330726146698,0.2045188695192337
1733851143744509200,11.64050927734375,0.3358924388885498,0.908665657043457,0.14401531219482422
1733851143754478300,11.650478271484374,0.3161616027355194,0.8495147228240967,0.0845106989145279
1733851143764447200,11.660447265625,0.30233660340309143,0.7862012386322021,0.049507442861795425
1733851143774415400,11.670415283203125,0.28829386830329895,0.7567587494850159,0.04809436947107315
1733851143784384300,11.68038427734375,0.2696616053581238,0.7252082824707031,0.054329097270965576
1733851143794352400,11.690352294921874,0.25105661153793335,0.654866099357605,0.0389426089823246
1733851143804321300,11.7003212890625,0.2277371734380722,0.5832496881484985,0.013575199991464615
1733851143814290200,11.710290283203125,0.198276549577713,0.5167625546455383,-0.028909651562571526
1733851143824258300,11.72025830078125,0.16677267849445343,0.43595507740974426,-0.08687787503004074
1733851143834227200,11.730227294921875,0.15243642032146454,0.32708635926246643,-0.1473933905363083
1733851143844195300,11.7401953125,0.15821467339992523,0.20010603964328766,-0.19465358555316925
1733851143854164500,11.75016455078125,0.17824888229370117,0.06477051973342896,-0.20932285487651825
1733851143864133400,11.76013330078125,0.22552025318145752,-0.04753684252500534,-0.18678131699562073
1733851143874101200,11.770101318359375,0.28052136301994324,-0.07843157649040222,-0.11475638300180435
1733851143884070100,11.780070068359375,0.31322309374809265,-0.06403692811727524,-0.038465335965156555
1733851143894039000,11.7900390625,0.31470102071762085,-0.07444299757480621,-0.005232320167124271
1733851143904007200,11.800007080078124,0.2907770276069641,-0.097378671169281,-0.011789822019636631
1733851143913976300,11.809976318359375,0.2519700527191162,-0.08370034396648407,-0.030669402331113815
1733851143923944200,11.819944091796875,0.20361478626728058,-0.0387435182929039,-0.05866402015089989
1733851143933913300,11.829913330078124,0.16275429725646973,0.01893705502152443,-0.08488580584526062
1733851143943882200,11.83988232421875,0.14230096340179443,0.06675171107053757,-0.10704570263624191
1733851143953850400,11.849850341796875,0.14516817033290863,0.11608906835317612,-0.10714650899171829
1733851143963819300,11.8598193359375,0.1689976006746292,0.1697315275669098,-0.09407597780227661
1733851143973788200,11.8697880859375,0.19695182144641876,0.18604937195777893,-0.08328095078468323
1733851143983756300,11.87975634765625,0.22424788773059845,0.15827447175979614,-0.08048809319734573
1733851143993725200,11.88972509765625,0.2469090223312378,0.13030704855918884,-0.06551235914230347
1733851144003693300,11.899693359375,0.25842589139938354,0.1278950273990631,-0.016198333352804184
1733851144013662500,11.909662353515625,0.2530471682548523,0.08950016647577286,0.03998155891895294
1733851144023631400,11.91963134765625,0.2473890334367752,-0.022233018651604652,0.07692492753267288
1733851144033599200,11.92959912109375,0.2455509752035141,-0.16747713088989258,0.08952953666448593
1733851144043568000,11.939568115234374,0.2459658980369568,-0.2798825204372406,0.08616809546947479
1733851144053537000,11.949537109375,0.23610685765743256,-0.33979570865631104,0.06693173944950104
1733851144063505200,11.959505126953125,0.22245974838733673,-0.332442969083786,0.047540467232465744
1733851144073474000,11.96947412109375,0.21304741501808167,-0.26179200410842896,0.04460906609892845
1733851144083442200,11.979442138671875,0.20633970201015472,-0.17857861518859863,0.052271511405706406
1733851144093411300,11.989411376953125,0.20880737900733948,-0.1085563600063324,0.061936743557453156
1733851144103380200,11.999380126953126,0.21315258741378784,-0.0471116378903389,0.07502858340740204
1733851144113348400,12.009348388671874,0.22319932281970978,0.028396768495440483,0.08878970891237259
1733851144123317200,12.019317138671875,0.22875894606113434,0.12243404239416122,0.105168417096138
1733851144133286100,12.0292861328125,0.22747743129730225,0.19694557785987854,0.10767045617103577
1733851144143254300,12.039254150390626,0.2169150710105896,0.2387007474899292,0.09254689514636993
1733851144153223200,12.04922314453125,0.19885267317295074,0.2544085681438446,0.0802585557103157
1733851144163191300,12.05919140625,0.1737276166677475,0.2134387493133545,0.0651634931564331
1733851144173160200,12.06916015625,0.14261743426322937,0.09740480035543442,0.04192708060145378
1733851144183129300,12.07912939453125,0.10937666147947311,-0.07289955765008926,0.009709225036203861
1733851144193097500,12.089097412109375,0.07716203480958939,-0.25150665640830994,-0.025149203836917877
1733851144203066400,12.09906640625,0.06035615876317024,-0.4155520498752594,-0.04597139358520508
1733851144213035300,12.10903515625,0.06597251445055008,-0.5615361928939819,-0.044376783072948456
1733851144223003100,12.119003173828125,0.07763955742120743,-0.6886864304542542,-0.01642104797065258
1733851144232972000,12.128971923828125,0.09048447757959366,-0.7963520884513855,0.024414848536252975
1733851144242940200,12.138940185546875,0.09982311725616455,-0.8666366338729858,0.05889825522899628
1733851144252909000,12.148908935546874,0.10020841658115387,-0.9053632020950317,0.07560466229915619
1733851144262878200,12.158878173828125,0.09198084473609924,-0.9006190299987793,0.07903188467025757
1733851144272846300,12.168846435546875,0.07560916244983673,-0.8538322448730469,0.06276245415210724
1733851144282815200,12.178815185546876,0.05299386754631996,-0.7729539275169373,0.029346441850066185
1733851144292784000,12.1887841796875,0.03578879311680794,-0.6550590395927429,-0.01095733605325222
1733851144302752300,12.198752197265625,0.017773842439055443,-0.48847806453704834,-0.0442977137863636
1733851144312721200,12.20872119140625,0.004210390616208315,-0.265778124332428,-0.06210895627737045
1733851144322689300,12.218689208984374,-0.004523179493844509,-0.011775385588407516,-0.07653210312128067
1733851144332658200,12.228658203125,-0.003983525093644857,0.20455950498580933,-0.08171303570270538
1733851144342627300,12.23862744140625,0.009838547557592392,0.33677026629447937,-0.06705392897129059
1733851144352595500,12.248595458984376,0.024504603818058968,0.43003472685813904,-0.05320098623633385
1733851144362564400,12.258564453125,0.02879788540303707,0.5029744505882263,-0.04623282328248024
1733851144372533200,12.268533203125,0.03541216999292374,0.5460436344146729,-0.03840816393494606
