time,seconds_elapsed,z,y,x
1733902270007344600,0.0213447265625,0.7661152320902794,0.014391513445973395,0.26471067461669445
1733902270017370600,0.03137060546875,0.8080594269156456,0.08136603156626224,0.31572511480003596
1733902270027397600,0.041397705078125,0.8456313249409199,0.20995441755652428,-0.001978022074699402
1733902270037423600,0.051423583984375,0.9537268118701875,0.6667436612993478,-0.613016162765026
1733902270047451000,0.061450927734375,0.7431716519415378,1.1189900009155274,-1.1719091056764126
1733902270057476900,0.071476806640625,0.362324076628685,1.4482991121709345,-1.510876856637001
1733902270067503600,0.081503662109375,0.23633158888313918,1.7915221824884413,-1.5637135438114405
1733902270077530600,0.091530517578125,0.2237608245909214,1.6980109550982714,-1.1377733195796609
1733902270087556600,0.101556640625,0.3130442051529884,1.085605033186078,-0.28427228417694567
1733902270097583900,0.111583984375,0.37681320523023604,0.30116964296400545,0.6265931449577212
1733902270107609900,0.12160986328125,0.3658709554553032,-0.37966625657379627,1.3898346482425927
1733902270117636600,0.13163671875,0.3506324697911739,-0.8747031056463718,1.7458593324661253
1733902270127662600,0.14166259765625,0.5042810627579689,-1.108617075461149,1.719039130079746
1733902270137689600,0.151689697265625,0.707344551756978,-1.0388853675872087,1.5117337657272816
1733902270147715600,0.161715576171875,0.9539274490088224,-0.6951233680874109,1.1506462451562285
1733902270157742800,0.171742919921875,1.1105845761418343,-0.2208025593072176,0.381580273501575
1733902270167768800,0.181768798828125,1.0503121860086917,0.301565948805213,-0.25738953794836994
1733902270177795600,0.191795654296875,0.7713736640751362,0.7097662259459495,-0.49022068096250293
1733902270187822600,0.201822509765625,0.5957184064835309,0.9290718246936798,-0.681506930667162
1733902270197848600,0.2118486328125,0.5328793807327747,0.8163865257561206,-0.5058703777760267
1733902270207875800,0.221875732421875,0.5209563762921839,0.4571118998259306,-0.02478986560255289
1733902270217901800,0.23190185546875,0.5761117887377739,0.1092313590914011,0.44084553241878743
1733902270227928600,0.241928466796875,-0.22163141134679315,-0.005738251391053199,0.43014293661862607
1733902270237954600,0.25195458984375,0.1661690518438816,0.3930138139247894,-0.6994558443337678
1733902270247981600,0.261981689453125,0.42353360148146746,0.5814782842069864,-0.5169827234208584
1733902270258007800,0.2720078125,0.378580361033231,-0.48623161132633685,1.9421113878846168
1733902270268034800,0.282034912109375,-0.29220059295818207,-1.5127368052899837,2.781810107906163
1733902270278060800,0.292060791015625,-0.5642378110706806,-1.005465913066268,2.664204011440277
1733902270288087600,0.302087646484375,-0.5529701287336647,-0.5959107141852379,1.8530813975617288
1733902270298113500,0.312113525390625,-0.4229844431661069,-0.17577683814466,0.6030281449750066
1733902270308140800,0.322140869140625,-0.017187866166234016,0.21105156514346599,-0.1182566693291068
1733902270318167800,0.332167724609375,-0.1294726214788854,0.05094225172996521,-0.5688116948574781
1733902270328193800,0.34219384765625,0.13101605152860282,0.022929624688625333,-0.3154462978586554
1733902270338220500,0.352220458984375,0.5401634002611041,0.24824410846233366,0.12884762144833803
1733902270348246500,0.36224658203125,0.6468028431631624,0.2950935379207134,0.4749257889360189
1733902270358273800,0.372273681640625,0.5752265303358435,0.5727735842257737,0.709936906337738
1733902270368299800,0.3822998046875,0.8893409950688481,0.4748872104912996,0.4771192073270678
1733902270378326500,0.392326416015625,1.2424550525426863,0.5726151787936687,-0.24241993235349654
1733902270388352500,0.4023525390625,1.334079004881531,0.39135961697697635,-0.3742252345636487
1733902270398379500,0.412379638671875,1.0081938767254353,0.10441957489550113,0.08668167363107204
1733902270408406800,0.42240673828125,0.9710603701174259,0.21023849519491195,0.7535328869581223
1733902270418432800,0.432432861328125,0.4227250615775585,0.6873363674730062,1.2795961579352617
1733902270428459500,0.44245947265625,-0.12334332494363189,1.0403647924900055,1.024440370388329
1733902270438485500,0.452485595703125,-0.7437988439291715,0.9063765932828187,0.5198839978203177
1733902270448512500,0.462512451171875,-1.6115594369612634,0.7078460715383291,0.6170601774588227
1733902270458538800,0.472538818359375,-2.174378028883785,0.13894085317850113,0.35982495328933
1733902270468565800,0.482565673828125,-1.839127398750186,-0.8432242637991905,-0.47513037159740923
1733902270478591700,0.492591796875,-0.9606526656106114,-1.7716653893738985,-1.1241101204082369
1733902270488618500,0.502618408203125,-0.02082972979992628,-1.8011048343479632,-1.3458750950068235
1733902270498644500,0.51264453125,0.5090209507614374,-1.3587515277147293,-1.378927469781041
1733902270508671700,0.522671630859375,0.21812837166190147,-0.8872089514762163,-1.0421768103480338
1733902270518698800,0.53269873046875,-1.0198245471559464,-0.20246493858397005,-1.0168716886997222
1733902270528724700,0.542724853515625,-2.1505792201451954,0.031986206847429276,-0.590460924346745
1733902270538751500,0.55275146484375,-2.7341443936288354,-0.13490005335509778,-1.134076803149283
1733902270548777500,0.562777587890625,-3.649744157809019,-0.28863047938644887,-1.3241162676632403
1733902270558804700,0.5728046875,-2.1036703155845404,-0.4511544527262449,-0.7480617620706558
1733902270568830700,0.582830810546875,-1.1105395679563284,-0.4707359360307455,-1.4258882506594062
1733902270578857700,0.592857666015625,-1.2212392460346222,-0.522449756655097,-1.077923246511817
1733902270588883700,0.6028837890625,-1.448932733899355,-0.5775888755530119,-0.517833787292242
1733902270598910500,0.612910400390625,-1.8248329159379004,-0.34628187336623667,-0.17191227167099712
1733902270608936400,0.6229365234375,-2.2410557560145854,-0.09754150581955909,0.10548808090984821
1733902270618963700,0.632963623046875,-2.810506625558436,0.5280553215771914,0.723918962199986
1733902270628990700,0.64299072265625,-3.1802573450565337,1.0592845970153808,1.4623796599715948
1733902270639016700,0.6530166015625,-3.0750340525627133,1.1015057821512222,1.8210595348790286
1733902270649043500,0.66304345703125,-2.382761105470359,1.0019897613883018,1.7339458995714783
1733902270659069700,0.673069580078125,-1.4143803298257291,0.6514923161536454,1.2975818964809178
1733902270669096700,0.6830966796875,-0.7221009529925883,0.3899813143610954,1.0208423458963631
1733902270679122700,0.693122802734375,-0.6355218629531562,0.38916532180309293,1.3757690057501195
1733902270689149700,0.703149658203125,-1.1909123507015407,0.6596025573730468,1.7672195158809423
1733902270699175700,0.71317578125,-1.571384809091687,0.6612649376273155,1.6206445145621895
1733902270709202700,0.72320263671875,-1.5600544367820024,0.6309083778083324,1.4048483852401374
1733902270719228700,0.733228759765625,-1.3855886812359093,0.5717331352621317,1.2390630720168352
1733902270729255700,0.743255615234375,-1.196013619363308,0.4271259268850088,1.4116884603932498
1733902270739282700,0.75328271484375,-1.060847024026513,0.35381168434917926,1.369876732841134
1733902270749308700,0.76330859375,-1.0006367393441498,0.5487941582232714,1.072111637623608
1733902270759335700,0.773335693359375,-1.1153735639840363,0.6054810910850763,1.0158028904244303
1733902270769361700,0.783361572265625,-1.1278349861502648,0.22747078502476215,0.6060071607857942
1733902270779388700,0.793388671875,-1.050425583255291,-0.1595768139719963,0.34302900905013084
1733902270789414700,0.80341455078125,-0.6687373923998325,-0.2350233923614025,0.33964550409168004
1733902270799441700,0.813441650390625,-0.3805144709009677,-0.268219559520483,0.6067541797608137
1733902270809467600,0.823467529296875,-0.33337329195439813,-0.024019758012890816,0.8935869620755315
1733902270819494700,0.83349462890625,-0.8232763583350926,-0.07213584640622138,1.115262212564051
1733902270829520600,0.843520751953125,-1.1008277367591857,-0.21765315536558627,0.8240259345933795
1733902270839547600,0.853547607421875,-0.40120362318642433,-0.5630950707763434,0.3124292881250381
1733902270849574700,0.86357470703125,0.4056570223987102,-1.0449860225498675,-0.01733311985582113
1733902270859601000,0.873600830078125,0.9571294599205254,-1.1533785927295683,-0.22099632831364868
1733902270869627600,0.883627685546875,0.7355605924159287,-0.8446265318125485,-0.2724450682610273
1733902270879653600,0.893653564453125,0.23234102140963075,-0.8030050661355257,-0.2071490047469735
1733902270889680600,0.9036806640625,0.1176052196830511,-0.5998123977988958,-0.0030517887860536572
1733902270899706600,0.91370654296875,0.3343669791668653,-0.7412830617159605,-0.14427169281244276
1733902270909734000,0.92373388671875,0.08045768454968928,-0.6103390525102615,-0.45737639598101376
1733902270919759000,0.933759033203125,-0.45509058659877627,-0.8431880234420299,-0.8090256415992975
1733902270929785900,0.943785888671875,-0.8170505426228046,-0.8227700893133878,-0.8331067744106054
1733902270939811800,0.953811767578125,-1.104482752135396,-0.6619803924202918,0.08873129963725805
1733902270949838800,0.9638388671875,-0.6905775413513183,-0.1725748272329569,0.8625266379013657
1733902270959866000,0.9738662109375,-0.11897066281735896,-0.043974166283011436,1.325754390259087
1733902270969892000,0.98389208984375,-0.2638502583950758,0.23810323819816112,1.0968518188655376
1733902270979918800,0.9939189453125,-0.16732055996656417,0.6593553046137094,1.5271031842947005
1733902270989944800,1.00394482421875,-0.14744034944381565,1.1256851146399973,1.5883958573862909
1733902270999971800,1.013971923828125,-0.37219372873604295,1.747439879655838,1.4326169743925332
1733902271009997800,1.023997802734375,-0.6347334890544414,1.9927485191881655,1.7636513020053506
1733902271020025000,1.034025146484375,-0.9270072203140706,2.115593393090367,2.010036338597536
1733902271030051000,1.044051025390625,-0.9878167860638349,2.2199381491839882,1.8650258101165293
1733902271040077800,1.054077880859375,-0.8932429709434508,2.3144103305608033,1.6072916965141892
1733902271050103800,1.064103759765625,-0.9875109349850565,2.453630000680685,1.3289169459432362
1733902271060131000,1.074131103515625,-1.1775525914561003,2.572374453526735,1.4443626495048403
1733902271070157000,1.084156982421875,-1.1624299141913652,2.9878894375950096,1.3464908888176084
1733902271080184000,1.09418408203125,-0.9536620030056685,3.585848316481709,0.5731564460635185
1733902271090210800,1.1042109375,-0.6445330716002732,4.242432987338304,-0.012555530190467833
1733902271100236800,1.11423681640625,-0.6005833821713924,3.8766678303450344,-0.418240609639883
1733902271110264000,1.12426416015625,-0.7343839498519897,3.11916603975594,-0.8390925708219409
1733902271120290000,1.1342900390625,-0.7404770060300827,2.310282436975837,-0.5542901252910495
1733902271130317000,1.144317138671875,-0.6816378635704516,1.8836451703906059,-0.9607301147609949
1733902271140343000,1.154343017578125,-0.5986136164683848,1.9341186355650424,-1.4360019406557083
1733902271150369800,1.164369873046875,-0.31008550147786734,1.9296663323312997,-0.6708581108808517
1733902271160395800,1.174395751953125,-0.1271077920436859,1.6636965975642204,0.42906507825404405
1733902271170423000,1.184423095703125,0.0737690005660057,1.8644845428466796,0.28279724318832156
1733902271180449000,1.194448974609375,0.560764582002163,1.9588854125529527,-0.1948231916591525
1733902271190476000,1.20447607421875,0.9161948074638843,1.9528116455972193,-0.4633545936077833
1733902271200502800,1.214502685546875,0.7985299665480852,2.0916186432629824,-0.24687311237007378
1733902271210528800,1.22452880859375,-0.46984717049747704,-10.825286944806574,4.067333610063791
1733902271220556000,1.23455615234375,-0.4482455795422196,-12.800239110541343,3.0603733667865396
1733902271230582000,1.24458203125,3.616630408236384,3.708411450833082,-2.9028216289013624
1733902271240609000,1.254609130859375,5.35650189846456,-1.0018938997983933,-2.195847371761501
1733902271250635000,1.264635009765625,4.656020218214392,-4.29398898705244,-2.79414293525666
1733902271260661800,1.274661865234375,2.1852976284354924,-4.289854663726687,-3.2663217635720967
1733902271270688000,1.28468798828125,0.5300806899249554,-2.5759908904582263,-3.010205022038519
1733902271280715000,1.294715087890625,-0.7982996649235486,-1.062100238958001,-2.6216744910076257
1733902271290741000,1.304740966796875,-1.9978607476353645,-0.15633037939667702,-2.007640091110766
1733902271300768000,1.31476806640625,-0.3919938232272863,-0.32605624693930146,-1.4208984795480966
1733902271310794000,1.3247939453125,0.4029389956116676,-0.609168839687109,-0.8351192832767963
1733902271320821000,1.334821044921875,0.05186579631567001,-0.7875672585070133,-0.4625964687168598
1733902271330848000,1.344847900390625,-0.07520224823951721,-1.3005138582795857,-0.375912456998229
1733902271340874000,1.3548740234375,-0.7605670233786106,-0.8235083404600619,-0.38022257528230546
1733902271350901000,1.36490087890625,-2.408308511441946,-0.22464403716623782,-0.3103761915201321
1733902271360927000,1.374927001953125,-3.5965742931574582,-0.542942509585619,0.4218434199048206
1733902271370954000,1.3849541015625,-2.796476054379344,0.2118064751639962,1.764990003263205
1733902271380980000,1.39497998046875,-0.5547504362791776,0.4458443636193871,2.0754037137821317
1733902271391007000,1.405007080078125,1.1843266887009143,0.6554372543871403,1.9639730910807847
1733902271401033000,1.415032958984375,1.4151689959853886,0.8013166746571659,0.9702226041190326
1733902271411060000,1.42506005859375,0.5319260255306959,0.9975631771177053,-0.2523206371862441
1733902271421086000,1.4350859375,-0.3954249667197466,1.6101543924689292,-0.8596184953697025
1733902271431113000,1.445113037109375,-0.7139718609422445,1.990843562349677,-1.6795877019181846
1733902271441139000,1.455138916015625,-0.6477963842451572,2.2358786456376314,-1.9214706047855317
1733902271451166000,1.465166015625,-0.6570476121932268,1.7924913197815417,-1.3455486395314336
1733902271461193000,1.47519287109375,-1.4578794259428978,0.2834031001269817,-0.2608701466057449
1733902271471219000,1.485218994140625,-1.1740239058732986,-0.3519318619519472,0.28873012210233134
1733902271481246000,1.495245849609375,0.27198738762140273,-0.029696634605526923,0.8509194944769144
1733902271491272000,1.50527197265625,1.2919114496290682,0.9829898773640393,1.5367095092907548
1733902271501299000,1.515298828125,1.5246820946276187,2.4701731392025947,2.264488800180703
1733902271511325000,1.525324951171875,0.5184861137211323,2.665546658220887,2.31654266641438
1733902271521352000,1.53535205078125,-0.14215923070311545,1.9766139614671467,1.6298897511608899
1733902271531378000,1.5453779296875,-0.07645838578045368,2.076101925179362,1.3775538433402776
1733902271541405000,1.555405029296875,0.6065034198701381,2.825082555660605,1.4225211123138666
1733902271551431000,1.565430908203125,1.035001804152131,3.0020000882729887,1.606503176485002
1733902271561458000,1.5754580078125,1.146814411908388,2.031586199365556,1.539430897078663
1733902271571485000,1.58548486328125,1.4722382061630486,0.5688105258136987,1.111031954583153
1733902271581511000,1.595510986328125,2.201575978541374,-0.7616048419937491,0.7746738746643066
1733902271591538000,1.605537841796875,3.0471675559937954,-1.4999027504190803,0.6203840611845255
1733902271601564000,1.61556396484375,3.742572663632035,-1.2810878577977418,-0.03271620162241161
1733902271611591000,1.6255908203125,3.402755602365732,-0.9209183288544416,-0.5669850639522075
1733902271621617000,1.635616943359375,2.8784552494078874,-1.0047650713205336,-1.0890016898870467
1733902271631644000,1.645643798828125,2.8711726911842823,-1.3787123657256364,-2.032151724293828
1733902271641670000,1.655669921875,2.8769126961410043,-2.123148630775511,-1.2723198833219707
1733902271651697000,1.66569677734375,2.8824983873188494,-3.250562176643312,0.7829046735234558
1733902271661723000,1.675722900390625,2.3498878866553303,-2.7089059074759483,0.47803866025954483
1733902271671750100,1.685750244140625,0.38060207611918445,-0.945043300807476,-1.3218319561183451
1733902271681776000,1.695776123046875,-0.8483493517279624,0.009551379938423633,-2.186960739342123
1733902271691803000,1.705802978515625,-1.7898931199818848,0.6707403297200799,-2.074322202155739
1733902271701830000,1.715829833984375,-2.953992428690195,0.6978264895662665,-1.2770165167056022
1733902271711855900,1.72585595703125,-3.1979134132564067,0.2600388834133744,-0.8318227259494364
1733902271721883100,1.735883056640625,-2.5432658479422328,-0.3395008349239826,-0.8943471327930689
1733902271731909000,1.7459091796875,-1.7368138562232256,-0.044539106689393516,-1.64096278770864
1733902271741935900,1.755935791015625,-3.4346213977038857,-0.3865517783038318,-1.6062769665136933
1733902271751961900,1.7659619140625,-5.398751725172996,-0.6976286289066076,-1.4512369191884993
1733902271761988900,1.77598876953125,-5.502211515125632,-0.6806598123185336,-2.001662624136358
1733902271772014800,1.786014892578125,-5.5549622775822876,-0.9226420839071273,-2.1049222153417766
1733902271782042000,1.7960419921875,-5.282132593917846,1.2357368502035737,-3.4766871000170707
1733902271792068900,1.80606884765625,-7.785200286984443,3.713089379516244,-2.9871172841787335
1733902271802094800,1.8160947265625,-2.703247735583782,2.0929250496864316,2.1318013083085416
1733902271812121900,1.826121826171875,3.7869828832447525,1.9159189620077608,3.994108214855194
1733902271822147800,1.83614794921875,2.7194273014903065,2.6260300558686254,3.8932422407880423
1733902271832175000,1.846175048828125,2.5292449213743207,1.4196419036157428,2.6994068422466513
1733902271842201000,1.856201171875,1.813628800356388,-0.7301692547664046,1.8967846379488706
1733902271852227800,1.866227783203125,1.1277911470085382,-0.6412248969003558,1.3015589834183454
1733902271862253800,1.87625390625,0.579757451763749,0.7060767237782478,1.2443342904180288
1733902271872281000,1.886281005859375,-0.5958136835515498,1.7377540596827863,-0.5773037750013172
1733902271882308000,1.89630810546875,-1.585549528044462,2.2167577655822037,-1.4358590250536798
1733902271892334000,1.906333984375,-2.050848241457343,2.395651858964562,-2.255981814728677
1733902271902360800,1.91636083984375,-1.5936685370922088,2.430910803872347,-1.1040607273310423
1733902271912386800,1.92638671875,-1.3590584017068146,3.1519980497777462,-0.1924918443684466
1733902271922414600,1.93641455078125,-0.45180502558946606,5.12820635305345,-0.23865170239377764
1733902271932440600,1.946440673828125,0.3290910845905542,8.363599894398451,1.1430270023241638
1733902271942467600,1.956467529296875,0.4052911116957664,7.4710010665774345,4.792719137685
1733902271952493600,1.96649365234375,0.5852636479645967,6.290372647872567,6.682929950201511
1733902271962520600,1.9765205078125,1.1771604503333568,4.479014130535721,7.352088855949043
1733902271972547600,1.986547607421875,3.204930014020204,2.0006606074869633,6.933294119557738
1733902271982573600,1.996573486328125,6.107514911556244,-0.08985328940451144,5.720609935900568
1733902271992600600,2.0066005859375,9.494623447456956,-2.063198019942641,3.5717896882519122
1733902272002626600,2.01662646484375,9.590693711680172,-2.9013252528637645,-0.28225487993992865
1733902272012653600,2.026653564453125,9.141137926322221,-3.2034418212890623,-4.05604327750355
1733902272022680600,2.0366806640625,5.980694704282284,-2.972107346573472,-4.973074243530631
1733902272032706600,2.04670654296875,2.796044677224755,-2.357432895207405,-4.161503593623638
1733902272042733600,2.056733642578125,0.8933207123547792,-1.510544848203659,-2.2134930646978317
1733902272052759600,2.066759521484375,-0.1816542057454586,-1.1346510959059,-0.37782943306807426
1733902272062786600,2.07678662109375,-0.5095838453412056,-1.2486287727415561,1.203411912921071
1733902272072812500,2.0868125,-0.15103811820745466,-1.506915551790595,1.831150720782578
1733902272082839600,2.096839599609375,0.5866179851830006,-1.8659715665340422,1.4127822469793259
1733902272092866600,2.106866455078125,2.277752040249109,-1.881606358039379,-1.3689121255926786
1733902272102892500,2.116892578125,1.3325082484334707,-1.9568214657604692,-2.7018065968647598
1733902272112919600,2.12691943359375,-1.4606944833636284,-2.9005981076329945,-0.49961869697012007
1733902272122945500,2.136945556640625,-0.9882640183746814,-3.5750890220582483,0.3662674074269831
1733902272132972500,2.14697265625,0.3176788792163133,-2.921272646871209,-0.029639935982227323
1733902272142999600,2.15699951171875,0.2790852369278669,-2.473906480512023,-0.34891324478313324
1733902272153025500,2.167025634765625,-0.1235965690523386,-1.5440034656912087,-0.1546567470960319
1733902272163052500,2.177052490234375,1.255264849755168,-0.13388181622326373,0.3110161333914846
1733902272173078500,2.18707861328125,-0.023215455892682074,0.7010586033552885,1.5923007558703421
1733902272183105500,2.19710546875,-3.732779583892226,1.3098299681574106,2.845729037848115
1733902272193132500,2.207132568359375,-0.9872954656034707,1.032487775504589,1.3394346866957842
1733902272203158500,2.217158447265625,-1.274461133134365,0.42998073179423807,0.9138868227824568
1733902272213185500,2.227185546875,-0.3169967421710491,-0.48326457821428775,0.5160770798180252
1733902272223211500,2.23721142578125,2.125183643734455,-0.6290934373408555,-0.25806025855047626
1733902272233238800,2.24723876953125,3.908582141000032,0.5377104541510344,-1.54646313380301
1733902272243264800,2.2572646484375,3.058555795970559,3.0027205115020275,-3.180231918354332
1733902272253291500,2.26729150390625,1.35694067890048,2.505544312313199,-1.4150801486581563
1733902272263318500,2.277318603515625,-0.42558571170568466,1.347291391545534,1.798647212062776
1733902272273344500,2.287344482421875,-1.6649603338897228,-0.1415209327995777,0.8372316723208874
1733902272283371800,2.297371826171875,-2.8911586636364457,-0.9852437937706708,1.1311482754167168
1733902272293397800,2.307397705078125,-2.193850937247276,-1.12189449018538,0.7304396692056209
1733902272303424500,2.317424560546875,-0.8400421266317367,-0.9235048382163047,0.6858933290578425
1733902272313451500,2.327451416015625,-0.3022264585405588,-0.7874450934320688,0.9196808229487389
1733902272323477500,2.3374775390625,-0.7717746460914612,-1.3334130883187054,1.0586506099607795
1733902272333504800,2.3475048828125,-0.8901385751873254,-1.9602426723808049,1.0595074459858238
1733902272343530800,2.35753076171875,-0.2574620186626911,-1.71379129255414,0.5518367773221805
1733902272353557500,2.3675576171875,0.551504586225748,-0.15621113693118094,-0.4851521455265581
1733902272363584500,2.37758447265625,0.5172025036513805,1.0800859775036573,-1.0199193858325482
1733902272373610500,2.387610595703125,1.215111118543148,0.13065642443597317,-0.5942740528941154
1733902272383637800,2.3976376953125,1.374757490620017,-0.7190151158064604,-0.9865542187821119
1733902272393663700,2.407663818359375,0.5280336942672729,-0.6500777731806039,-1.8446856173992157
1733902272403690500,2.4176904296875,-0.4354384126782417,-0.6204886906027793,-1.3553336820952593
1733902272413717500,2.427717529296875,-3.231510562431812,-2.5318524735242125,-2.8365760095775125
1733902272423743500,2.437743408203125,-1.7253291701346636,-1.0430933406710625,-1.919535837330669
1733902272433770800,2.447770751953125,-1.3633289186328648,-0.5109042802900076,0.3938698096996173
1733902272443796700,2.457796630859375,0.6586030249416828,-0.17676175752878187,1.04845742498748
1733902272453823500,2.467823486328125,1.644735876506567,-0.5227560461252927,-0.1994603134078905
1733902272463850500,2.4778505859375,0.6206733995199203,1.3745827185750006,0.9612574996359646
1733902272473876500,2.48787646484375,1.661222316405177,2.554215111979842,1.5992732252314685
1733902272483903700,2.49790380859375,1.695185960805416,1.8402298070341347,0.9014492929484694
1733902272493929700,2.5079296875,0.4651934994727373,1.004796050980687,0.9068981329388915
1733902272503956500,2.51795654296875,-0.13523732248544693,0.24738486128449438,0.6443536964453757
1733902272513983500,2.5279833984375,-0.4808382278501987,-0.22418869461417196,0.8171949195295571
1733902272524009500,2.538009521484375,-1.226377777966857,-0.7961293351471423,0.27378720358498393
1733902272534036700,2.54803662109375,-1.6217279258847235,-0.8717916021138429,-0.4992729157397523
1733902272544062700,2.558062744140625,-1.5615017129808664,-0.9304881212323903,-0.6178619953610003
1733902272554089500,2.56808935546875,-0.8147627239465713,-1.0886708504974842,-0.02745053617917001
1733902272564116500,2.578116455078125,-1.340419167688489,-0.2738882528066635,0.7624582439526915
1733902272574142700,2.588142822265625,0.2354629528224468,0.6779992148071528,0.7963815563425422
1733902272584169700,2.598169677734375,1.799812456449866,1.9642472318470476,0.15780169405825434
1733902272594196500,2.608196533203125,2.495122287020087,1.0708481935590506,1.5854311623618005
1733902272604222500,2.618222412109375,2.3767063354760407,0.0032557869255542752,1.8867337840557097
1733902272614249500,2.62824951171875,1.9514047014087437,0.03982113825678825,1.8864725027710199
1733902272624275700,2.638275634765625,1.8543389964073895,0.33429683654010295,2.040768599861115
1733902272634302700,2.648302734375,1.641132299056649,0.667041767463088,2.0112688030019403
1733902272644329500,2.65832958984375,1.444756909519434,0.7120090364366769,2.3073972369283435
1733902272654355500,2.66835546875,1.5705144559979438,0.638370968773961,2.424771862725913
1733902272664382700,2.6783828125,1.4613585002303122,-0.11454174045920372,1.9842938484452664
1733902272674408700,2.68840869140625,0.6959750164806843,-0.3776332894414663,1.875617639018595
1733902272684435700,2.698435791015625,-0.6762164230436086,-0.6256289761006831,2.4587848992258308
1733902272694462500,2.70846240234375,-1.2437263876527547,-1.1017086112469434,1.9938683169983327
1733902272704488400,2.718488525390625,-1.352228263425827,-1.672688297793269,0.15001600861810147
1733902272714515700,2.728515625,-2.4230314487993714,-1.5267325974166392,-1.6795565761275588
1733902272724541700,2.738541748046875,-2.8137650428324936,-1.6839853523552417,-2.912510956005752
1733902272734568700,2.748568603515625,-6.466095125481486,-1.7270529251873492,-5.564356128871441
1733902272744595500,2.758595458984375,-6.048375324845313,-8.197312769132852,-2.6701246336609126
1733902272754621400,2.768621337890625,-2.3586796803981063,0.5722784941852093,-2.4626272538676854
1733902272764648700,2.778648681640625,-1.8507903640151022,0.46324821062386035,-4.686244091564417
1733902272774674700,2.7886748046875,2.9678251392096278,-2.356037641456723,-1.9746083207331597
1733902272784701700,2.79870166015625,5.281297896659374,4.911087450695038,1.1656746682662515
1733902272794728400,2.808728515625,4.083216238850355,6.44251492792964,1.8112823833607137
1733902272804754400,2.81875439453125,3.269935277894139,4.0820688223809,-0.4363355076484382
1733902272814781700,2.82878173828125,2.4855285292446614,1.7740654362529515,-0.5129980376988649
1733902272824808700,2.83880859375,1.024647583398223,0.4397866710156202,-0.5348585718512535
1733902272834834700,2.848834716796875,0.3537789511233568,-0.2755664151519537,-0.7039878617402165
1733902272844861400,2.858861328125,0.08123392961919307,-1.1653449248552321,-0.3480886305272579
1733902272854887400,2.868887451171875,-0.7579840211480855,-0.45930970213115213,-1.0518137496780604
1733902272864914700,2.878914794921875,-2.082486073258519,-0.06983341468274593,-2.567010880666971
1733902272874941700,2.888941650390625,-2.841722724816203,-1.7357950345695017,-2.4241015622489153
1733902272884967700,2.8989677734375,-1.8310118968337774,-2.677766672846675,-1.7443170714601874
1733902272894994400,2.908994384765625,-0.478517675948143,-2.0511995391130444,-1.4437961016632617
1733902272905020400,2.9190205078125,0.7450508898168802,-1.1082587635427712,-0.7260803780175745
1733902272915048000,2.9290478515625,1.6461252850383519,-0.8090425927340984,-0.28808351302817464
1733902272925074700,2.93907470703125,2.0519681853979823,-0.7109902147829532,0.03541866551414132
1733902272935100700,2.9491005859375,1.990996707084775,-0.40885143452584743,0.21740327225774525
1733902272945127700,2.959127685546875,1.7009335645467043,-0.6294137553364038,0.9383122389867902
1733902272955153700,2.969153564453125,2.9223066660940646,-1.4492951374709606,3.2195790093585845
1733902272965181000,2.979180908203125,1.0559323639780283,0.12975509168207644,2.5655323325470087
1733902272975207700,2.989207763671875,-1.559204541954398,0.6774497642308474,0.7100014960065484
1733902272985233700,2.999233642578125,-3.6541999681740998,3.3315935694277283,1.4710919587373732
1733902272995260700,3.0092607421875,-3.6357185550659894,4.449835966846346,2.0127637177348134
1733902273005288000,3.019287841796875,-2.6180752974718806,1.1787012500345706,2.2839450496703386
1733902273015314000,3.02931396484375,-1.9799784694641827,-1.3294541215598583,3.6588071697086093
1733902273025340700,3.039340576171875,-2.272351057988405,-2.7638497960627078,3.1947336141765117
1733902273035366700,3.04936669921875,-2.1423463754594323,-2.6555606862574814,1.4709265390425919
1733902273045393700,3.0593935546875,-1.4663427183836697,-1.625104708841443,0.2626353296473622
1733902273055421000,3.0694208984375,0.4425555512070656,-1.4296306520581246,0.3260314047589898
1733902273065447000,3.079447021484375,1.1728729822725057,-2.2380694336801765,-0.9232520324990153
1733902273075473700,3.0894736328125,1.5162661484599114,-2.8152538200855255,-2.1987845942571758
1733902273085499600,3.099499755859375,1.665713198083639,-2.90293736423552,-2.230869585303962
1733902273095526700,3.109526611328125,1.4376643209099769,-2.0115759692549706,-1.437964472900331
1733902273105554000,3.119553955078125,0.984389222767949,-1.2565847001820802,-0.618456600253284
1733902273115580000,3.129579833984375,0.5097966113090515,-1.2672504711031913,0.15995938354879616
1733902273125606700,3.139606689453125,0.5795078609168529,-0.8951976121425628,0.5436278615012765
1733902273135633700,3.149633544921875,0.7115285594433546,-0.31367899592518805,0.484530360366404
1733902273145659600,3.15965966796875,0.5090162745863199,0.264855051523447,0.0032850130200386047
1733902273155687000,3.16968701171875,0.38357436992824073,0.714454091501236,-0.3506196103096008
1733902273165713000,3.179712890625,0.5331587821960448,1.2101479431778193,-0.37708383886516095
1733902273175739600,3.18973974609375,0.3086760730713606,1.849373482954502,-0.17397095776647328
1733902273185766700,3.1997666015625,-0.009666238489747047,1.9998036983966827,0.08047960412055254
1733902273195792600,3.209792724609375,-0.2399947510331869,1.65933314165771,0.4612137821868062
1733902273205820000,3.21981982421875,-0.030427286967635154,1.278446403378248,0.7668640776962041
1733902273215846000,3.229845947265625,0.23934768530130385,1.0069488451004027,0.6902025705590844
1733902273225872600,3.23987255859375,0.2277998708486557,0.6879658975481987,0.2779907196894288
1733902273235899600,3.249899658203125,0.14466156891286372,0.2581827341526747,-0.16597557509839533
1733902273245926000,3.25992578125,0.22296119864583014,-0.056144496548175805,-0.44654462084323165
1733902273255953000,3.269952880859375,0.4007452849596739,-0.23214228396713732,-0.6612181758761405
1733902273265979000,3.279978759765625,0.5638841753274202,-0.2968985415160656,-0.7360764329835772
1733902273276005600,3.290005615234375,0.5583160198062658,-0.3248258283615112,-0.7900263420969247
1733902273286032600,3.30003271484375,0.3043611324816942,-0.23242460803985596,-0.8404887013554573
1733902273296059000,3.310058837890625,0.14485563018023967,0.050202831539511675,-0.9132108232170343
1733902273306086000,3.3200859375,0.26891806317865846,0.29907062485814095,-0.9654670801550149
1733902273316112000,3.33011181640625,0.48362405917644496,0.17275427545309066,-0.899180836559832
1733902273326138600,3.340138671875,0.6651812342882156,0.13010814290344713,-0.6455038893938064
1733902273336166000,3.350165771484375,0.6478542519122362,0.3200818487048149,-0.38312896424829956
1733902273346192000,3.36019189453125,0.35103111371994017,0.425400418266654,-0.19277765730619428
1733902273356219000,3.370218994140625,-0.019236615389585494,0.4225853608459234,-0.09043108929246664
1733902273366245600,3.38024560546875,-0.03247486714720726,0.2748480377495289,-0.20010902310758827
1733902273376271600,3.390271728515625,0.02298690783381462,-0.2521779407799244,0.11902414657026529
1733902273386299000,3.400298828125,0.04922492641806602,-0.255502116766572,-0.03931318873465061
1733902273396324900,3.410324951171875,0.1407236449420452,-0.254866156950593,-0.30214170286655423
1733902273406352000,3.420351806640625,0.23582594091594217,-0.2533212655961513,-0.5001859023988247
1733902273416378600,3.430378662109375,0.28255612790882584,-0.24307225878238675,-0.6128443133294582
1733902273426404600,3.440404541015625,0.165123926705122,-0.20162088897526262,-0.48348552748858925
1733902273436432000,3.450431884765625,0.10058628034293651,-0.15033786098361016,-0.3995692269176245
1733902273446457900,3.460457763671875,0.08460311379134655,-0.11871581127345561,-0.3064958064228296
1733902273456484900,3.47048486328125,0.013543372184038161,-0.005265957704186439,-0.21454349891245364
1733902273466511600,3.48051171875,-0.05396832155287266,0.13980360748767853,-0.08937310467213391
1733902273476537600,3.49053759765625,-0.12498890019357203,0.31231530635654925,0.015213643483817577
1733902273486564900,3.50056494140625,-0.13208499593436718,0.44449557935893536,0.10353665458112954
1733902273496590800,3.5105908203125,-0.16125146918594838,0.47149113831222056,0.1551861777976155
1733902273506617900,3.520617919921875,-0.18106383863687514,0.48562838473618025,0.1496186067983508
1733902273516644600,3.53064453125,-0.1929115128189325,0.4814186580866575,0.1044470474243164
1733902273526670600,3.540670654296875,-0.19188509238064289,0.46908933786749835,0.02647299638390541
1733902273536697900,3.55069775390625,-0.15715338621735572,0.43624271479845045,0.0006616787791252136
1733902273546723800,3.560723876953125,-0.05629764128327369,0.20615093362033365,0.20398528001904487
1733902273556750800,3.570750732421875,0.046214638686180115,0.029908231529593467,0.3230886293053627
1733902273566777600,3.580777587890625,0.1019675055682659,-0.0716384182780981,0.33663054018467664
1733902273576803600,3.590803466796875,0.09565174655020237,-0.12540741786658763,0.3498363509774208
1733902273586830800,3.600830810546875,0.1201017126739025,-0.1515688640832901,0.37432168067544697
1733902273596856800,3.61085693359375,0.11310147852301597,-0.20177695631980894,0.33978140543103214
1733902273606883800,3.6208837890625,0.06167524266839027,-0.2346007830351591,0.2982707066521048
1733902273616910600,3.63091064453125,0.023382629153132436,-0.2776566654294729,0.24025544779598712
1733902273626936600,3.6409365234375,-0.044344753161072725,-0.28082126694023607,0.16679390574395656
1733902273636963800,3.6509638671875,-0.11186579924821853,-0.26898411415219303,0.08388912030309438
1733902273646989800,3.66098974609375,-0.16203180590867997,-0.20798633235394953,-0.005502689069509506
1733902273657016800,3.671016845703125,-0.177048757776618,-0.19601357048749923,-0.07380465640127658
1733902273667043600,3.681043701171875,-0.17689736660718916,-0.20974515872001648,-0.10538988123238086
1733902273677069800,3.69106982421875,-0.13592179761826992,-0.23966566520929336,-0.1061637882143259
1733902273687096800,3.701096923828125,-0.08249591237902641,-0.21340894192457197,-0.05638327374011278
1733902273697122800,3.711122802734375,-0.036786885127425194,-0.19287118080854415,-0.029057167658209797
1733902273707149800,3.72114990234375,-0.026648352950811385,-0.22911796770989892,-0.0175502697378397
1733902273717176600,3.731176513671875,-0.05116729265749454,-0.274010417881608,-0.018357786728441714
1733902273727202800,3.741202880859375,-0.0390916549384594,-0.2818623004257679,-0.023468553870916366
1733902273737229800,3.751229736328125,-0.028594226321578025,-0.22776304596960542,-0.012371113534271717
1733902273747255800,3.761255859375,-0.03549918340444565,-0.16606208433806896,-0.0299219677940011
1733902273757282800,3.77128271484375,-0.03595569500029087,-0.13401625625789165,-0.03206482504159212
1733902273767309800,3.781309814453125,-0.061518006280064576,-0.13915654175579548,-0.0048149990662932395
1733902273777335800,3.791335693359375,-0.08898468987643718,-0.15453472815155983,0.005990764847397804
1733902273787362800,3.80136279296875,-0.08324585396349429,-0.18982991341650485,-0.0073828037276864045
1733902273797388800,3.811388916015625,-0.07524725642502307,-0.2369797871261835,-0.006281856748461723
1733902273807415800,3.821415771484375,-0.041992052555084224,-0.24844050781726837,0.007995674929022789
1733902273817442800,3.83144287109375,-0.011401683980226516,-0.22755378713309762,0.024791326907277107
1733902273827468800,3.84146875,0.0101432083517313,-0.207207749196887,0.06040858373343944
1733902273837495800,3.851495849609375,-0.0019710078120231626,-0.19164134675264358,0.10906360130906105
1733902273847521800,3.861521728515625,0.019529460856318473,-0.18406535854041575,0.1733607169136405
1733902273857548800,3.871548828125,0.011583470287919043,-0.1902420013487339,0.20944588351249693
1733902273867575800,3.881575927734375,-0.016059154397249222,-0.2356201892107725,0.19635785388052462
1733902273877601800,3.891601806640625,-0.021970424267649648,-0.2900836008042097,0.1254348903954029
1733902273887628800,3.90162890625,0.010415595552325248,-0.2584685653567314,0.0785574038863182
1733902273897654800,3.91165478515625,-0.02499941670000553,-0.15419804354310035,0.08805208520144224
1733902273907681800,3.921681884765625,-0.08841361199021339,-0.0891623845309019,0.06535100857168435
1733902273917708300,3.931708251953125,-0.08662497500777244,-0.0531646039545536,-0.02235591645389795
1733902273927734300,3.941734375,-0.02286708084642887,-0.005510287854075432,-0.06709872902184724
1733902273937761500,3.951761474609375,0.039247722283005715,0.0708586660772562,-0.05563245537281036
1733902273947787500,3.96178759765625,0.05245791698992252,0.1428027893036604,-0.05004676419496536
1733902273957814500,3.971814453125,0.037465515041351316,0.13642214835584163,-0.02061199539601803
1733902273967841300,3.98184130859375,0.06346738678216934,0.0922217721015215,-0.019016250637173653
1733902273977867300,3.9918671875,0.016555998003482817,0.05075812733471393,-0.011950550034642219
1733902273987894500,4.00189453125,-0.02609948689639568,-0.006132803666591644,-0.027776772458851337
1733902273997920500,4.01192041015625,-0.08978022416830063,-0.05689560717642307,-0.029719430959224698
1733902274007947500,4.021947509765625,-0.13004384549558162,-0.1193874269247055,-0.050397769589722155
1733902274017974300,4.031974365234375,-0.0990969185680151,-0.14969313333928586,-0.02664513808041811
1733902274028000300,4.042000244140625,-0.07197919453978538,-0.16985738496780395,0.027175883956253526
1733902274038027500,4.052027587890625,-0.0033458032965660092,-0.14265665883123874,0.08728373117744923
1733902274048053500,4.062053466796875,-0.009184007930755614,-0.09706044430434703,0.08789484881311654
1733902274058080500,4.07208056640625,-0.02629647077322006,-0.10226385816633701,0.03763444186747074
1733902274068106500,4.0821064453125,-0.0055704936087131495,-0.10642740758657455,0.014388590836524962
1733902274078133200,4.09213330078125,-0.008993453794717788,-0.11115969680547713,0.02406009002327919
1733902274088160500,4.102160400390625,0.0037333413094282147,-0.08993570699095725,0.01686141069084406
1733902274098186500,4.1121865234375,-0.011985621348023414,-0.07393383573889732,0.03722352297902107
1733902274108213500,4.122213623046875,-0.024253566768765448,-0.07068564759790896,0.03479366548359394
1733902274118239500,4.132239501953125,-0.05003799636662006,-0.08740764981806277,0.02424655250608921
1733902274128266500,4.1422666015625,-0.06920213104188441,-0.09368366134762764,0.04987374571561813
1733902274138293500,4.15229345703125,-0.08367372398674487,-0.0946218189805746,0.06188800863623619
1733902274148319500,4.162319580078125,-0.07791852146089076,-0.09230009803473949,0.05861614735871553
1733902274158346500,4.172346435546875,-0.0625800825536251,-0.09112462451457977,0.06400163978934288
1733902274168372500,4.18237255859375,-0.030381109738349912,-0.1160059677928686,0.0757274411574006
1733902274178399500,4.1923994140625,0.014862638089060782,-0.11787176166474818,0.038899931758642196
1733902274188426500,4.202426513671875,0.03806698806583881,-0.11622224089205264,-0.005369125817716121
1733902274198452500,4.212452392578125,0.04428220931887626,-0.11995265959203243,-0.016731354570388792
1733902274208479500,4.2224794921875,0.04606558560431003,-0.12241875744462012,-0.03977174615710973
1733902274218505500,4.23250537109375,0.03850654852688312,-0.12198738029003142,-0.0425225061699748
1733902274228532500,4.242532470703125,0.022310616007447243,-0.13532207815945146,-0.04551671954989433
1733902274238559500,4.2525595703125,0.017969956454634665,-0.12741875768899916,-0.030025428168475626
1733902274248585500,4.26258544921875,-0.005929390048980712,-0.13784721272289752,-0.013850830698013305
1733902274258612500,4.272612548828125,-0.03875029415488243,-0.13068097435533998,-0.0018888824865221977
1733902274268638500,4.282638427734375,-0.06327975525557994,-0.11477145756185055,0.02882306664139032
1733902274278665500,4.29266552734375,-0.055686815908551214,-0.11114683732390403,0.0340001770183444
1733902274288692500,4.3026923828125,-0.05543137984275818,-0.09359890567362308,0.04872662150710821
1733902274298718500,4.312718505859375,-0.05540449183583259,-0.1277262162029743,0.05359422754347324
1733902274308745500,4.322745361328125,-0.07728606877624988,-0.14094810134768485,0.06719926678687334
1733902274318771500,4.332771484375,-0.05178279420733452,-0.1649795497983694,0.08573270234316586
1733902274328798500,4.342798583984375,-0.024576222851872442,-0.1695493419319391,0.10974573835432529
1733902274338824400,4.352824462890625,-0.020716624814271927,-0.14351122983396053,0.11328998683243989
1733902274348851500,4.3628515625,-0.005147884282469749,-0.12589140199124813,0.10851736560314892
1733902274358878500,4.37287841796875,0.002757774275541305,-0.10230945087373255,0.11503741502165794
1733902274368904400,4.382904541015625,-0.006571779605746269,-0.07061199783980845,0.08870850328356027
1733902274378931500,4.392931396484375,-0.003398410266637802,-0.04683481641113758,0.05081920987218618
1733902274388957400,4.40295751953125,0.006311082842946052,-0.0543845011383295,0.038456279644370074
1733902274398984400,4.412984375,0.017488894939422607,-0.060063715818524356,0.04360416392683983
1733902274409011500,4.423011474609375,0.010451835909485816,-0.07756137858629227,0.057143736718595024
1733902274419037400,4.433037353515625,0.012293079861998558,-0.09207096545398234,0.050420273682475085
1733902274429064400,4.443064453125,0.008826865056157112,-0.0937543884962797,0.049229894854128355
1733902274439090400,4.45309033203125,0.002975216418504715,-0.09894611192047595,0.020432839436829088
1733902274449117400,4.463117431640625,-0.021962825483083724,-0.07974047619104385,-0.01840074908733368
1733902274459144400,4.47314453125,-0.024673838007450103,-0.061657122489809986,-0.054502866820991036
1733902274469170700,4.483170654296875,-0.028991701206564902,-0.050076574811339376,-0.07395546304881573
1733902274479197400,4.493197509765625,-0.011479425391554832,-0.06637187605202198,-0.0753729286313057
1733902274489223400,4.503223388671875,0.011986790391802787,-0.09032499856948852,-0.07151508415937423
1733902274499250400,4.51325048828125,0.024359949752688407,-0.06579787555634975,-0.04901157592833042
1733902274509277400,4.52327734375,0.0022077391773462295,-0.08209493036270141,-0.04679506892263889
1733902274519303700,4.5333037109375,-0.001975099465250969,-0.08758417542874812,-0.06240414146482944
1733902274529330400,4.543330322265625,-0.015420271971821784,-0.09397183063924312,-0.07114654310792684
1733902274539356400,4.5533564453125,-0.012492401826381682,-0.0705880324423313,-0.07557984938025473
1733902274549383400,4.563383544921875,-0.020879706421494483,-0.05024900876879692,-0.09558364975005387
1733902274559410700,4.57341064453125,-0.033680151283740994,-0.04049509199559689,-0.10540917045474052
1733902274569436700,4.583436767578125,-0.04940320559442043,-0.03975625632703304,-0.07831804217249154
1733902274579463400,4.59346337890625,-0.047992754274606704,-0.027383681488037107,-0.03250438550263643
1733902274589489400,4.603489501953125,-0.059222588819265364,-0.007617489266395569,0.01966419315189123
1733902274599516400,4.613516357421875,-0.03687280984520912,0.00410042105615139,0.04811521161049604
1733902274609542400,4.62354248046875,-0.03783025670051574,-0.01784896042346954,0.07476210325658321
1733902274619569700,4.633569580078125,-0.016985621592402456,-0.049075873336195945,0.07128010635972022
1733902274629596400,4.643596435546875,-0.023870704931020736,-0.07619535093009472,0.07066080541759728
1733902274639622400,4.653622314453125,-0.004359364253282547,-0.09195230751037597,0.0743178666204214
1733902274649649400,4.6636494140625,0.01682955424785614,-0.08296937510967255,0.08126958545446396
1733902274659675400,4.67367529296875,0.01697334663271904,-0.061629649960994716,0.08863806839585303
1733902274669702700,4.68370263671875,0.00627718057334423,-0.07619242832064628,0.09537292960882186
1733902274679729400,4.6937294921875,0.006971592578291892,-0.07037643551826477,0.07703618566840886
1733902274689755400,4.70375537109375,-0.002869417956471443,-0.07931845138669014,0.04701280332654714
1733902274699782400,4.713782470703125,-0.008080430603027343,-0.08562778066396713,0.032984277974069116
1733902274709808400,4.723808349609375,-0.022801029872894285,-0.1067167459219694,0.02137041254788637
1733902274719835400,4.73383544921875,-0.06977730058133602,-0.14041618642807005,-0.0027799861073493958
1733902274729861400,4.743861328125,-0.09047638973891735,-0.16692016247212885,-0.024562194326519966
1733902274739888400,4.753888427734375,-0.10937456695437431,-0.14481296008229255,-0.04527180487811565
1733902274749915400,4.763915283203125,-0.09307692762613295,-0.12763152365684508,-0.049829029791057106
1733902274759941400,4.77394140625,-0.07892039197981357,-0.1211170271962881,-0.03133680302798748
1733902274769968400,4.783968505859375,-0.05146189168989658,-0.10192951164543627,-0.011821662957966326
1733902274779994400,4.793994384765625,-0.03340250338613987,-0.09924597164988518,-0.008406301556527614
1733902274790021400,4.804021484375,0.020427286478877066,-0.06906652196347714,-0.021714403679966927
1733902274800048400,4.81404833984375,0.05619067377746105,-0.055450669065117836,-0.04092646915018558
1733902274810074600,4.82407470703125,0.06544540885686874,-0.04372106830477714,-0.07065992863476275
1733902274820101400,4.834101318359375,0.05835515833497047,-0.039435353809595106,-0.07645429412722587
1733902274830127400,4.84412744140625,0.056902036917209624,-0.021534370937943456,-0.06527326716035604
1733902274840154400,4.854154296875,0.05559095431864261,-0.03240180191099643,-0.039303836384415626
1733902274850180400,4.864180419921875,0.05612403828203678,-0.04670972872674465,0.005666647459566593
1733902274860207600,4.87420751953125,0.04670505255162716,-0.05332710103988647,0.021344985845685005
1733902274870234400,4.884234375,0.050581601724028584,-0.07449146962165833,0.038655017086863516
1733902274880260400,4.89426025390625,0.02798281642496586,-0.07242810735106468,0.023776889167726037
1733902274890287400,4.904287353515625,-0.03570376606583595,-0.05750818611681461,-0.012625672817230224
1733902274900313300,4.914313232421875,-0.03315466610491276,-0.04632920497655868,-0.007504676541686057
1733902274910340600,4.924340576171875,-0.031677579289674754,-0.04077098632752895,-0.0159489720210433
1733902274920367400,4.934367431640625,-0.03180091340839863,-0.05484861151874065,-0.024133155259490013
1733902274930393300,4.944393310546875,-0.011958148819208144,-0.0591425093203783,-0.007662497451901435
1733902274940420400,4.95442041015625,0.0038707039535045623,-0.0671206485927105,0.011562427499890327
1733902274950446300,4.9644462890625,0.0016220482438802717,-0.06968845325410365,0.015754910753667355
1733902274960473600,4.9744736328125,-0.007877016985416412,-0.06584405278563499,0.008434066346287726
1733902274970500400,4.984500244140625,-0.01668926899433136,-0.045427287700772284,0.005176233594119548
1733902274980526300,4.9945263671875,-0.038114334338903426,-0.04204582856893539,-0.012483049476146698
1733902274990553300,5.00455322265625,-0.043780105015635486,-0.02252981171607971,-0.01920095955431461
1733902275000579300,5.014579345703125,-0.0421370139837265,-0.04141688301563263,-0.010845219141244887
1733902275010606600,5.024606689453125,-0.0358060573965311,-0.053252866759896274,-0.039729076059162614
1733902275020632600,5.034632568359375,-0.047263270956277845,-0.10031330862045287,-0.049642567308247086
1733902275030659300,5.044659423828125,-0.06817278799414635,-0.10420914701521396,-0.04364361915439367
1733902275040685300,5.054685302734375,-0.07743219924867152,-0.09631927054822444,-0.03207797678411007
1733902275050712300,5.06471240234375,-0.07421674433350563,-0.08522446056008338,-0.040860418176651
1733902275060739600,5.074739501953125,-0.07630991722047328,-0.06800619925558567,-0.0172559629663825
1733902275070765600,5.084765625,-0.08068623260855674,-0.045670448806881904,0.025173604223132133
1733902275080792300,5.094792236328125,-0.08221767995953559,-0.03655716802477836,0.06762859811484813
1733902275090818300,5.104818359375,-0.06225508838295936,-0.03910100728869438,0.09472118770182132
1733902275100845300,5.11484521484375,-0.03513268817961216,-0.030449498799443243,0.10157061520516872
1733902275110872600,5.12487255859375,-0.005765139397978783,-0.048474400311708445,0.11528788265138863
1733902275120898600,5.134898681640625,-0.010508534532785415,-0.059282210052013395,0.11501520318984984
1733902275130925300,5.14492529296875,-0.010384615892171859,-0.0633516514480114,0.10263882895857095
1733902275140951300,5.154951416015625,0.004876081603765487,-0.08171499113440513,0.07526040816754102
1733902275150978600,5.164978515625,0.012703998750448225,-0.09246844033896923,0.04055997392535209
1733902275161004500,5.175004638671875,0.03463584457337856,-0.10064882418513298,0.03578530686944723
1733902275171031600,5.185031494140625,0.049565118157863616,-0.10588730936050414,0.022338088536262513
1733902275181058300,5.195058349609375,0.06594926672577858,-0.113513566455245,0.001987082163989544
1733902275191084300,5.205084228515625,0.07033376542031765,-0.12497253358066081,0.005629530319571495
1733902275201111600,5.215111572265625,0.0802478411912918,-0.12188450443744658,0.006247369956970215
1733902275211137500,5.225137451171875,0.07229074470698833,-0.09859832139611244,-0.003610299451649189
1733902275221164500,5.23516455078125,0.05099661226570606,-0.098116090837121,-0.04312134884595871
1733902275231190500,5.2451904296875,0.008324176231026648,-0.1020160208851099,-0.059601359003782266
1733902275241217300,5.25521728515625,-0.01695113480091095,-0.11441256112158298,-0.07512626039385795
1733902275251244500,5.26524462890625,-0.02682721664905548,-0.12553309007287025,-0.08515694828182459
1733902275261270500,5.2752705078125,-0.02965922520458698,-0.14466975221931933,-0.09703384855836629
1733902275271297500,5.285297607421875,-0.03379588661789894,-0.1499479848831892,-0.11233400128185748
1733902275281323500,5.295323486328125,-0.0444376921415329,-0.16127485006153583,-0.11996025837659835
1733902275291350300,5.305350341796875,-0.07004325804114342,-0.16146423515379427,-0.1069090536236763
1733902275301377500,5.31537744140625,-0.05862579196989536,-0.12868424758017064,-0.07867664635181426
1733902275311403500,5.325403564453125,-0.06027706630825996,-0.06330488969683647,-0.04714461301267147
1733902275321430500,5.335430419921875,-0.04724631982147694,-0.023025486278533933,0.0019715923339128495
1733902275331456500,5.34545654296875,-0.019667408022284505,0.021923077994585035,0.044508419290184974
1733902275341483300,5.355483154296875,0.004140168544650077,0.04491057035028934,0.09171703744977712
1733902275351509500,5.365509521484375,0.0274058933198452,0.058472647234797476,0.07888970458060503
1733902275361536500,5.37553662109375,0.021826047360897063,0.04652911146283149,0.05533142659962177
1733902275371563500,5.3855634765625,0.026297639816999435,0.03164601510763168,0.020790274572372435
1733902275381589500,5.395589599609375,0.025715456014871595,0.02860883936882019,0.001438216109573841
1733902275391616300,5.4056162109375,0.012637947776913643,-0.006030512335896492,0.004580313527584075
1733902275401642500,5.415642578125,0.033709961900115014,-0.03199205206632614,0.005953939968347549
1733902275411669500,5.42566943359375,0.012224690800905227,-0.06321136619448661,-0.004774959316849708
1733902275421695500,5.435695556640625,-0.004801847323775291,-0.07144727962017058,-0.01378390294164419
1733902275431722500,5.445722412109375,-0.015320903250575064,-0.06744038206636906,-0.03283288680464029
1733902275441749500,5.45574951171875,-0.023853753796219825,-0.07842939359247685,-0.03404547746479511
1733902275451775500,5.465775390625,-0.055041503742337225,-0.08325228370428085,-0.01955079590529203
1733902275461802500,5.475802490234375,-0.06694996820092201,-0.09170797736048698,-0.013886486533284186
1733902275471828500,5.485828369140625,-0.06531564499735831,-0.10255962624251842,-0.008851999497413634
1733902275481855500,5.49585546875,-0.0642184974104166,-0.10065408488214016,0.014273732285201549
1733902275491881500,5.505881591796875,-0.07543897960484028,-0.09978431631028652,0.03156798143535852
1733902275501908500,5.515908447265625,-0.07102876194715499,-0.10760638823807239,0.018866320772469043
1733902275511934500,5.5259345703125,-0.07601707175374031,-0.09920914677083492,0.0035948096215724945
1733902275521961500,5.53596142578125,-0.08944880025684833,-0.07846212681829928,-0.009069733901321887
1733902275531988500,5.545988525390625,-0.08765314901173114,-0.07167115150392055,-0.005434300008416175
1733902275542014500,5.556014404296875,-0.06777180597782134,-0.0447644398778677,0.007058978600800037
1733902275552041500,5.56604150390625,-0.06055471420586109,-0.02928103954195976,0.01749269433170557
1733902275562067500,5.5760673828125,-0.031058570608496663,-0.02582943778336048,0.0045317982107400895
1733902275572094500,5.586094482421875,-0.01947860745191574,-0.043100890579819674,-0.011866671143472195
1733902275582121500,5.59612158203125,-0.009430676168203353,-0.050181204229593275,-0.020310382100939748
1733902275592147500,5.6061474609375,-0.011040449452400207,-0.06305588337182998,-0.01187251636236906
1733902275602174500,5.616174560546875,-0.005531330642104149,-0.0935369463533163,0.001967500680685043
1733902275612200400,5.626200439453125,-0.014347089782357216,-0.11291560056209564,0.012018354573845863
1733902275622227500,5.6362275390625,-0.013929741153120994,-0.12414835771620272,0.011352584141492842
1733902275632253400,5.64625341796875,-0.009897709158062934,-0.11224340038895607,0.002387187397480011
1733902275642280400,5.656280517578125,-0.016895020699501037,-0.10573533366918564,0.007076806518435477
1733902275652307500,5.666307373046875,-0.019186931028962136,-0.07978373081088065,0.01423661514520645
1733902275662333400,5.67633349609375,0.0058902270823717115,-0.06544540885686874,0.0348082785308361
1733902275672360400,5.6863603515625,-0.006670563805103302,-0.06721826374828815,0.021817279532551765
1733902275682386400,5.696386474609375,-0.014328969603776932,-0.05612871445715427,0.0257458511531353
1733902275692413700,5.70641357421875,-0.012841361394524574,-0.03768237266242504,0.008565291510522365
1733902275702439400,5.716439453125,-0.006129881057143211,-0.03621288463175296,-0.008618190741539002
1733902275712466400,5.726466552734375,-0.013270984983444213,-0.03018821751475334,-0.026292671380937098
1733902275722492400,5.736492431640625,0.0010270049601793288,-0.04425239870250225,-0.02777209628373384
1733902275732519400,5.74651953125,-0.016546645653247833,-0.07641863829195499,-0.026074060194194316
1733902275742546400,5.75654638671875,-0.006964578315615653,-0.10537935983836651,-0.021620880177617072
1733902275752572400,5.766572509765625,-0.020341946282982824,-0.13721943621337412,0.003909866920113563
1733902275762599400,5.776599365234375,-0.007937807261943817,-0.15430734913647173,0.01973784290999174
1733902275772625400,5.78662548828125,-0.012853051832318305,-0.16525719769597053,0.029783143845200536
1733902275782652400,5.79665234375,-0.008211363506317139,-0.15205986247062683,0.04119827182888985
1733902275792678400,5.806678466796875,-0.029301497808098792,-0.12840659968256948,0.006989712756872176
1733902275802705400,5.816705322265625,-0.046613282614946364,-0.11118950742185116,-0.020830314321815965
1733902275812732400,5.826732421875,-0.04021276792287826,-0.06853811417520046,-0.029731705918908117
1733902275822758400,5.83675830078125,-0.02333937453329563,-0.05134966348707676,-0.002280512152612209
1733902275832785400,5.846785400390625,-0.02234685636460781,-0.04096738568246364,0.007101064176857471
1733902275842811400,5.856811279296875,-0.011068506503105162,-0.045347208201885224,0.006738952866196632
1733902275852838400,5.86683837890625,0.002326397120952606,-0.05457271718680858,0.0070651160806417465
1733902275862864400,5.876864501953125,-0.0071533788859844205,-0.045104631617665286,0.01569061334580183
1733902275872891400,5.886891357421875,-0.028776012629270552,-0.04824585225284099,-0.021948796957731245
1733902275882918400,5.89691845703125,-0.02852349917292595,-0.04245148676037788,-0.024405834721028804
1733902275892944600,5.906944580078125,-0.02509703185558319,-0.04323883774578571,-0.02137041254788637
1733902275902971400,5.916971435546875,-0.035869185760617255,-0.05162088164389133,-0.007670680758357047
1733902275912997400,5.926997314453125,-0.04108955075740814,-0.05056874224245548,-0.009708908587694168
1733902275923024400,5.9370244140625,-0.05508066670894622,-0.05675181479156017,-0.013360709093511104
1733902275933050400,5.94705029296875,-0.05704290669262409,-0.04510053996443748,-0.02601239313483238
1733902275943077400,5.957077392578125,-0.07085691251158714,-0.020883213552832604,-0.03364244962185621
1733902275953104400,5.9671044921875,-0.04917524205744266,0.01954875007867813,-0.0291334477648139
1733902275963130000,5.977130126953125,-0.0067681789606809616,0.026930677023530004,0.008520283325016498
1733902275973157400,5.987157470703125,0.03835691092312336,-0.0008089782953262329,0.03950666548013687
1733902275983183400,5.997183349609375,0.06338087754249572,-0.0590729512155056,0.04394610923230648
1733902275993210400,6.00721044921875,0.08408522739708423,-0.11895780333578586,0.033734219558537004
1733902276003236400,6.017236328125,0.08457739482820034,-0.1687432862460613,0.005402151304483413
1733902276013263000,6.02726318359375,0.0831108294069767,-0.1686696364879608,-0.03874357215315103
1733902276023290400,6.037290283203125,0.04185702799856662,-0.11747662486732005,-0.07872983784377574
1733902276033316400,6.04731640625,0.014697802916169166,-0.07331482705771923,-0.08581219732016325
1733902276043343400,6.05734326171875,-0.01564823550879955,-0.0132715695053339,-0.09422668218314648
1733902276053369300,6.067369384765625,-0.00677343965768814,0.030368834778666493,-0.09342559493333101
1733902276063396000,6.07739599609375,-0.014822890600562095,0.06761924576461315,-0.09015022652447223
1733902276073422300,6.08742236328125,-0.024976035824418066,0.08807984999120234,-0.0942497707977891
1733902276083449300,6.097449462890625,-0.028183891955018043,0.08940145398378371,-0.1251797465905547
1733902276093475300,6.107475341796875,-0.027633856856822965,0.07536942149996757,-0.10891045657396316
1733902276103502300,6.11750244140625,-0.02192249347269535,0.055527241432666775,-0.10915215637534856
1733902276113529300,6.127529296875,-0.02320785710811615,0.00431610963344574,-0.11311170765608548
1733902276123555300,6.137555419921875,-0.04226502427756786,-0.029209727871417998,-0.1276747782766819
1733902276133582300,6.147582275390625,-0.0446031118363142,-0.00950315688252449,-0.1203027882039547
1733902276143608300,6.1576083984375,-0.006428571742773056,0.03931728038787841,-0.07086188094764947
1733902276153635300,6.16763525390625,0.07703472436368465,0.1170043311804533,0.040864802090823646
1733902276163662300,6.177662353515625,0.21159750858843326,0.1623918713927269,0.1283648063674569
1733902276173688300,6.187688232421875,0.34465339538156986,0.18581950873136518,0.17120938409864903
1733902276183715300,6.19771533203125,0.4294873953193426,0.19194296004772185,0.16876929747015237
1733902276193741300,6.2077412109375,0.49556817947030063,0.12261048062443733,0.13869856885522602
1733902276203768300,6.217768310546875,0.48147126505672927,0.05840484269559383,0.046321313931047915
1733902276213794300,6.227794189453125,0.4629132795810699,0.00770107589662075,-0.07386661572158336
1733902276223821300,6.2378212890625,0.4260153352946043,-0.016695114213228224,-0.17210428711175918
1733902276233847300,6.247847412109375,0.39852760891020295,-0.014936287847161292,-0.2349707853913307
1733902276243874300,6.257874267578125,0.36672201932668685,0.05476034871339798,-0.29603432590216394
1733902276253901300,6.2679013671875,0.23972411739826202,0.1656459047526121,-0.41558454217314716
1733902276263927300,6.27792724609375,0.024584406158328055,0.2511737321734428,-0.5761281553506851
1733902276273954300,6.287954345703125,-0.15027590166330337,0.31879005532860755,-0.7151695462942123
1733902276283980300,6.297980224609375,-0.2272106727838516,0.3023608985751867,-0.744545862904191
1733902276294007300,6.30800732421875,-0.2350888588130474,0.3915197759747505,-0.7637854009032249
1733902276304033300,6.318033203125,-0.2113210297346115,0.45679391991794105,-0.7921189304620027
1733902276314060500,6.328060546875,-0.16899170804917812,0.5077496156513691,-0.7036632328957318
1733902276324087300,6.33808740234375,-0.11860475211441517,0.37256782274544237,-0.4409738349735737
1733902276334113300,6.34811328125,-0.054180502998828886,-0.05259177250266075,0.010721300500631331
1733902276344140300,6.358140380859375,-0.08609013747870922,0.06704875240027904,-0.1575941157221794
1733902276354166300,6.368166259765625,-0.0720434919476509,0.21753566646575925,-0.293839153945446
1733902276364193500,6.378193603515625,-0.0513695372313261,0.3082499566137791,-0.24042262105643747
1733902276374219500,6.388219482421875,-0.01970832455456257,0.06337620136737823,0.010118073910474777
1733902276384246300,6.398246337890625,-0.08349310672283172,-0.30484277851879593,0.22712825519740582
1733902276394273300,6.408273193359375,-0.15191490104198455,-0.4837579146891832,0.23451485831737517
1733902276404299300,6.41829931640625,-0.19904080935418605,-0.5499848293125629,0.24079554602205752
1733902276414326500,6.428326416015625,-0.2502121936649084,-0.567498858693242,0.29950550914406776
1733902276424352500,6.4383525390625,-0.3291208952069282,-0.6126210259675979,0.38358255323469637
1733902276434379300,6.448379150390625,-0.4126975885599851,-0.6738058547705411,0.44116614267528054
1733902276444405200,6.4584052734375,-0.4885539167940616,-0.6930892319113016,0.5048498025566339
1733902276454432300,6.468432373046875,-0.5431821635603904,-0.6743196495115756,0.5763584569752216
1733902276464459500,6.47845947265625,-0.5449456661015749,-0.6102583884894848,0.6539145748645067
1733902276474485500,6.488485595703125,-0.5162532401025295,-0.5638765765428543,0.7281763273835182
1733902276484512300,6.49851220703125,-0.42469197773635387,-0.5094353767812252,0.7701777322888373
1733902276494538200,6.508538330078125,-0.32133331007063387,-0.4852700728178024,0.7537000602185726
1733902276504565200,6.518565185546875,-0.2735743645519018,-0.5161725760817527,0.6869564282447099
1733902276514591200,6.52859130859375,-0.275164848613739,-0.5283054969459772,0.6162298641145229
1733902276524618500,6.538618408203125,-0.26390812606215475,-0.5187608390092849,0.5741676689326762
1733902276534644500,6.54864453125,-0.25148528234064577,-0.47277650194764137,0.5270137035697698
1733902276544671200,6.558671142578125,-0.25404315012991424,-0.4220931934148073,0.46757308808565134
1733902276554698200,6.5686982421875,-0.24857903950512408,-0.37483284506797787,0.3899421513944864
1733902276564724500,6.578724365234375,-0.22868951316475866,-0.33539047699570657,0.32130466849803924
1733902276574751500,6.58875146484375,-0.20384557928740976,-0.2895692215412855,0.2568061851024628
1733902276584777500,6.598777587890625,-0.1932745009124279,-0.2662251708328724,0.16986030757725237
1733902276594804200,6.60880419921875,-0.2094429609030485,-0.2030038677662611,0.0695166038185358
1733902276604830200,6.618830322265625,-0.15589374154508112,-0.03737549867033958,-0.0426946478664875
1733902276614857500,6.628857421875,-0.11494096890985965,0.002758358797430992,-0.11753332349061965
1733902276624884500,6.638884521484375,-0.08529168057739735,0.06426584368348122,-0.1526262641817331
1733902276634910500,6.648910400390625,0.008418284255266188,0.1756464897632599,-0.14787059408724307
1733902276644937200,6.658937255859375,0.10629589016139507,0.26616964125335213,-0.16512860288023948
1733902276654963200,6.668963134765625,0.15532558626830578,0.27699849378168584,-0.22232523882985114
1733902276664990500,6.678990478515625,0.20391981356739997,0.2719225056916475,-0.33201194047331806
1733902276675016400,6.689016357421875,0.2779664620310068,0.2572913382709026,-0.4541600642830133
1733902276685043500,6.69904345703125,0.30296529420912266,0.2601753692746162,-0.5658902544528246
1733902276695070200,6.7090703125,0.32091537691950794,0.217704008769989,-0.648904637748003
1733902276705096200,6.71909619140625,0.3091016050070524,0.19130933831930158,-0.7203957565099001
1733902276715123500,6.72912353515625,0.3018973727166652,0.19986790782809255,-0.7424848387211561
1733902276725149400,6.7391494140625,0.278441678327322,0.19156418986320495,-0.711432697853446
1733902276735176400,6.749176513671875,0.24665888509750364,0.21195114433169363,-0.626953502702713
1733902276745202200,6.7592021484375,0.16543956852555275,0.24226561857461928,-0.5241980616271495
1733902276755229200,6.769229248046875,0.12150398068726062,0.29171500139832496,-0.44733051052391526
1733902276765255200,6.779255126953125,0.09134908092021941,0.350391646772623,-0.38347850833833214
1733902276775282400,6.789282470703125,0.0747884067416191,0.3695475981414318,-0.32832360734939575
1733902276785309400,6.799309326171875,0.060225043860077855,0.3712842126756906,-0.2928109799414873
1733902276795335200,6.809335205078125,0.04121288487613201,0.3334925344198942,-0.26617840908169743
1733902276805362200,6.819362060546875,0.025576924327015874,0.24904198084175586,-0.18879414062798022
1733902276815388400,6.829388427734375,-0.00502455016374588,0.12642097882330416,-0.09613222354352474
1733902276825415400,6.83941552734375,-0.006838906109333038,-0.011636661779880523,-0.028056466183066366
1733902276835441400,6.84944140625,-0.012007833179831505,-0.14004910668134687,0.03565057457387447
1733902276845468200,6.85946826171875,-0.01568622943162918,-0.208811677262187,0.08564473179876804
1733902276855495200,6.8694951171875,-0.06616904695630073,-0.2833200980186462,0.1233914018690586
1733902276865521400,6.879521484375,-0.11643968303501605,-0.3025830168932676,0.19247019879221916
1733902276875548400,6.88954833984375,-0.14713526555001735,-0.29149697473347186,0.23678280324935913
1733902276885574400,6.899574462890625,-0.17071195597052574,-0.28168519029319283,0.29113924733698365
1733902276895601200,6.90960107421875,-0.15514029282927513,-0.25947394300699234,0.3538350652247667
1733902276905627100,6.919627197265625,-0.13368015617132187,-0.21511866845190525,0.3922650413841009
1733902276915654400,6.929654296875,-0.12122341018021106,-0.18528642476797103,0.38584640651345253
1733902276925681400,6.939681396484375,-0.07201835750639438,-0.16132921059727667,0.36395197009146213
1733902276935707600,6.949707763671875,-0.032494740891456604,-0.12732698775231838,0.3446504727721214
1733902276945734400,6.959734375,0.004862637600302696,-0.10998773041665554,0.31256372815966604
1733902276955760400,6.969760498046875,0.017861819905042646,-0.14332359830737113,0.2791641473829746
1733902276965787400,6.979787353515625,0.039596681851148605,-0.18909283131361007,0.23374796559810637
1733902276975813400,6.9898134765625,0.0700876817047596,-0.1904687958419323,0.16946107912659644
1733902276985840600,6.999840576171875,0.02901099042892456,-0.19914017807543277,0.10279285047650337
1733902276995867400,7.009867431640625,0.0006394669473171234,-0.22248890495896337,0.04782207388281822
1733902277005893400,7.019893310546875,-0.020918284866213797,-0.21552315759956836,0.0003162263423204422
1733902277015920400,7.02992041015625,-0.01489712488055229,-0.20099428150951862,-0.05851531733274459
1733902277025946400,7.0399462890625,-0.023020225581526756,-0.18584405865073203,-0.059201546031236646
1733902277035973600,7.0499736328125,-0.027606384328007695,-0.15833178234696388,-0.06499357343614101
1733902277045999600,7.05999951171875,-0.0408341146916151,-0.10104220741689204,-0.07576163568794726
1733902277056026400,7.0700263671875,-0.07285889998376369,-0.03867079917788505,-0.10320376936495304
1733902277066052400,7.08005224609375,-0.07687339632213115,-0.014331892213225363,-0.16702011571526526
1733902277076079400,7.090079345703125,-0.10378419960141182,0.06472527788877487,-0.21301088251769543
1733902277086106600,7.100106689453125,-0.054262920585274696,0.0908662658393383,-0.22445582111775875
1733902277096132600,7.110132568359375,0.005640051713585853,0.08724164560139179,-0.218740950602293
1733902277106159400,7.120159423828125,0.04732464575469494,0.053879474225640295,-0.20005261674523353
1733902277116185300,7.130185302734375,0.07944996881186962,0.012934884896874428,-0.1830482904523611
1733902277126212400,7.14021240234375,0.08300210833549498,-0.03201484842002392,-0.18611060063242912
1733902277136238600,7.150238525390625,0.05127484468519687,-0.08348316985070704,-0.1883557492107153
1733902277146265600,7.160265625,-0.014407295536994933,-0.1102811604052782,-0.18775661427378654
1733902277156292400,7.170292236328125,-0.04652501980960369,-0.10796645372211933,-0.15303426046073434
1733902277166318300,7.180318359375,-0.05302607226669788,-0.08349895194172859,-0.10983049402832984
1733902277176345300,7.190345458984375,-0.06277005216777325,-0.05629530319571495,-0.06628361324667931
1733902277186371600,7.20037158203125,-0.06755787096619606,-0.041190088522434234,-0.016786299628019332
1733902277196398600,7.210398681640625,-0.04199146803319454,-0.03475917869210243,0.027205986833572386
1733902277206424600,7.220424560546875,-0.033575521865487096,-0.006380056425929069,0.06208265442550182
1733902277216451300,7.230451416015625,-0.00717909784913063,-0.0006745382606983184,0.0795247876137495
1733902277226478300,7.240478271484375,0.015431962409615516,-0.003094458884000778,0.09244096781015396
1733902277236504600,7.250504638671875,0.026458383336663244,-0.0014729951620101928,0.062032970064878463
1733902277246531600,7.260531494140625,0.029858547168970108,-0.014054244315624236,0.017090835532546044
1733902277256557600,7.2705576171875,-0.0032341596156358716,-0.03580371930897236,-0.0420627797037363
1733902277266584300,7.280584228515625,-0.04079319815933704,-0.04580781145095825,-0.07394377261102199
1733902277276610300,7.2906103515625,-0.06946282780468463,-0.05721943230330944,-0.07442132699489593
1733902277286637600,7.300637451171875,-0.09359247593283652,-0.06220481950044632,-0.06746317842006683
1733902277296663600,7.31066357421875,-0.09056056089103222,-0.06451192739903927,-0.07507949864268303
1733902277306690600,7.320690673828125,-0.09349310721158981,-0.04471358647346496,-0.07369476628601551
1733902277316717300,7.33071728515625,-0.08409224165976047,-0.026686346873641013,-0.054584992146492
1733902277326743300,7.340743408203125,-0.05825637413561344,-0.009224924463033676,-0.04221066374182701
1733902277336770600,7.3507705078125,-0.048669630622863766,0.00578442862033844,-0.018608254358172416
1733902277346796500,7.360796630859375,-0.056769934970140455,0.014257657933235168,-0.007001987716555595
1733902277356823600,7.370823486328125,-0.04694587557017803,-0.012093757897615432,-0.007684124761819839
1733902277366849500,7.380849609375,-0.038517654442787166,-0.03111410018801689,-0.002945405802130699
1733902277376876300,7.390876220703125,-0.033493104279041286,-0.053254035803675645,0.0006833060890436172
1733902277386903600,7.400903564453125,-0.04147007450759411,-0.08228197736740112,0.008349310672283172
1733902277396929500,7.410929443359375,-0.05359013589024544,-0.08834405388534068,0.008418868777155876
1733902277406956500,7.42095654296875,-0.07367489254176617,-0.0993494320243597,0.010335516053438186
1733902277416982500,7.430982421875,-0.10589257005751132,-0.10639584340453147,0.010562895068526267
1733902277427009300,7.44100927734375,-0.13623860848248004,-0.10560089363455771,0.02725508667230606
1733902277437035500,7.451035400390625,-0.1182587151557207,-0.10635492687225341,0.042211248263716694
1733902277447062500,7.4610625,-0.10879881289303302,-0.09147124599516392,0.0774292766392231
1733902277457089500,7.471089599609375,-0.08635024971961974,-0.09668693481683731,0.09312485842108725
1733902277467115500,7.481115478515625,-0.05545417619645595,-0.1248293257176876,0.08873392998576164
1733902277477142500,7.491142578125,-0.0375315660148859,-0.1268202072739601,0.07909048784971237
1733902277487168500,7.50116845703125,-0.016249124011397362,-0.11774784302413463,0.03930675899386406
1733902277497195500,7.511195556640625,-0.007619242832064628,-0.12247779415547846,0.00023088614642620086
1733902277507221500,7.521221435546875,0.008607084825634955,-0.0855810189127922,-0.029569793355464932
1733902277517248500,7.53124853515625,-0.017146949633955955,-0.08547814306020736,-0.06005494799017906
1733902277527275500,7.541275634765625,-0.013621113595366477,-0.04711655596196651,-0.07068272498846054
1733902277537301500,7.551301513671875,-0.01763385636806488,-0.021312252619862554,-0.07257189973592758
1733902277547328500,7.56132861328125,0.0027840777605772017,0.005291092145442962,-0.07333586984574794
1733902277557354500,7.5713544921875,0.006858779853582382,0.009875497326254845,-0.0839081172645092
1733902277567381500,7.581381591796875,0.015815408769249917,0.00753507167994976,-0.06055939038097858
1733902277577407500,7.591407470703125,0.028605916759371755,0.007399462601542473,-0.06343699164390564
1733902277587434500,7.6014345703125,0.01736672986447811,-0.011956979775428771,-0.08545183957517147
1733902277597461500,7.61146142578125,0.005351882421970367,-0.02246843691766262,-0.10789397300779818
1733902277607487500,7.621487548828125,-0.029293899023532865,-0.02150982101857662,-0.12172785257101058
1733902277617514500,7.631514404296875,-0.035196985587477685,-0.02690612710416317,-0.11920330252945423
1733902277627540200,7.641540283203125,-0.027846622824668883,-0.01739595595896244,-0.0966606313318014
1733902277637567500,7.6515673828125,-0.015438392150402068,-0.029968437284231184,-0.08911737634539604
1733902277647593500,7.661593505859375,-0.014772037196159361,-0.03008183453083038,-0.09305822292566299
1733902277657620500,7.671620361328125,-0.022704583761096,-0.02813596116006374,-0.12143149997293948
1733902277667646500,7.681646484375,-0.060735331469774244,-0.028328853383660316,-0.14734101725518703
1733902277677673200,7.691673095703125,-0.0982645593971014,0.01551321095228195,-0.15956921518743036
1733902277687700500,7.701700439453125,-0.1547229442000389,0.03261398335695267,-0.1660766973853111
1733902277697726500,7.7117265625,-0.2087853737771511,0.04902501993179321,-0.14767244116663933
1733902277707753500,7.72175341796875,-0.19657354245781897,0.061003627017140384,-0.13083119648098945
1733902277717779500,7.731779541015625,-0.13636837234199045,0.05294073207080364,-0.060084758606553074
1733902277727806500,7.741806396484375,-0.044805356410145755,0.04864975687861442,0.034385669204592705
1733902277737832400,7.75183251953125,0.05885375550687313,0.026982114949822424,0.09517068503499031
1733902277747859500,7.761859375,0.11170447120666503,-0.02719020474255085,0.15421674824357032
1733902277757886500,7.771886474609375,0.14079144948124886,-0.07594634460508823,0.18590835605859754
1733902277767912400,7.781912353515625,0.14097089770138263,-0.10069733950197696,0.2457990533977747
1733902277777939500,7.791939453125,0.09371756361722945,-0.1260059682816267,0.2565425657302141
1733902277787965400,7.80196533203125,0.0632253947198391,-0.09795885444879532,0.23413258100152015
1733902277797992400,7.811992431640625,0.04103986639678478,-0.09540274022519588,0.1449544143795967
1733902277808018400,7.822018310546875,0.0037169746965169904,-0.09240765006244182,0.044263504618406294
1733902277818045400,7.83204541015625,-0.026372458618879317,-0.08517769880890846,-0.09479834459125995
1733902277828072400,7.842072509765625,-0.024519524228572846,-0.07860182754993439,-0.2640501648813486
1733902277838098400,7.852098388671875,0.01585924791097641,-0.05778524949252605,-0.3891518777996301
1733902277848125400,7.86212548828125,0.1191214694648981,-0.03231470814943314,-0.4707786061286926
1733902277858151400,7.8721513671875,0.24197511119544504,-0.013272154027223586,-0.506378911820054
1733902277868178400,7.882178466796875,0.32940380380153655,-0.02511573655605316,-0.5086825125873089
1733902277878204400,7.892204345703125,0.43531624760329724,0.001277180328965187,-0.4650409392595291
1733902277888231400,7.9022314453125,0.5506868401020765,0.055068391749262806,-0.4422960234880447
1733902277898258400,7.912258544921875,0.5870300731152296,0.10071838229000568,-0.4038806603759527
1733902277908284400,7.922284423828125,0.5492956780046224,0.19930267516076564,-0.362305371928215
1733902277918311400,7.9323115234375,0.40564240935146806,0.26711832028031346,-0.30099194830954074
1733902277928337200,7.942337158203125,0.2016431008070707,0.3617944997966289,-0.2380646597534418
1733902277938364200,7.9523642578125,0.02521335171163082,0.4312105658501386,-0.1888642832547426
1733902277948390100,7.96239013671875,-0.1262146425962448,0.43414311217069623,-0.1453518892645836
1733902277958417200,7.972417236328125,-0.23641221637129783,0.4277835140109062,-0.12581132249236107
1733902277968443100,7.982443115234375,-0.2887362778484821,0.3611719839841127,-0.07978957602977753
1733902277978470100,7.99247021484375,-0.28069267212450505,0.3120037561893463,-0.019837503892183302
1733902277988497200,8.0024970703125,-0.20103110638856886,0.25918928084671494,-0.0014694880306720733
1733902277998523100,8.012523193359375,-0.11303133589625358,0.26359540685117244,-0.02943359975516796
1733902278008550100,8.022550048828125,-0.07202537176907062,0.27659049750268455,-0.09873509951829909
1733902278018576100,8.032576171875,-0.07844283759593963,0.2603630008012056,-0.18537234948575496
1733902278028603400,8.042603271484374,-0.07981529499292374,0.23241467116773126,-0.183035430970788
1733902278038629400,8.05262939453125,-0.13471768252551555,0.16606266885995863,-0.1422176828920841
1733902278048656100,8.06265625,-0.10647475385963916,0.12166647777259348,-0.07454933728873729
1733902278058683100,8.07268310546875,-0.04204582856893539,0.08815759140253067,0.01443710615336895
1733902278068709000,8.082709228515625,0.01021335097849369,0.06355857219696044,0.07580898196101188
1733902278078736400,8.092736328125,0.04808160160183906,0.03737316058278083,0.055980245897173875
1733902278088762400,8.102762451171875,0.05301029017567634,0.04010346232950687,0.034738135904073715
1733902278098789000,8.1127890625,0.07633446713984011,0.060038581377267836,0.025845219874382017
1733902278108815000,8.122815185546875,0.11695523134171962,0.0860603268623352,0.05039397019743919
1733902278118842000,8.132842041015625,0.15791910989284513,0.05368132130503654,0.09918342780768871
1733902278128869400,8.142869384765625,0.14605156196653843,-0.03866144682765007,0.12300035672485828
1733902278138895400,8.152895263671875,0.07697276504337787,-0.10992986274957656,0.15305647229254246
1733902278148922000,8.162922119140624,0.00547287845313549,-0.17304302926659584,0.08450140698254108
1733902278158948000,8.172947998046874,-0.029532383954524993,-0.19867431412935255,0.032120062360167505
1733902278168975000,8.18297509765625,-0.03704407475888729,-0.18964637354314326,0.022127076134085655
1733902278179001000,8.1930009765625,-0.0419236634939909,-0.16787760932743548,0.025030980882048606
1733902278189028400,8.2030283203125,-0.020049100816249846,-0.15656243458688257,0.05778349592685699
1733902278199055000,8.21305517578125,-0.03032674920260906,-0.22755057226270436,0.1185293487906456
1733902278209081000,8.2230810546875,-0.06626081689298152,-0.34828386083841323,0.20387246729433536
1733902278219108000,8.233108154296875,-0.08175298505723476,-0.5130129430070519,0.32884967705011364
1733902278229134300,8.24313427734375,-0.09340835153758525,-0.6583648322716354,0.39646658472716806
1733902278239161300,8.253161376953125,-0.13630173684656618,-0.7271803020834923,0.3563596152663231
1733902278249187300,8.263187255859375,-0.180394561073184,-0.6785282071173191,0.2527425889253616
1733902278259214000,8.273214111328125,-0.23177111256718635,-0.5810489528790116,0.1685124000996351
1733902278269240000,8.283239990234375,-0.20575404325723648,-0.39724633692801,0.17464637281000614
1733902278279267300,8.293267333984375,-0.14387363340556622,-0.1844862143009901,0.28091069878935815
1733902278289294300,8.30329443359375,-0.058870706641674035,0.054335985821485515,0.40927229028642176
1733902278299320300,8.3133203125,0.04511866014301777,0.2549272394880652,0.5135539180159568
1733902278309347000,8.32334716796875,0.07873276045322418,0.4024859911471605,0.4755716856241226
1733902278319373000,8.333373046875,0.016830138769745824,0.4273658731207251,0.26940964608788487
1733902278329400300,8.343400390625,-0.1369599084943533,0.3226587134554982,-0.04682371049523353
1733902278339426300,8.35342626953125,-0.2753139016956091,0.13933452867120505,-0.3389952234894037
1733902278349453300,8.363453369140625,-0.3612988252341747,-0.011860825924575328,-0.4843950435489416
1733902278359480000,8.37347998046875,-0.3711164548933506,-0.10103899254649877,-0.5331242954045534
1733902278369506000,8.383506103515625,-0.3111690589308739,-0.11131225701868533,-0.4759896187752485
1733902278379533300,8.393533203125,-0.2196171489149332,-0.06401420700997114,-0.4104138615369797
1733902278389559300,8.403559326171875,-0.1200929448455572,0.03850537948310375,-0.3502583757817745
1733902278399586300,8.41358642578125,-0.0894891322672367,0.11097878728061913,-0.3257446967720985
1733902278409612300,8.4236123046875,-0.12290274156928062,0.15569763445109128,-0.31699381956160066
1733902278419639000,8.43363916015625,-0.12678805857002734,0.20763854182958602,-0.3183569246083498
1733902278429666300,8.443666259765624,-0.1311287181228399,0.24857524011284113,-0.3006365590006113
1733902278439692300,8.4536923828125,-0.13808043695688246,0.23047142814546823,-0.25743454613387584
1733902278449719300,8.46371923828125,-0.11415186435878276,0.19171382746696472,-0.1991436852067709
1733902278459745300,8.473745361328126,-0.05533142659962177,0.16982874339520931,-0.16434125189483165
1733902278469772000,8.48377197265625,-0.016226327657699584,0.15520400571525095,-0.13656594074070452
1733902278479798300,8.49379833984375,0.03084872725009918,0.1107975854948163,-0.14984627807438372
1733902278489825300,8.5038251953125,0.024900632500648497,0.08389818039238453,-0.19858312871456146
1733902278499852300,8.513852294921875,-0.0010077157378196716,0.047667175582051274,-0.22150164748728274
1733902278509878300,8.523878173828125,-0.004102174621820449,0.03938713075369596,-0.21312369524240493
1733902278519905000,8.533905029296875,-0.013317162212729453,0.06023001229614019,-0.2017319481343031
1733902278529931300,8.54393115234375,-0.0020616087049245835,0.058203767165541646,-0.10818155777752399
1733902278539958300,8.553958251953125,0.015957447588443755,0.006911386823654175,-0.00775251382291317
1733902278549984300,8.563984375,0.029670331120491025,-0.0904611921697855,0.05070610488653183
1733902278560011300,8.57401123046875,0.030841128465533253,-0.18599808016866445,0.06392740550935268
1733902278570037200,8.584037353515624,0.009176993668079376,-0.26423078214526174,0.07265899349749087
1733902278580064300,8.594064208984374,0.008368015372753142,-0.27070962277054783,0.08935235414505005
1733902278590091300,8.60409130859375,0.026518589091300962,-0.250994283953309,0.11277180817723273
1733902278600117200,8.6141171875,0.0011544307321310042,-0.22320494427382945,0.13011223455667495
1733902278610144300,8.624144287109376,-0.054871407872438424,-0.17502280490696429,0.11953355739712715
1733902278620170200,8.634170166015625,-0.13034253618121147,-0.1341907360419631,0.11856500462591647
1733902278630197200,8.644197265625,-0.21723463769257068,-0.12039397361874579,0.11247136392593383
1733902278640224300,8.654224365234375,-0.27127602448165417,-0.11811170790046453,0.12406418656408787
1733902278650250200,8.664250244140625,-0.29718904889523984,-0.16741116085946559,0.14062193813323973
1733902278660277200,8.67427734375,-0.3221381967127323,-0.21974165207743643,0.16416647984981536
1733902278670303200,8.68430322265625,-0.32501053727865215,-0.2528352356448769,0.23814240116477012
1733902278680330200,8.694330322265625,-0.2865577647656202,-0.2724523747846484,0.2978770311594009
1733902278690356200,8.704356201171874,-0.24045769236981868,-0.25880115831196304,0.3440893317580223
1733902278700383200,8.71438330078125,-0.2009557030647993,-0.2702648016124964,0.3162473851084709
1733902278710409200,8.7244091796875,-0.1913572691142559,-0.2910232197418809,0.19062310962080956
1733902278720436200,8.734436279296874,-0.17153788540065287,-0.2777639251962304,0.014569792622327804
1733902278730463200,8.744463134765626,-0.16261223614513873,-0.24281886854320764,-0.15763094060122965
1733902278740489200,8.7544892578125,-0.1708487340927124,-0.21260522432625292,-0.28570553185045716
1733902278750516200,8.76451611328125,-0.1843295624345541,-0.17236206126511097,-0.37736265580654144
1733902278760542200,8.774542236328125,-0.2177297277331352,-0.16091098518520594,-0.4165180236309767
1733902278770569200,8.7845693359375,-0.23845102872252463,-0.13384762169271708,-0.4239835372060537
1733902278780595200,8.79459521484375,-0.2592892340898514,-0.09846855753660201,-0.39129064339399333
1733902278790622200,8.804622314453125,-0.2503513098746538,-0.07967617878317833,-0.3147311353266239
1733902278800649200,8.814649169921875,-0.22542145127952098,-0.07523790407478809,-0.2070633722901344
1733902278810675200,8.82467529296875,-0.1809837591379881,-0.06513970390856266,-0.08797171344161032
1733902278820702200,8.8347021484375,-0.12199205646514892,-0.06786883661150932,0.04722469251155853
1733902278830728200,8.844728271484374,-0.08372808452248573,-0.06230827987492084,0.18789046978652477
1733902278840755200,8.854755126953124,-0.03803542388379574,-0.06503624353408813,0.28971126036047934
1733902278850781200,8.86478125,-0.012734393888711929,-0.0790995479390025,0.3412637529432773
1733902278860808200,8.87480810546875,-0.00563888266980648,-0.13233867843449115,0.321679931551218
1733902278870835200,8.884835205078126,-0.020672201150655746,-0.19012743505835533,0.2716711612790823
1733902278880861200,8.894861083984376,-0.010010521882772445,-0.21438100182712078,0.2002098531335592
1733902278890888200,8.90488818359375,0.029834581771492955,-0.2369642972961068,0.14355097732245922
1733902278900914200,8.9149140625,0.044458150407671926,-0.24804975493401288,0.08180617654919624
1733902278910941200,8.924941162109375,0.07661386860311031,-0.2087611161187291,0.02859013466835022
1733902278920967700,8.9349677734375,0.0601882189810276,-0.14449644147902727,-0.0029874913781881333
1733902278930994400,8.944994384765625,0.04144026389122009,-0.037947453339397905,0.006318681627511978
1733902278941021400,8.955021484375,0.005903671085834503,0.04074439058154821,0.029071780705451963
1733902278951047400,8.96504736328125,-0.013534604355692863,0.09451543599665164,0.01923369278013706
1733902278961074700,8.97507470703125,-0.011996142742037773,0.12941811481267212,-0.023308979395031928
1733902278971100700,8.9851005859375,0.02666413504183292,0.12032821490615606,-0.04553074807524681
1733902278981127400,8.99512744140625,0.06390694724321365,0.08939151711165905,-0.06399988622367382
1733902278991153400,9.0051533203125,0.08861702560782432,0.01329378133714199,-0.08624912743270396
1733902279001180700,9.0151806640625,0.06945347545444965,-0.0472980500087142,-0.13487842604517936
1733902279011206700,9.02520654296875,0.05589256761372089,-0.10745996550470589,-0.13652677777409553
1733902279021233700,9.035233642578126,0.019070026651024818,-0.1496732595950365,-0.12674012777507304
1733902279031260400,9.045260498046876,0.018622282883524893,-0.16880612234920261,-0.10569850879013538
1733902279041286400,9.055286376953125,-0.006631985360383987,-0.15887100379019975,-0.08347615558803081
1733902279051313700,9.065313720703125,-0.029535891085863113,-0.11154928064495324,-0.12146715580821037
1733902279061339600,9.075339599609375,-0.017097849795222282,-0.06154284846037626,-0.13478256445527076
1733902279071366700,9.08536669921875,0.039841596522927285,0.010558218893408775,-0.08670154737532139
1733902279081392600,9.095392578125,0.13752338759601115,0.08008475958406924,0.03826221837699413
1733902279091419400,9.10541943359375,0.25475743587911126,0.12982932596206664,0.1740104129940271
1733902279101446700,9.11544677734375,0.33038813866376876,0.1375102358534932,0.21254852570295332
1733902279111472600,9.12547265625,0.3208440652489662,0.11060177066177129,0.15023615417480468
1733902279121499600,9.135499755859374,0.26689386387467384,0.034954701264202595,0.01874094082713127
1733902279131525600,9.145525634765624,0.1848082858622074,-0.028100305324792862,-0.06967617829442024
1733902279141552400,9.155552490234374,0.09665478611290454,-0.027911504754424093,-0.09962298826873302
1733902279151578400,9.165578369140626,0.04101648552119732,-0.001087210714817047,-0.14899287611544132
1733902279161605600,9.175605712890626,-0.030759879922866818,-0.006225742647051811,-0.20443068569898604
1733902279171632600,9.185632568359376,-0.06892974384129047,-0.02735270182788372,-0.24301672920286654
1733902279181658600,9.19565869140625,-0.11171616164445876,-0.04819909050166606,-0.25053777235746383
1733902279191685400,9.205685302734375,-0.15763912390768528,-0.06028291152715683,-0.24053835639059543
1733902279201711600,9.215711669921875,-0.15679390525519846,-0.07507073081433772,-0.19303309337198732
1733902279211738600,9.225738525390625,-0.12512450927197932,-0.0737649089127779,-0.10495265885889529
1733902279221764600,9.2357646484375,-0.07163724923431873,-0.037549686193466186,0.03164659962952137
1733902279231791600,9.24579150390625,0.007525719329714775,0.011548106713593005,0.12014905894696712
1733902279241818400,9.255818359375,0.0698521193832159,0.05872282260358333,0.15176526343822477
1733902279251844600,9.2658447265625,0.06255962428748607,0.07452449510842561,0.08411620705723762
1733902279261871600,9.27587158203125,0.020916531300544737,0.05808423243910074,0.0024070611417293547
1733902279271897600,9.285897705078124,-0.020706687942147254,-0.018366846817731857,-0.07138532029986382
1733902279281924600,9.295924560546876,-0.05948971532285213,-0.10947422793656587,-0.14250819027125836
1733902279291950600,9.30595068359375,-0.06732464673221111,-0.20101678560227154,-0.17270049943923949
1733902279301977600,9.3159775390625,-0.06460428185760975,-0.26480975107699634,-0.1695581097602844
1733902279312004600,9.326004638671876,-0.06901508403718472,-0.3054474664136767,-0.14994038609862326
1733902279322030600,9.336030517578125,-0.053391982969641684,-0.2967132480770349,-0.12147533911466597
1733902279332057600,9.3460576171875,-0.011133972954750061,-0.2607213127195835,-0.10677870524227619
1733902279342083300,9.356083251953125,0.005246668481826782,-0.22924071730673312,-0.08410977731645107
1733902279352110600,9.366110595703125,0.011285364124178885,-0.20899346356987952,-0.06632043812572956
1733902279362136600,9.376136474609375,0.016554828959703446,-0.19674305380582807,-0.07426818225979805
1733902279372163600,9.38616357421875,0.003949029886722564,-0.1973614779651165,-0.0910883841574192
1733902279382190600,9.396190673828125,-0.058691842943429946,-0.20355331834256649,-0.11423720455467701
1733902279392216300,9.40621630859375,-0.11473171007335185,-0.20510463943779467,-0.0934849239051342
1733902279402243600,9.41624365234375,-0.15590426293909548,-0.1902238811701536,-0.05882277584671974
1733902279412269600,9.42626953125,-0.18338380601704118,-0.13637714017033575,-0.0316232187539339
1733902279422296600,9.436296630859376,-0.1598737510919571,-0.05982786123603582,-0.011712065103650093
1733902279432322600,9.446322509765626,-0.15299568201601504,0.01772182691246271,0.00826923117339611
1733902279442349300,9.456349365234376,-0.11047872880399226,0.08076309723705052,0.023875381106138228
1733902279452376600,9.46637646484375,-0.05608604435920715,0.11700316213667392,0.07931903590857982
1733902279462402600,9.476402587890625,0.009768529820442198,0.11022533856481313,0.1414075355529785
1733902279472429600,9.4864296875,0.05751636942327022,0.08604980546832085,0.19088439090549944
1733902279482455600,9.49645556640625,0.08405892391204833,0.0609963204935193,0.18612521367967128
1733902279492482300,9.506482421875,0.07376607795655726,-0.0027539748832583425,0.15024959817826747
1733902279502508500,9.516508544921875,0.05667933407723903,-0.04802811784893274,0.09721534260511398
1733902279512535600,9.52653564453125,0.022377251502871513,-0.037842531660199165,0.022338673058152198
1733902279522562600,9.5365625,-0.025568741020560264,-0.012107201901078224,-0.0717342798680067
1733902279532588500,9.546588623046874,-0.0161298815459013,0.03785480661988258,-0.1051964044868946
1733902279542615600,9.556615478515624,0.04563303940594196,0.07277619013637304,-0.09901040932834147
1733902279552641500,9.5666416015625,0.08378478314578533,0.11219663863778113,-0.07285188572108744
1733902279562668500,9.57666845703125,0.0824134947925806,0.12235066064447164,-0.10098667783737182
1733902279572694500,9.586694580078126,0.05289513936340808,0.1099693179771304,-0.13764789075851439
1733902279582721500,9.596721435546876,0.00184825821518898,0.09333791664987802,-0.17792670965492724
1733902279592748500,9.60674853515625,-0.016589315751194954,0.047148996926844114,-0.18089841894209382
1733902279602774500,9.6167744140625,-0.02922667900621891,0.02438070027977228,-0.17993454234600065
1733902279612801500,9.626801513671875,-0.028222470399737357,0.002648468682169914,-0.19558219333291052
1733902279622827500,9.63682763671875,-0.016539046868681906,-0.015037410134077072,-0.20605565655231475
1733902279632854500,9.6468544921875,-0.0799257696300745,-0.0015121581286191938,-0.2157563818335533
1733902279642880500,9.656880615234375,-0.1365975049227476,0.023786533778905865,-0.22595395072102545
1733902279652907500,9.666907470703125,-0.19164660744965076,0.014257657933235168,-0.21493395953476427
1733902279662934500,9.6769345703125,-0.2292769576638937,0.012648761431872844,-0.1787345189064741
1733902279672960500,9.68696044921875,-0.2098871975392103,0.010943711079657078,-0.10850538290441035
1733902279682987500,9.696987548828124,-0.16470657807588576,-0.018880057036876677,-0.020638298881053924
1733902279693013500,9.707013427734376,-0.09443243388831615,-0.04974018246382474,0.04897592009305954
1733902279703040500,9.71704052734375,-0.027654315122961997,-0.08823357924818992,0.06409516329169274
1733902279713066500,9.72706640625,0.014725275444984436,-0.13396832546293735,0.06295768369436264
1733902279723093500,9.737093505859375,0.03412906409502029,-0.14342559737712143,0.055254854232072825
1733902279733119500,9.747119384765625,0.032487142106890673,-0.15264818375259637,0.05419102439284324
1733902279743146800,9.757146728515625,-0.013691256222128868,-0.13884791419804096,0.04346563223898411
1733902279753173500,9.767173583984375,-0.05791442883014679,-0.12253653860539197,0.03351297802329063
1733902279763199500,9.777199462890625,-0.03987900592386722,-0.10330781426131724,0.04189560644328594
1733902279773226500,9.7872265625,0.002728548181056976,-0.10451543648540973,0.036055063721537585
1733902279783252500,9.79725244140625,0.07053074929714202,-0.13810878626853226,-0.009317863443493843
1733902279793279700,9.80727978515625,0.04557283365130424,-0.1732663166284561,-0.07433247966766357
1733902279803305700,9.8173056640625,-0.018045944300293923,-0.20745500195622443,-0.14205577032864092
1733902279813332500,9.82733251953125,-0.09900807124078273,-0.17402590282410382,-0.16930793439149855
1733902279823359500,9.837359375,-0.18736440008580685,-0.14952303746938705,-0.1257914487481117
1733902279833385500,9.847385498046876,-0.2473790160655975,-0.12448533458560704,-0.049614802518486975
1733902279843412700,9.857412841796876,-0.24127836110293863,-0.09727525609880686,0.07252104633152484
1733902279853438700,9.867438720703126,-0.18352467579245565,-0.05200286669880151,0.21999124292433261
1733902279863465500,9.877465576171875,-0.12708499568998813,-0.005554126995801926,0.2699228563070297
1733902279873491500,9.887491455078125,-0.06846797154843806,0.001532324133813381,0.24535072510838507
1733902279883518500,9.8975185546875,-0.066597501501441,-0.011817279043793677,0.17472820587456225
1733902279893545700,9.907545654296875,-0.06957447148561477,-0.053633682771027084,0.09495967263281345
1733902279903571700,9.91757177734375,-0.04641512969434261,-0.09229308377206324,0.024808278042078018
1733902279913598500,9.927598388671875,-0.02065466549396515,-0.1403165254458785,0.0001537292569875717
1733902279923624000,9.9376240234375,0.054855041259527205,-0.16789339141845702,0.08151216203868389
1733902279933651000,9.94765087890625,0.12498071688711643,-0.21626608492136,0.14441197806596756
1733902279943677000,9.957677001953124,0.16400690537393092,-0.22784546355605123,0.1365156718581915
1733902279953704000,9.967703857421874,0.21406536000669002,-0.22717238660007713,0.09834346985220908
1733902279963731000,9.97773095703125,0.1757499501377344,-0.20416998893618582,-0.030986089894175527
1733902279973757000,9.9877568359375,0.07566694314181804,-0.187975809982419,-0.19480594826340675
1733902279983784000,9.997783935546876,-0.06452011070549488,-0.15936112539470196,-0.286942380169034
1733902279993810000,10.007809814453125,-0.20242051492035387,-0.12832125948667525,-0.31439795784950253
1733902280003837000,10.0178369140625,-0.3073106299370527,-0.07405190916061401,-0.28700141687989233
1733902280013863000,10.02786279296875,-0.34494624084830283,-0.031688977466523646,-0.24039924018085002
1733902280023890000,10.037889892578125,-0.33211306276023383,-0.006149170279502869,-0.15826456232964992
1733902280033917000,10.0479169921875,-0.32778234007954593,0.017913257831335065,-0.07525836234092712
1733902280043943000,10.05794287109375,-0.3031593554764986,0.026795652467012404,-0.022008418190479277
1733902280053970000,10.067969970703125,-0.28531857835948465,0.03529489300400018,0.05874678800106048
1733902280063996000,10.077995849609374,-0.2533452309936285,0.0286062090203166,0.08414601767361164
1733902280074023000,10.08802294921875,-0.23737083227038383,-0.0103261637032032,0.06157996560037136
1733902280084049000,10.098048828125,-0.2427273908674717,-0.07860884181261062,0.001294131463766098
1733902280094076000,10.108075927734374,-0.25537527551651,-0.11257423977851867,-0.02539806062877178
1733902280104103000,10.11810302734375,-0.26427462128698825,-0.04977057760208845,-0.009167056795954703
1733902280114129200,10.128129150390626,-0.227172678861022,-0.012208616448938846,0.005611994662880897
1733902280124156000,10.138156005859376,-0.22360943342149256,0.03571574876457453,0.0003086275577545166
1733902280134182000,10.148181884765625,-0.20862696834504604,0.05854162081778049,-0.028546880048513412
1733902280144209000,10.158208984375,-0.22415420782268047,0.09066489804834127,-0.06051321315169334
1733902280154235000,10.16823486328125,-0.2937462149649858,0.13403057704418897,-0.0740565853357315
1733902280164262100,10.17826220703125,-0.34142332741916176,0.1589841087758541,-0.06310498321056365
1733902280174289000,10.188288818359375,-0.3484457734018564,0.1465206407830119,-0.047373161071538925
1733902280184315000,10.19831494140625,-0.31899054633677004,0.11150222663283348,-0.07512509135007858
1733902280194342000,10.208341796875,-0.3273953865885734,0.040921500714123246,-0.14794541288912297
1733902280204368000,10.218367919921874,-0.37270693895518775,-0.04861819269657135,-0.14562252289950847
1733902280214395100,10.22839501953125,-0.3235334504634142,-0.0592471387386322,-0.04587327790260315
1733902280224421000,10.238421142578124,-0.2611860076218843,-0.026454583944380283,0.10606558853685855
1733902280234448000,10.24844775390625,-0.2530845342308283,-0.007220598903298378,0.1460445477038622
1733902280244475000,10.258474853515626,-0.2635486450999975,-0.010423486597836018,0.1466097803711891
1733902280254500900,10.2685009765625,-0.3258586785405874,-0.03412877183407545,0.10407119984924793
1733902280264528100,10.278528076171876,-0.43646834024786946,-0.030465573151409624,0.00895019917488098
1733902280274554000,10.28855419921875,-0.46148646164834495,-0.008282675176858902,-0.03930968160331249
1733902280284580900,10.298580810546875,-0.35160277612805363,0.047753100299835205,-0.03923252471387386
1733902280294606800,10.30860693359375,-0.10229191521704196,0.06199526840299367,0.024160627788305283
1733902280304633900,10.3186337890625,0.16685644958615303,0.005913607957959175,0.15776771872341633
1733902280314661000,10.3286611328125,0.3080406977772713,-0.01507803440541029,0.2266144604563713
1733902280324687000,10.33868701171875,0.33722236859798427,-0.1104687919318676,0.18410393698513508
1733902280334713900,10.3487138671875,0.24639117407202718,-0.18438743010163305,0.06949789911806584
1733902280344739800,10.35873974609375,0.1214478665858507,-0.21476707853525875,-0.03882686652243137
1733902280354766800,10.368766845703124,0.09323591758012771,-0.18103081315010786,-0.1337310095757246
1733902280364793000,10.37879296875,0.1664385164350271,-0.1529407369583845,-0.17824878121614454
1733902280374820000,10.388820068359376,0.2549485745370388,-0.14039368233531713,-0.19405016146004198
1733902280384846800,10.398846923828126,0.3035118221759796,-0.13458821092694997,-0.20445698918402194
1733902280394872800,10.408872802734376,0.2775000135630369,-0.10381108760833739,-0.1330167238265276
1733902280404900000,10.418900146484376,0.23937691139578818,-0.007590893520414829,-0.047022447937726974
1733902280414926000,10.428926025390625,0.19542846407592296,0.08760054204165935,0.005317980152368545
1733902280424953000,10.438953125,0.12376023518145084,0.13868103319853545,-0.07764496521651744
1733902280434979000,10.44897900390625,0.07522270650565624,0.18197335469722747,-0.21015607760846614
1733902280445005800,10.459005859375,0.06853519156575202,0.19711480972766876,-0.32989071053564545
1733902280455033000,10.469033203125,0.12338789473772048,0.2262166933104396,-0.312953604260087
1733902280465059000,10.47905908203125,0.21701661102771758,0.21084201404601335,-0.23133622828125952
1733902280475086000,10.489086181640625,0.26851708116233347,0.20044015475809573,-0.1877449238359928
1733902280485112000,10.499112060546874,0.28874796828627586,0.16380436853915453,-0.085829440715909
1733902280495138800,10.509138916015624,0.21663141110241413,0.07959463797956705,-0.03630933074355125
1733902280505164800,10.519164794921876,0.10080606057345867,-0.05456833327263593,-0.04230594080984592
1733902280515192000,10.529192138671876,-0.013074001106619835,-0.15605565410852432,-0.11734043126702308
1733902280525219000,10.539218994140626,-0.08606091138422489,-0.20978841333985326,-0.24877017816305158
1733902280535245000,10.5492451171875,-0.06391220794022083,-0.143314538218081,-0.33860593191087246
1733902280545271800,10.559271728515625,0.034681437280774115,0.01900631376504898,-0.3483183476299047
1733902280555297800,10.5692978515625,0.18203180688619613,0.2053255887120962,-0.24362287840247152
1733902280565325000,10.579324951171875,0.346693376776576,0.32268063302636146,-0.011136895564198493
1733902280575351000,10.58935107421875,0.41533612037003037,0.2933092848524451,0.19433949979543685
1733902280585378000,10.5993779296875,0.3317377997070551,0.1128323061928153,0.17756372156143188
1733902280595404800,10.60940478515625,0.1933048960506916,-0.05879004262089729,-0.0054430678367614746
1733902280605430800,10.6194306640625,0.1130780976474285,-0.12072013683319091,-0.19531623587310312
1733902280615458000,10.6294580078125,0.0230792622923851,-0.09180442347228526,-0.405336704403162
1733902280625484000,10.639484130859374,-0.050013446447253224,-0.038190614445507524,-0.5610965904355049
1733902280635511000,10.649510986328124,-0.07372808403372764,0.060922670735418794,-0.5208838225126267
1733902280645537000,10.659537109375,-0.05890460891127586,0.16486702933460473,-0.21730185770988464
1733902280655564000,10.66956396484375,-0.019738135170936585,0.1952370331570506,0.16813772156834603
1733902280665591000,10.679591064453126,-0.060844052541255945,0.1455187702640891,0.38375674075782296
1733902280675617000,10.689616943359376,-0.12872048793733118,0.06712269441932439,0.4008481608122587
1733902280685644000,10.69964404296875,-0.16866846744418143,-0.032022154943645,0.18286767318844793
1733902280695670000,10.709669921875,-0.1853179889500141,-0.13106558975875376,-0.0906786343127489
1733902280705697000,10.719697021484375,-0.1996785227358341,-0.14038520676791666,-0.24895021090507505
1733902280715723000,10.729722900390625,-0.19874036510288715,-0.060174190455675125,-0.3087444621324539
1733902280725750000,10.73975,-0.23569150088131427,0.0537006105273962,-0.26598610137999057
1733902280735777000,10.749777099609375,-0.26402561496198174,0.16640665999203919,-0.10482932474017143
1733902280745802800,10.759802734375,-0.24026772275567054,0.2289671610623598,0.10269406627714633
1733902280755830000,10.769830078125,-0.20202011742591858,0.2481976389721036,0.23916356090605256
1733902280765856000,10.77985595703125,-0.17307634701430796,0.19886165339499712,0.23063421749174592
1733902280775883000,10.789883056640624,-0.16445932531654833,0.060786184874176974,0.0771808548361063
1733902280785909000,10.799908935546876,-0.1321013625472784,-0.10429828660339116,-0.0925350758343935
1733902280795935700,10.809935791015626,-0.06847907746434212,-0.19775398441404102,-0.18652035047709942
1733902280805963000,10.819962890625,-0.02852642178237438,-0.23919541734904048,-0.19828560707271098
1733902280815989000,10.829989013671875,0.01598725820481777,-0.2229597373411059,-0.07285188572108744
1733902280826016000,10.84001611328125,0.036462475478649135,-0.19498101256936787,0.03296820362210274
1733902280836042000,10.8500419921875,0.031222821259498594,-0.15728957981765268,0.09603636195361613
1733902280846068700,10.86006884765625,0.010102876341342925,-0.11277531530857085,0.11780863330066203
1733902280856094700,10.8700947265625,-0.0707803401440382,-0.05299655391126871,0.07728840686380863
1733902280866122000,10.8801220703125,-0.0824918207257986,-0.006247369956970215,0.03691255733370781
1733902280876149000,10.89014892578125,-0.053126025509834286,0.024221418064832686,-0.030117490366101264
1733902280886175000,10.900175048828125,-0.034924013864994045,0.04231032472401857,-0.13311492350399493
1733902280896201700,10.91020166015625,0.004990063372254372,0.03728606682121754,-0.19515432330965995
1733902280906228000,10.92022802734375,0.07778291238248347,0.0464157142162323,-0.09241466432511806
1733902280916255000,10.9302548828125,0.12289864991605282,0.07465776609927416,-0.003113748106360435
1733902280926281200,10.94028125,0.17050561974346637,0.05191460389345884,0.026472411862015724
1733902280936308200,10.95030810546875,0.17031798821687696,-0.02201747827976942,-0.011896774020791053
1733902280946335000,10.9603349609375,0.10248130030930042,-0.12681319301128385,-0.17895780626833438
1733902280956361000,10.97036083984375,0.011349077010154723,-0.18706629392206667,-0.35135376980304717
1733902280966388200,10.98038818359375,-0.09501929386556147,-0.2026791658565402,-0.47313481386601924
1733902280976414200,10.990414306640625,-0.1561164443850517,-0.15859277137070893,-0.4918856915652752
1733902280986441200,11.000441162109375,-0.1531236923098564,-0.101950554433465,-0.3902513634741306
1733902280996467200,11.01046728515625,-0.16026362719237802,-0.03926555020064115,-0.18642448888719082
1733902281006494000,11.020493896484375,-0.1283843878507614,-0.006926292131841183,0.08961831160485743
1733902281016521200,11.030521240234375,-0.0505763410270214,0.011621756471693515,0.2858499087572098
1733902281026547200,11.040547119140625,0.006421557480096817,0.009893909765779972,0.2808119145900011
1733902281036574200,11.05057421875,0.03777706520855426,-0.024444120904803274,0.17190379610359668
1733902281046600200,11.06060009765625,0.05395546207129955,-0.04065642003715038,0.016776947277784348
1733902281056627200,11.070627197265624,0.10910919401645659,-0.042270869496464726,-0.13132336391210556
1733902281066653200,11.080653076171876,0.20727146208286285,-0.05341653288900852,-0.193365686327219
1733902281076680200,11.09068017578125,0.3223322579801082,-0.058008536854386325,-0.22507132266759872
1733902281086707200,11.100707275390626,0.42425592440664767,-0.030544191345572468,-0.24261691623032092
1733902281096733200,11.110733154296875,0.5781622915267944,0.10289864893853663,-0.2354372338593006
1733902281106760200,11.12076025390625,0.665141486799717,0.2887485528081655,-0.13165128069221974
1733902281116786200,11.1307861328125,0.6236983002990484,0.4313543582350015,-0.034900048467516896
1733902281126813200,11.140813232421875,0.4719382975578308,0.4775041149914264,-0.06289163272082805
1733902281136840200,11.150840087890625,0.30818916633725163,0.3755857092618942,-0.1408855575054884
1733902281146866200,11.1608662109375,0.2008516581684351,0.23332652531564235,-0.22543489528298377
1733902281156893200,11.17089306640625,0.14864274750351905,0.09536649986803532,-0.24434184032678602
1733902281166919200,11.180919189453125,0.11689210297763347,0.003257540491223335,-0.22235914109945296
1733902281176946200,11.1909462890625,0.058148822107911106,-0.04178746989369392,-0.17575287274718285
1733902281186972200,11.20097216796875,-0.00041501054167747495,-0.06621960809975862,-0.18282441856861115
1733902281196999200,11.210999267578124,-0.02367489009797573,-0.058303135886788364,-0.1371603995025158
1733902281207026200,11.221026123046874,-0.007124737313389778,-0.041646307857334613,-0.07432838801443577
1733902281217052200,11.23105224609375,0.06223229202926159,-0.01827829175144434,0.0027630349725484846
1733902281227079200,11.2410791015625,0.11314707123041153,0.0368868383705616,0.0954103390097618
1733902281237105200,11.251105224609375,0.03596329378485679,0.0945394013941288,0.09842179578542709
1733902281247132200,11.261132080078125,-0.09105039023458956,0.1524491540491581,0.009184007930755614
1733902281257158400,11.271158447265625,-0.27315409331321716,0.1883545801669359,-0.16453648220598696
1733902281267185200,11.28118505859375,-0.42798166693150996,0.21900778484493494,-0.34645606088936326
1733902281277212200,11.291212158203125,-0.5068915375173092,0.2164037398263812,-0.4074818997383117
1733902281287238100,11.301238037109375,-0.47282852439582346,0.17239508675187826,-0.4459685745209455
1733902281297265200,11.31126513671875,-0.3590384790867567,0.08220657404363155,-0.36875615550279617
1733902281307291400,11.32129150390625,-0.2500871059805155,-0.0287020706102252,-0.24242811565995215
1733902281317318100,11.331318115234374,-0.19604338110387323,-0.11826193002611397,-0.13253332422375677
1733902281327344000,11.34134423828125,-0.17815116606056688,-0.18330372651815413,-0.06123217507600784
1733902281337371100,11.35137109375,-0.16259937666356564,-0.17738193525373935,-0.018179215291142463
1733902281347398400,11.3613984375,-0.14362170447111128,-0.12241700387895106,0.029240707531571385
1733902281357424400,11.37142431640625,-0.15427987660765646,-0.05880436340719461,0.030627193453907964
1733902281367451100,11.381451171875,-0.14032149388194085,0.016659458377957344,0.008660860839486122
1733902281377477000,11.39147705078125,-0.1400882696479559,0.0761088416904211,0.03307049495279789
1733902281387504000,11.401504150390625,-0.1544482189118862,0.1114659862756729,0.07627133877575397
1733902281397530000,11.411530029296875,-0.17316987051665783,0.10805647009313106,0.14831249263584612
1733902281407557400,11.421557373046875,-0.16873977911472318,0.12959785529375076,0.21419337030053137
1733902281417584000,11.431584228515625,-0.19093173717856407,0.1347808108896017,0.23864976616501807
1733902281427610000,11.441610107421875,-0.21338848365843294,0.13890958125740288,0.23360241964757442
1733902281437637000,11.45163720703125,-0.16959201202988625,0.15399346088171004,0.2670996155798435
1733902281447663000,11.4616630859375,-0.10651917752325535,0.2058858529433608,0.2582370946884155
1733902281457690000,11.471690185546874,-0.03830664204061031,0.20965455782711503,0.2343009233057499
1733902281467716000,11.481716064453124,0.02680851194858551,0.17674685222059489,0.21374211940169333
1733902281477743000,11.4917431640625,0.0004857376903295517,0.11922463757842779,0.1636246280580759
1733902281487770000,11.50177001953125,-0.10457564224004745,0.0900932356402278,0.0727361503869295
1733902281497796000,11.511796142578126,-0.2378548163950443,0.09007482320070266,-0.054553427964448925
1733902281507823000,11.521822998046876,-0.32492695064842697,0.1013274540990591,-0.17204115874767303
1733902281517849000,11.53184912109375,-0.3511883501082659,0.10269611210376024,-0.26623978388011454
1733902281527876000,11.5418759765625,-0.33839725759625433,0.09061492142677306,-0.3015513357579708
1733902281537902000,11.551902099609375,-0.25207915658056734,0.09587181904166936,-0.27992928653657434
1733902281547929000,11.56192919921875,-0.09763795193135738,0.08350275133401155,-0.20252631338238716
1733902281557956000,11.5719560546875,0.03264671658277511,0.07227467035502196,-0.16617489706277846
1733902281567982000,11.581982177734375,0.06889116539657116,0.01945668788105249,-0.13262626320421694
1733902281578009000,11.592009033203125,-0.010142623829841614,-0.0594192804351449,-0.07200783611238003
1733902281588035000,11.60203515625,-0.10912614515125751,-0.11102934842407702,-0.06009937165379524
1733902281598062300,11.612062255859374,-0.16053776795864105,-0.14532207864820956,-0.09008125294148922
1733902281608088300,11.62208837890625,-0.15344401030540467,-0.18187047884464264,-0.09491583349108695
1733902281618115000,11.632114990234374,-0.10803075112998485,-0.23302023584544657,-0.06388239732384682
1733902281628142000,11.64214208984375,0.05121230084300041,-0.25974428438097236,-0.008086860343813895
1733902281638168000,11.65216796875,0.26035657106041904,-0.25247809277027844,0.0825140325576067
1733902281648195300,11.6621953125,0.3914116394251585,-0.2869248445123434,0.21639409521520137
1733902281658221300,11.67222119140625,0.39289340241551396,-0.3157645700275898,0.2524555886775255
1733902281668248000,11.682248046875,0.31114567805528637,-0.3241013134792447,0.14375731354951857
1733902281678274000,11.692274169921875,0.21551380524933336,-0.3027639264181256,0.005516717594861984
1733902281688301000,11.702301025390625,0.12663199122548102,-0.2882689525976777,-0.11240940460562705
1733902281698328300,11.712328369140625,0.06333119318187236,-0.32489889359772206,-0.23618074570298195
1733902281708354300,11.722354248046875,0.005284077882766723,-0.37416152167767286,-0.26567338216900827
1733902281718381000,11.732381103515625,-0.06896247706711292,-0.38100890335440635,-0.17502338942885398
1733902281728407000,11.742406982421874,-0.14694704950153828,-0.31029666001051665,0.010227964025735855
1733902281738434000,11.75243408203125,-0.1845341450959444,-0.21499796468168494,0.15470365497767924
1733902281748461300,11.76246142578125,-0.20238602812886236,-0.1443359902203083,0.2342863102585077
1733902281758487300,11.7724873046875,-0.1903641664236784,-0.1317746148109436,0.22386311592161653
1733902281768514000,11.78251416015625,-0.1862941405057907,-0.16170622721612452,0.18323884458839892
1733902281778540000,11.7925400390625,-0.19621815314888952,-0.20852146214395761,0.08309095566272735
1733902281788567000,11.802567138671876,-0.15416238770782947,-0.21950901236534118,0.02053308494091034
1733902281798593300,11.81259326171875,-0.10037234533131122,-0.23479484430253506,-0.03244622557461262
1733902281808620300,11.822620361328125,-0.074100424477458,-0.21775486217439174,-0.04932838679254055
1733902281818647000,11.83264697265625,-0.08829203143715858,-0.1999862735107541,-0.07320493694245815
1733902281828673000,11.842673095703125,-0.09366612569093703,-0.16062632302492855,-0.09823474878072738
1733902281838700000,11.852699951171875,-0.12996844217181205,-0.10864654494076967,-0.10846037471890449
1733902281848726300,11.862726318359375,-0.10949322489798069,-0.03555588202774525,-0.1362239954352379
1733902281858753300,11.872753173828125,-0.08357318622171879,0.0193082193210721,-0.16114274811446666
1733902281868779300,11.882779296875,-0.06862988411188126,0.05515402420610189,-0.1688701274961233
1733902281878806000,11.892805908203124,-0.06334463718533516,0.08837035737037659,-0.14904022238850592
1733902281888833000,11.9028330078125,-0.05459142188727855,0.13740268382579088,-0.1147732111275196
1733902281898859300,11.912859375,-0.054878422135114666,0.16447101575434206,-0.04622340651452541
1733902281908886300,11.92288623046875,-0.08773381303250789,0.17741233039200305,0.018950199663639068
1733902281918912300,11.932912353515626,-0.12236907308399676,0.16933423787653445,0.06848550720512867
1733902281928939300,11.942939208984376,-0.12027473115324973,0.15444471178054808,0.09652852938473223
1733902281938965200,11.95296533203125,-0.11690262437164783,0.13872808721065522,0.056954643887281414
1733902281948992500,11.962992431640625,-0.15589549511075018,0.1375762868270278,-0.007250409519672393
1733902281959019500,11.97301953125,-0.18085750240981577,0.14801146386265754,-0.07108487604856491
1733902281969045500,11.98304541015625,-0.15224690947532654,0.15100070880651473,-0.12139350605010986
1733902281979072300,11.993072265625,-0.14206629172265528,0.11002806242704391,-0.14285714983940123
1733902281989098200,12.00309814453125,-0.12520458877086638,0.03566343405544758,-0.1439905377835035
1733902281999125500,12.01312548828125,-0.1129039101243019,-0.003287643368542194,-0.12656944738328457
1733902282009151500,12.0231513671875,-0.09647007719576359,0.039809740079939364,-0.17896482053101062
1733902282019178500,12.033178466796874,-0.0841951175123453,0.09993687652349471,-0.30106852067708967
1733902282029205200,12.043205322265624,-0.10784019699394702,0.1424471077337861,-0.3341144657105207
1733902282039231200,12.053231201171876,-0.1171171439051628,0.18000117784142494,-0.20496552322804926
1733902282049258500,12.063258544921876,-0.06109715051949024,0.19903058022111653,-0.0256891525298357
1733902282059284500,12.073284423828126,0.0052460839599370954,0.19621844540983438,0.09426409158408641
1733902282069311500,12.0833115234375,0.06838029326498508,0.1865033993422985,0.14817629903554916
1733902282079338200,12.093338134765625,0.09664192663133143,0.12219517782181501,0.15041326430737972
1733902282089364500,12.103364501953125,0.10818740299642085,0.0403615287438035,0.09779109666645526
1733902282099391500,12.1133916015625,0.09829846166670322,-0.021610358783602714,0.05672609582841396
1733902282109417500,12.12341748046875,0.10569383261501789,-0.05284925439506769,0.058276832401752465
1733902282119444500,12.133444580078125,0.09196984316706656,-0.08866495640277862,0.04558510861098766
1733902282129470500,12.143470458984375,0.06053016428649425,-0.14514526077657938,0.0032809213668107983
1733902282139497500,12.15349755859375,0.02031564279794693,-0.21220102743953465,-0.04620061016082763
1733902282149524500,12.1635244140625,-0.008701777371764183,-0.24993776063770054,-0.07367723062932491
1733902282159550500,12.173550537109374,-0.027304186511039732,-0.2552618782699108,-0.06473579928278923
1733902282169577500,12.183577392578124,-0.05205167427659035,-0.22038433389514683,-0.06362053151726722
1733902282179603500,12.193603515625,-0.08757365403473377,-0.18650223029851912,-0.07345160517990589
1733902282189630500,12.20363037109375,-0.10258125355243682,-0.1640066131129861,-0.06456745697855949
1733902282199656400,12.213656494140626,-0.09603519290983677,-0.12760375886708497,-0.05651917507946491
1733902282209683500,12.223683349609376,-0.04230477176606655,-0.0769257110312581,-0.06266366918385029
1733902282219710500,12.23371044921875,0.005718962168693542,-0.028584289449453352,-0.07165887654423714
1733902282229736400,12.243736328125,0.03626490707993507,0.004733166001737118,-0.096834818854928
1733902282239763500,12.253763427734375,0.026424481067061422,0.002234627184271812,-0.13215689212679863
1733902282249789400,12.26378955078125,0.02874035679399967,0.003614391104876995,-0.1253086336672306
