time,seconds_elapsed,z,y,x
1733902270007344600,0.0213447265625,-0.46912744641304016,-0.3606444299221039,-0.7806648015975952
1733902270017370600,0.03137060546875,-0.4304703176021576,-0.35101762413978577,-0.85465407371521
1733902270027397600,0.041397705078125,-0.4354288578033447,-0.2804040312767029,-0.9182380437850952
1733902270037423600,0.051423583984375,-0.5029330849647522,-0.22011807560920715,-0.9889452457427979
1733902270047451000,0.061450927734375,-0.6620678901672363,-0.23453816771507263,-1.025570273399353
1733902270057476900,0.071476806640625,-0.8428515195846558,-0.20003105700016022,-1.0109522342681885
1733902270067503600,0.081503662109375,-0.9988592863082886,-0.15963232517242432,-0.9740037322044373
1733902270077530600,0.091530517578125,-1.0955312252044678,-0.11066558212041855,-0.9293238520622253
1733902270087556600,0.101556640625,-1.088850498199463,-0.06122253090143204,-0.8675522804260254
1733902270097583900,0.111583984375,-0.966485857963562,-0.09175460785627365,-0.8211663961410522
1733902270107609900,0.12160986328125,-0.7695824503898621,-0.18799233436584473,-0.8100413084030151
1733902270117636600,0.13163671875,-0.5648404955863953,-0.2611413598060608,-0.8318048715591431
1733902270127662600,0.14166259765625,-0.39527904987335205,-0.2945711314678192,-0.8737488985061646
1733902270137689600,0.151689697265625,-0.2683884799480438,-0.31020548939704895,-0.921318531036377
1733902270147715600,0.161715576171875,-0.16196364164352417,-0.42992541193962097,-0.9786298274993896
1733902270157742800,0.171742919921875,-0.13229496777057648,-0.5760626792907715,-1.0445265769958496
1733902270167768800,0.181768798828125,-0.19472067058086395,-0.5876641273498535,-1.1154323816299438
1733902270177795600,0.191795654296875,-0.2980036437511444,-0.5516064763069153,-1.1785682439804077
1733902270187822600,0.201822509765625,-0.42472022771835327,-0.5296779870986938,-1.2545284032821655
1733902270197848600,0.2118486328125,-0.53046715259552,-0.6357256174087524,-1.3614023923873901
1733902270207875800,0.221875732421875,-0.5725411772727966,-0.9498801231384277,-1.4901334047317505
1733902270217901800,0.23190185546875,-0.5429782271385193,-1.3039358854293823,-1.6161175966262817
1733902270227928600,0.241928466796875,-0.5073155760765076,-1.4876163005828857,-1.5990242958068848
1733902270237954600,0.25195458984375,-0.5382377505302429,-1.1933226585388184,-1.5571902990341187
1733902270247981600,0.261981689453125,-0.5319214463233948,-1.0519026517868042,-1.4827017784118652
1733902270258007800,0.2720078125,-0.29573848843574524,-0.9247831106185913,-1.3290421962738037
1733902270268034800,0.282034912109375,-0.06718580424785614,-0.7618973851203918,-1.169680118560791
1733902270278060800,0.292060791015625,0.05064362660050392,-0.5933672189712524,-1.014319896697998
1733902270288087600,0.302087646484375,0.05251722037792206,-0.4117841124534607,-0.9102725386619568
1733902270298113500,0.312113525390625,0.024858694523572922,-0.20722296833992004,-0.8566351532936096
1733902270308140800,0.322140869140625,0.01920534297823906,-0.051778532564640045,-0.8271377086639404
1733902270318167800,0.332167724609375,-0.0035287330392748117,0.08563232421875,-0.8017715811729431
1733902270328193800,0.34219384765625,0.03311948850750923,-0.0783965215086937,-0.8028148412704468
1733902270338220500,0.352220458984375,0.14169229567050934,-0.43593549728393555,-0.8220683932304382
1733902270348246500,0.36224658203125,0.2766314148902893,-0.7232966423034668,-0.8640205264091492
1733902270358273800,0.372273681640625,0.4060125946998596,-0.8871862888336182,-0.9081946015357971
1733902270368299800,0.3822998046875,0.5111662745475769,-1.071999430656433,-0.9951915144920349
1733902270378326500,0.392326416015625,0.5611993670463562,-1.2528512477874756,-1.183868408203125
1733902270388352500,0.4023525390625,0.5406482219696045,-1.2586712837219238,-1.4143778085708618
1733902270398379500,0.412379638671875,0.44627830386161804,-1.3242076635360718,-1.5530537366867065
1733902270408406800,0.42240673828125,0.2879260182380676,-1.6771854162216187,-1.5717219114303589
1733902270418432800,0.432432861328125,0.14939555525779724,-2.227813959121704,-1.4912822246551514
1733902270428459500,0.44245947265625,0.05341105908155441,-2.8730478286743164,-1.3910484313964844
1733902270438485500,0.452485595703125,0.07492300868034363,-3.1673707962036133,-1.2728723287582397
1733902270448512500,0.462512451171875,0.249249666929245,-2.9576170444488525,-1.107556700706482
1733902270458538800,0.472538818359375,0.3267015814781189,-2.4098596572875977,-0.8561161756515503
1733902270468565800,0.482565673828125,0.15753191709518433,-1.9610580205917358,-0.69648277759552
1733902270478591700,0.492591796875,-0.18892669677734375,-1.8311452865600586,-0.7072163820266724
1733902270488618500,0.502618408203125,-0.5627118945121765,-2.1061038970947266,-0.8451274037361145
1733902270498644500,0.51264453125,-0.827933132648468,-2.3046374320983887,-1.0113781690597534
1733902270508671700,0.522671630859375,-0.8821984529495239,-2.4380545616149902,-1.1218534708023071
1733902270518698800,0.53269873046875,-0.7842079997062683,-2.646817684173584,-1.016526222229004
1733902270528724700,0.542724853515625,-0.6281989812850952,-2.5309832096099854,-0.7449981570243835
1733902270538751500,0.55275146484375,-0.49400046467781067,-2.1054866313934326,-0.43613192439079285
1733902270548777500,0.562777587890625,-0.22700537741184235,-1.441781759262085,-0.4565889835357666
1733902270558804700,0.5728046875,-0.2558777630329132,-1.6171767711639404,-0.5626075267791748
1733902270568830700,0.582830810546875,-0.4604209065437317,-1.6929994821548462,-0.778538167476654
1733902270578857700,0.592857666015625,-0.5865111947059631,-1.8871357440948486,-0.9099044799804688
1733902270588883700,0.6028837890625,-0.6495593786239624,-2.029705286026001,-0.9073643684387207
1733902270598910500,0.612910400390625,-0.7343075275421143,-2.066056728363037,-0.8049983382225037
1733902270608936400,0.6229365234375,-0.7902857065200806,-2.0473363399505615,-0.6003402471542358
1733902270618963700,0.632963623046875,-0.7287107110023499,-2.0446150302886963,-0.25261446833610535
1733902270628990700,0.64299072265625,-0.5786343812942505,-1.961938500404358,0.19528737664222717
1733902270639016700,0.6530166015625,-0.39024317264556885,-1.8545470237731934,0.6154382824897766
1733902270649043500,0.66304345703125,-0.23788803815841675,-1.7058188915252686,0.8417190313339233
1733902270659069700,0.673069580078125,-0.19892999529838562,-1.4304189682006836,0.7428134679794312
1733902270669096700,0.6830966796875,-0.186683788895607,-1.194014549255371,0.4511701464653015
1733902270679122700,0.693122802734375,-0.1454188972711563,-1.0333844423294067,0.21168217062950134
1733902270689149700,0.703149658203125,-0.15516985952854156,-0.9500423073768616,0.10327530652284622
1733902270699175700,0.71317578125,-0.13027623295783997,-0.9941133260726929,0.13518451154232025
1733902270709202700,0.72320263671875,-0.11520840227603912,-1.1070493459701538,0.24620461463928223
1733902270719228700,0.733228759765625,-0.14805476367473602,-1.209452748298645,0.34487923979759216
1733902270729255700,0.743255615234375,-0.17937737703323364,-1.2531744241714478,0.37619560956954956
1733902270739282700,0.75328271484375,-0.21682435274124146,-1.281775712966919,0.37533116340637207
1733902270749308700,0.76330859375,-0.23602449893951416,-1.4494792222976685,0.40552714467048645
1733902270759335700,0.773335693359375,-0.25769466161727905,-1.4945353269577026,0.46526768803596497
1733902270769361700,0.783361572265625,-0.3028160631656647,-1.4118702411651611,0.5206866264343262
1733902270779388700,0.793388671875,-0.2896512448787689,-1.269018530845642,0.4865312874317169
1733902270789414700,0.80341455078125,-0.2237710952758789,-0.9831500053405762,0.3527849316596985
1733902270799441700,0.813441650390625,-0.049124184995889664,-0.6864358186721802,0.21240438520908356
1733902270809467600,0.823467529296875,0.15459197759628296,-0.3952329754829407,0.14276792109012604
1733902270819494700,0.83349462890625,0.30781909823417664,-0.24872717261314392,0.18781448900699615
1733902270829520600,0.843520751953125,0.351283460855484,-0.22397203743457794,0.3052632212638855
1733902270839547600,0.853547607421875,0.39302000403404236,-0.35070866346359253,0.39386579394340515
1733902270849574700,0.86357470703125,0.3064573407173157,-0.450385183095932,0.34588027000427246
1733902270859601000,0.873600830078125,0.17953242361545563,-0.6481791734695435,0.20445124804973602
1733902270869627600,0.883627685546875,0.07308454811573029,-0.7786776423454285,0.10513963550329208
1733902270879653600,0.893653564453125,0.010452857241034508,-0.8517777323722839,0.09460550546646118
1733902270889680600,0.9036806640625,-0.06384460628032684,-0.8915433287620544,0.07236868888139725
1733902270899706600,0.91370654296875,-0.005830575246363878,-0.9594499468803406,0.006856524385511875
1733902270909734000,0.92373388671875,-0.059781819581985474,-0.7337415218353271,-0.12138435989618301
1733902270919759000,0.933759033203125,-0.09282366186380386,-0.41476568579673767,-0.2741914689540863
1733902270929785900,0.943785888671875,-0.14224214851856232,-0.03191947564482689,-0.4077422320842743
1733902270939811800,0.953811767578125,-0.1253715455532074,0.136967271566391,-0.5152151584625244
1733902270949838800,0.9638388671875,-0.02721095085144043,-0.04933185875415802,-0.6793028712272644
1733902270959866000,0.9738662109375,0.12498310208320618,-0.4272274971008301,-0.8779104948043823
1733902270969892000,0.98389208984375,0.23105840384960175,-0.8866264820098877,-1.061428189277649
1733902270979918800,0.9939189453125,0.3875041902065277,-1.0579047203063965,-1.252389907836914
1733902270989944800,1.00394482421875,0.46487414836883545,-0.9559769630432129,-1.4233086109161377
1733902270999971800,1.013971923828125,0.4972073435783386,-0.970596432685852,-1.5334502458572388
1733902271009997800,1.023997802734375,0.59173983335495,-1.2517311573028564,-1.5731319189071655
1733902271020025000,1.034025146484375,0.7183763384819031,-1.4726581573486328,-1.5745460987091064
1733902271030051000,1.044051025390625,0.8238927721977234,-1.6572182178497314,-1.5535836219787598
1733902271040077800,1.054077880859375,0.8325677514076233,-1.913920283317566,-1.4876115322113037
1733902271050103800,1.064103759765625,0.7373858094215393,-2.1807007789611816,-1.3678640127182007
1733902271060131000,1.074131103515625,0.5421255230903625,-2.354499340057373,-1.2223957777023315
1733902271070157000,1.084156982421875,0.29543161392211914,-2.6844751834869385,-1.0073827505111694
1733902271080184000,1.09418408203125,0.11427726596593857,-3.239478826522827,-0.6436697244644165
1733902271090210800,1.1042109375,-0.03661498799920082,-3.9213078022003174,-0.09337763488292694
1733902271100236800,1.11423681640625,-0.35416921973228455,-4.156124114990234,0.47014060616493225
1733902271110264000,1.12426416015625,-0.7324137687683105,-4.109214782714844,1.0237690210342407
1733902271120290000,1.1342900390625,-1.0531387329101562,-4.097878932952881,1.571913242340088
1733902271130317000,1.144317138671875,-1.3387529850006104,-4.145151138305664,2.092606782913208
1733902271140343000,1.154343017578125,-1.5936492681503296,-4.111255645751953,2.537069797515869
1733902271150369800,1.164369873046875,-1.7813102006912231,-3.9880058765411377,2.8576912879943848
1733902271160395800,1.174395751953125,-1.8434077501296997,-3.6732561588287354,3.06256103515625
1733902271170423000,1.184423095703125,-1.8109116554260254,-3.5167360305786133,3.2099382877349854
1733902271180449000,1.194448974609375,-1.7437925338745117,-3.5229761600494385,3.3100321292877197
1733902271190476000,1.20447607421875,-1.6388310194015503,-3.5229015350341797,3.370379686355591
1733902271200502800,1.214502685546875,-1.48045814037323,-3.5373103618621826,3.4447813034057617
1733902271210528800,1.22452880859375,0.36381617188453674,-2.1844868659973145,4.585562705993652
1733902271220556000,1.23455615234375,1.5139118432998657,-1.3869708776474,5.3074188232421875
1733902271230582000,1.24458203125,1.962721347808838,-1.444940447807312,4.698274612426758
1733902271240609000,1.254609130859375,2.1838581562042236,-1.3976935148239136,3.3703250885009766
1733902271250635000,1.264635009765625,2.1440775394439697,-0.617385745048523,2.4726130962371826
1733902271260661800,1.274661865234375,1.8245582580566406,0.06794571131467819,2.1174097061157227
1733902271270688000,1.28468798828125,1.3323533535003662,0.09288385510444641,2.177198886871338
1733902271280715000,1.294715087890625,0.7573739290237427,-0.5206512212753296,2.673905611038208
1733902271290741000,1.304740966796875,0.08914487063884735,-1.242647409439087,3.4728384017944336
1733902271300768000,1.31476806640625,-0.7127726078033447,-2.15995192527771,4.055008411407471
1733902271310794000,1.3247939453125,-1.842353343963623,-3.4134669303894043,4.457734107971191
1733902271320821000,1.334821044921875,-3.0672361850738525,-4.814613342285156,4.612567901611328
1733902271330848000,1.344847900390625,-3.997342348098755,-6.118446350097656,4.515308380126953
1733902271340874000,1.3548740234375,-4.742504596710205,-6.535759449005127,4.358692169189453
1733902271350901000,1.36490087890625,-4.9304633140563965,-6.153863430023193,4.000386714935303
1733902271360927000,1.374927001953125,-4.320819854736328,-4.960928440093994,3.378081798553467
1733902271370954000,1.3849541015625,-3.0103695392608643,-3.561354160308838,2.5431365966796875
1733902271380980000,1.39497998046875,-1.3043839931488037,-1.8985283374786377,1.5043946504592896
1733902271391007000,1.405007080078125,0.3539120852947235,-0.057692937552928925,0.41179749369621277
1733902271401033000,1.415032958984375,1.4829882383346558,1.3777596950531006,-0.5709637999534607
1733902271411060000,1.42506005859375,1.9581799507141113,2.0583701133728027,-1.3471107482910156
1733902271421086000,1.4350859375,1.9982613325119019,2.239314079284668,-1.6944324970245361
1733902271431113000,1.445113037109375,1.6114461421966553,1.99160635471344,-1.579568862915039
1733902271441139000,1.455138916015625,1.0366497039794922,1.545916199684143,-1.1197762489318848
1733902271451166000,1.465166015625,0.48116597533226013,0.9494845867156982,-0.5176984071731567
1733902271461193000,1.47519287109375,0.01674477569758892,0.592639684677124,0.186341792345047
1733902271471219000,1.485218994140625,-0.2951492667198181,0.2990892827510834,0.6868520379066467
1733902271481246000,1.495245849609375,-0.461185097694397,0.10063238441944122,0.7315300107002258
1733902271491272000,1.50527197265625,-0.4448302984237671,0.10507304221391678,0.34815725684165955
1733902271501299000,1.515298828125,-0.21167294681072235,-0.1171128898859024,0.17416976392269135
1733902271511325000,1.525324951171875,-0.026232510805130005,0.0019614254124462605,0.2213362753391266
1733902271521352000,1.53535205078125,0.030908804386854172,0.39065617322921753,0.3903692662715912
1733902271531378000,1.5453779296875,0.0516333244740963,0.4791966676712036,0.6919341683387756
1733902271541405000,1.555405029296875,0.12114369124174118,0.30472925305366516,0.9172714352607727
1733902271551431000,1.565430908203125,0.2601994574069977,0.23629887402057648,1.0886508226394653
1733902271561458000,1.5754580078125,0.43880167603492737,0.3000812828540802,1.2499291896820068
1733902271571485000,1.58548486328125,0.6883723735809326,0.44197091460227966,1.3610526323318481
1733902271581511000,1.595510986328125,1.0216864347457886,0.6641972661018372,1.3408071994781494
1733902271591538000,1.605537841796875,1.3527109622955322,1.0864791870117188,1.1495754718780518
1733902271601564000,1.61556396484375,1.5521702766418457,1.3214409351348877,0.9055241942405701
1733902271611591000,1.6255908203125,1.5673936605453491,1.3945457935333252,0.7561787366867065
1733902271621617000,1.635616943359375,1.437067985534668,1.482335090637207,0.6903342008590698
1733902271631644000,1.645643798828125,1.2233916521072388,1.5277280807495117,0.6806614995002747
1733902271641670000,1.655669921875,1.0700327157974243,1.549945592880249,0.7060043811798096
1733902271651697000,1.66569677734375,1.0735870599746704,1.6292790174484253,0.8377005457878113
1733902271661723000,1.675722900390625,1.0315213203430176,1.4298343658447266,1.0523353815078735
1733902271671750100,1.685750244140625,0.6602244973182678,1.239988923072815,1.3986088037490845
1733902271681776000,1.695776123046875,0.15366435050964355,1.2567239999771118,1.8052228689193726
1733902271691803000,1.705802978515625,-0.23470662534236908,0.9898282289505005,2.3103110790252686
1733902271701830000,1.715829833984375,-0.4100627303123474,0.6694552898406982,2.7572226524353027
1733902271711855900,1.72585595703125,-0.4377279579639435,-0.14497606456279755,2.688829183578491
1733902271721883100,1.735883056640625,-0.5254802107810974,-0.5344148874282837,1.9459929466247559
1733902271731909000,1.7459091796875,-0.7235167622566223,-0.5139314532279968,1.254692792892456
1733902271741935900,1.755935791015625,-0.9313722252845764,-0.4768880009651184,1.1415859460830688
1733902271751961900,1.7659619140625,-1.3069562911987305,-0.7392607927322388,1.723589539527893
1733902271761988900,1.77598876953125,-1.8537036180496216,-1.5162217617034912,2.6126952171325684
1733902271772014800,1.786014892578125,-2.697709560394287,-1.2744379043579102,3.62896990776062
1733902271782042000,1.7960419921875,-3.5282039642333984,0.47910794615745544,5.944458961486816
1733902271792068900,1.80606884765625,-4.005998611450195,-1.7075775861740112,8.094656944274902
1733902271802094800,1.8160947265625,-3.9726603031158447,-1.7462522983551025,8.45306396484375
1733902271812121900,1.826121826171875,-3.558351755142212,-2.6280064582824707,7.855844974517822
1733902271822147800,1.83614794921875,-3.1545827388763428,-3.2112672328948975,6.813825607299805
1733902271832175000,1.846175048828125,-2.645927906036377,-2.916182518005371,5.773955345153809
1733902271842201000,1.856201171875,-1.978385090827942,-2.428718090057373,4.923521518707275
1733902271852227800,1.866227783203125,-1.3881807327270508,-1.7258636951446533,4.270035266876221
1733902271862253800,1.87625390625,-0.9307260513305664,-1.2090091705322266,3.880199909210205
1733902271872281000,1.886281005859375,-0.8466585874557495,-1.0471962690353394,3.7407889366149902
1733902271882308000,1.89630810546875,-1.1297190189361572,-0.9137263298034668,3.7918314933776855
1733902271892334000,1.906333984375,-1.5776423215866089,-0.7240447402000427,3.927896499633789
1733902271902360800,1.91636083984375,-1.9879387617111206,-0.7288674712181091,4.051070213317871
1733902271912386800,1.92638671875,-2.430966377258301,-1.0731011629104614,4.18522310256958
1733902271922414600,1.93641455078125,-3.0816903114318848,-1.7056474685668945,4.406087398529053
1733902271932440600,1.946440673828125,-3.863954544067383,-2.5928783416748047,4.940457344055176
1733902271942467600,1.956467529296875,-3.8993258476257324,-2.7058990001678467,5.533283233642578
1733902271952493600,1.96649365234375,-3.035104751586914,-2.348296642303467,6.039989471435547
1733902271962520600,1.9765205078125,-1.7428585290908813,-2.1135687828063965,6.115362167358398
1733902271972547600,1.986547607421875,-0.48108145594596863,-1.985965371131897,5.559305667877197
1733902271982573600,1.996573486328125,0.5223789811134338,-1.630069613456726,4.185705661773682
1733902271992600600,2.0066005859375,1.160712718963623,-1.163883924484253,2.081413745880127
1733902272002626600,2.01662646484375,1.1489399671554565,-1.0088839530944824,-0.05472089722752571
1733902272012653600,2.026653564453125,0.6045184135437012,-0.6566178798675537,-2.015552282333374
1733902272022680600,2.0366806640625,-0.037923410534858704,-0.43486201763153076,-3.1506123542785645
1733902272032706600,2.04670654296875,-0.5920527577400208,-0.22909164428710938,-3.4950318336486816
1733902272042733600,2.056733642578125,-0.9413801431655884,-0.05626581236720085,-3.2393829822540283
1733902272052759600,2.066759521484375,-1.0678160190582275,-0.006084892898797989,-2.6611008644104004
1733902272062786600,2.07678662109375,-1.0337508916854858,-0.04647066444158554,-1.9955781698226929
1733902272072812500,2.0868125,-0.9329401254653931,-0.29695838689804077,-1.395182728767395
1733902272082839600,2.096839599609375,-0.8460617065429688,-0.7036808729171753,-0.9221389889717102
1733902272092866600,2.106866455078125,-0.8483186960220337,-1.634768009185791,-0.5438181757926941
1733902272102892500,2.116892578125,-0.7926546335220337,-2.0117578506469727,-0.09289810806512833
1733902272112919600,2.12691943359375,-0.6039190888404846,-1.779212474822998,0.33187270164489746
1733902272122945500,2.136945556640625,-0.4146732687950134,-1.6309412717819214,0.44097521901130676
1733902272132972500,2.14697265625,-0.42818552255630493,-1.472718358039856,0.21860140562057495
1733902272142999600,2.15699951171875,-0.7317842841148376,-1.3744421005249023,-0.11827143281698227
1733902272153025500,2.167025634765625,-1.0829379558563232,-1.4430122375488281,-0.442886084318161
1733902272163052500,2.177052490234375,-1.3895093202590942,-0.8279586434364319,-0.7484982013702393
1733902272173078500,2.18707861328125,-1.4577383995056152,-0.5694066882133484,-0.7033504843711853
1733902272183105500,2.19710546875,-1.2943711280822754,-0.31345584988594055,-0.09960782527923584
1733902272193132500,2.207132568359375,-1.1915050745010376,-0.035938769578933716,0.1546323001384735
1733902272203158500,2.217158447265625,-1.1114853620529175,0.28550291061401367,0.2629142999649048
1733902272213185500,2.227185546875,-1.031227707862854,0.46014106273651123,0.12917274236679077
1733902272223211500,2.23721142578125,-0.9718050956726074,0.3863499164581299,-0.38244926929473877
1733902272233238800,2.24723876953125,-0.8303595185279846,0.1824394017457962,-0.9454954862594604
1733902272243264800,2.2572646484375,-0.8112002015113831,0.22405903041362762,-1.349299669265747
1733902272253291500,2.26729150390625,-0.620854914188385,0.21250790357589722,-1.4722743034362793
1733902272263318500,2.277318603515625,-0.37913206219673157,0.0471612848341465,-1.242098093032837
1733902272273344500,2.287344482421875,-0.23018065094947815,-0.0811503455042839,-0.6790358424186707
1733902272283371800,2.297371826171875,-0.013433430343866348,-0.09042613953351974,0.08858970552682877
1733902272293397800,2.307397705078125,0.170837864279747,-0.13462767004966736,0.6018608808517456
1733902272303424500,2.317424560546875,0.27220097184181213,-0.25032949447631836,0.7345472574234009
1733902272313451500,2.327451416015625,0.2570498585700989,-0.17781756818294525,0.578824520111084
1733902272323477500,2.3374775390625,0.15273411571979523,0.07144737988710403,0.33787211775779724
1733902272333504800,2.3475048828125,0.0462699756026268,0.19856712222099304,0.13545078039169312
1733902272343530800,2.35753076171875,-0.08877519518136978,0.03276510536670685,0.0003875081893056631
1733902272353557500,2.3675576171875,-0.21620747447013855,-0.23548337817192078,-0.0558822862803936
1733902272363584500,2.37758447265625,-0.3554535210132599,-0.42477715015411377,-0.00497782789170742
1733902272373610500,2.387610595703125,-0.3535580337047577,-0.5008211135864258,-0.04779933765530586
1733902272383637800,2.3976376953125,-0.26355865597724915,-0.8153795599937439,-0.015728220343589783
1733902272393663700,2.407663818359375,-0.1173434928059578,-0.9291350841522217,0.05314324423670769
1733902272403690500,2.4176904296875,0.08893297612667084,-0.7226250767707825,0.08498159795999527
1733902272413717500,2.427717529296875,0.005959305912256241,-0.7818448543548584,-0.05290229991078377
1733902272423743500,2.437743408203125,-0.19629205763339996,0.3543238341808319,-0.17951084673404694
1733902272433770800,2.447770751953125,-0.33525416254997253,0.8638067841529846,0.041247785091400146
1733902272443796700,2.457796630859375,-0.5463594794273376,0.8113105297088623,0.40359270572662354
1733902272453823500,2.467823486328125,-0.7296020984649658,0.9236944913864136,0.829766035079956
1733902272463850500,2.4778505859375,-0.6596530675888062,0.761972188949585,1.2733166217803955
1733902272473876500,2.48787646484375,-0.6105747222900391,0.44110307097435,1.3658595085144043
1733902272483903700,2.49790380859375,-0.6277233958244324,0.20267292857170105,1.3332804441452026
1733902272493929700,2.5079296875,-0.6952126622200012,0.06516007333993912,1.265789270401001
1733902272503956500,2.51795654296875,-0.8270044922828674,-0.0014019111404195428,1.0704872608184814
1733902272513983500,2.5279833984375,-0.8396354913711548,-0.24192149937152863,0.8124924302101135
1733902272524009500,2.538009521484375,-0.7245848178863525,-0.5440872311592102,0.5564353466033936
1733902272534036700,2.54803662109375,-0.47051551938056946,-0.8871350884437561,0.2864799201488495
1733902272544062700,2.558062744140625,-0.21039794385433197,-1.1215159893035889,0.023000357672572136
1733902272554089500,2.56808935546875,-0.17589356005191803,-0.9665563106536865,-0.19022627174854279
1733902272564116500,2.578116455078125,0.052232272922992706,-1.7565529346466064,-0.23739005625247955
1733902272574142700,2.588142822265625,0.31743988394737244,-1.893190622329712,-0.2731649875640869
1733902272584169700,2.598169677734375,0.10957910120487213,-1.2088924646377563,-0.365431547164917
1733902272594196500,2.608196533203125,-0.14159400761127472,-0.8148271441459656,-0.2702126204967499
1733902272604222500,2.618222412109375,-0.4787012040615082,-0.7169938087463379,0.04364466294646263
1733902272614249500,2.62824951171875,-0.7349686622619629,-0.5351687073707581,0.5311906933784485
1733902272624275700,2.638275634765625,-0.8638995289802551,-0.3984239399433136,0.9864412546157837
1733902272634302700,2.648302734375,-0.9316495060920715,-0.5116729736328125,1.398970365524292
1733902272644329500,2.65832958984375,-0.9468782544136047,-0.599802553653717,1.6224173307418823
1733902272654355500,2.66835546875,-1.0293922424316406,-0.7017096877098083,1.624970555305481
1733902272664382700,2.6783828125,-1.2310892343521118,-0.6082971692085266,1.4832462072372437
1733902272674408700,2.68840869140625,-1.364513635635376,-0.6600531935691833,1.3436992168426514
1733902272684435700,2.698435791015625,-1.2986997365951538,-1.165614366531372,1.3249365091323853
1733902272694462500,2.70846240234375,-1.1883232593536377,-1.8933110237121582,1.23384428024292
1733902272704488400,2.718488525390625,-1.1767618656158447,-2.3299405574798584,1.0409741401672363
1733902272714515700,2.728515625,-1.2188929319381714,-2.205195426940918,0.9034813642501831
1733902272724541700,2.738541748046875,-1.2281231880187988,-1.7085384130477905,0.7407406568527222
1733902272734568700,2.748568603515625,-1.539086103439331,-4.604008674621582,1.5750858783721924
1733902272744595500,2.758595458984375,-0.5733099579811096,-6.264616012573242,1.421888828277588
1733902272754621400,2.768621337890625,-0.6600473523139954,-4.881057262420654,1.1441051959991455
1733902272764648700,2.778648681640625,-0.8919407725334167,-5.519421577453613,1.1650153398513794
1733902272774674700,2.7886748046875,-0.8731770515441895,-4.571998596191406,0.5493198037147522
1733902272784701700,2.79870166015625,-0.585329532623291,-1.8593443632125854,-0.16014473140239716
1733902272794728400,2.808728515625,-0.46811428666114807,-0.49215763807296753,-0.214491605758667
1733902272804754400,2.81875439453125,-0.5667244791984558,-0.8089315891265869,0.05676544830203056
1733902272814781700,2.82878173828125,-0.6248039603233337,-0.9013577103614807,0.29673436284065247
1733902272824808700,2.83880859375,-0.5724534392356873,-0.7222499847412109,0.48266109824180603
1733902272834834700,2.848834716796875,-0.4165087342262268,-0.5621696710586548,0.4337606132030487
1733902272844861400,2.858861328125,-0.08110354840755463,-0.5537663698196411,0.1482183337211609
1733902272854887400,2.868887451171875,0.3893820643424988,-0.6731032729148865,-0.46636641025543213
1733902272864914700,2.878914794921875,0.8557057976722717,-0.6881605386734009,-1.2552878856658936
1733902272874941700,2.888941650390625,1.2217687368392944,-0.7783862352371216,-1.7779682874679565
1733902272884967700,2.8989677734375,1.4245586395263672,-0.9760546088218689,-2.084949016571045
1733902272894994400,2.908994384765625,1.5946604013442993,-0.9571895599365234,-2.346606731414795
1733902272905020400,2.9190205078125,1.803816795349121,-1.0845117568969727,-2.513782501220703
1733902272915048000,2.9290478515625,2.00254487991333,-1.4096657037734985,-2.569352626800537
1733902272925074700,2.93907470703125,2.150546073913574,-1.8136920928955078,-2.543156385421753
1733902272935100700,2.9491005859375,2.2891650199890137,-2.2007839679718018,-2.434048891067505
1733902272945127700,2.959127685546875,2.642355442047119,-2.6225368976593018,-2.2868282794952393
1733902272955153700,2.969153564453125,3.39620304107666,-3.3223204612731934,-2.398268699645996
1733902272965181000,2.979180908203125,3.7403316497802734,-4.231288909912109,-2.141169548034668
1733902272975207700,2.989207763671875,3.4035894870758057,-3.7567296028137207,-1.7326184511184692
1733902272985233700,2.999233642578125,2.8748607635498047,-2.5593557357788086,-1.0104072093963623
1733902272995260700,3.0092607421875,1.9850622415542603,-1.2738174200057983,-0.20560936629772186
1733902273005288000,3.019287841796875,0.9285913109779358,-0.27260470390319824,0.4600416123867035
1733902273015314000,3.02931396484375,0.17746709287166595,0.37899208068847656,0.9572097659111023
1733902273025340700,3.039340576171875,-0.20927876234054565,0.9955388903617859,1.3323642015457153
1733902273035366700,3.04936669921875,-0.2802167534828186,1.6547149419784546,1.550706148147583
1733902273045393700,3.0593935546875,-0.059577859938144684,2.105193853378296,1.5977658033370972
1733902273055421000,3.0694208984375,0.27340590953826904,2.120371103286743,1.4129337072372437
1733902273065447000,3.079447021484375,0.33644533157348633,1.964038610458374,1.1192631721496582
1733902273075473700,3.0894736328125,0.1036631390452385,1.668473243713379,0.7573079466819763
1733902273085499600,3.099499755859375,-0.23842309415340424,1.2909715175628662,0.4017926752567291
1733902273095526700,3.109526611328125,-0.48632997274398804,0.9285178184509277,0.0831294059753418
1733902273105554000,3.119553955078125,-0.5845188498497009,0.682902455329895,-0.08253918588161469
1733902273115580000,3.129579833984375,-0.5587323904037476,0.5369585156440735,-0.08261186629533768
1733902273125606700,3.139606689453125,-0.49217888712882996,0.46805083751678467,-0.041979484260082245
1733902273135633700,3.149633544921875,-0.44894200563430786,0.39703354239463806,-0.0068368688225746155
1733902273145659600,3.15965966796875,-0.4597696363925934,0.36914998292922974,0.03700994700193405
1733902273155687000,3.16968701171875,-0.493928998708725,0.38354814052581787,0.044152241200208664
1733902273165713000,3.179712890625,-0.5410851240158081,0.271013081073761,-0.014091890305280685
1733902273175739600,3.18973974609375,-0.5560790300369263,0.08899563550949097,-0.051906902343034744
1733902273185766700,3.1997666015625,-0.5146112442016602,-0.05720764771103859,-0.036688800901174545
1733902273195792600,3.209792724609375,-0.40801194310188293,-0.12177975475788116,0.06119473651051521
1733902273205820000,3.21981982421875,-0.2414296269416809,-0.14259395003318787,0.17214761674404144
1733902273215846000,3.229845947265625,-0.0479544922709465,-0.101324662566185,0.25945621728897095
1733902273225872600,3.23987255859375,0.10673228651285172,-0.03656803444027901,0.3313932716846466
1733902273235899600,3.249899658203125,0.20691855251789093,-0.010912612080574036,0.37193435430526733
1733902273245926000,3.25992578125,0.24660977721214294,0.012087511830031872,0.36971622705459595
1733902273255953000,3.269952880859375,0.24638770520687103,0.01511338073760271,0.32463860511779785
1733902273265979000,3.279978759765625,0.2289714366197586,0.008676787838339806,0.25749099254608154
1733902273276005600,3.290005615234375,0.20583374798297882,0.010271023958921432,0.1861588954925537
1733902273286032600,3.30003271484375,0.19530972838401794,0.04602023586630821,0.14087210595607758
1733902273296059000,3.310058837890625,0.17664681375026703,0.04283789545297623,0.11580238491296768
1733902273306086000,3.3200859375,0.14172691106796265,-0.06759220361709595,0.06989428400993347
1733902273316112000,3.33011181640625,0.08562768995761871,-0.18992078304290771,0.0009942837059497833
1733902273326138600,3.340138671875,0.04475988820195198,-0.3021860420703888,-0.08735714852809906
1733902273336166000,3.350165771484375,0.027029354125261307,-0.40239417552948,-0.1698906123638153
1733902273346192000,3.36019189453125,0.044711146503686905,-0.429145872592926,-0.20186665654182434
1733902273356219000,3.370218994140625,0.08221545815467834,-0.34534743428230286,-0.18651099503040314
1733902273366245600,3.38024560546875,0.14499709010124207,-0.21767708659172058,-0.16200031340122223
1733902273376271600,3.390271728515625,0.29134416580200195,-0.05840820074081421,-0.14152918756008148
1733902273386299000,3.400298828125,0.39132484793663025,0.04039081186056137,-0.10910548269748688
1733902273396324900,3.410324951171875,0.43004217743873596,0.09600838273763657,-0.07621844112873077
1733902273406352000,3.420351806640625,0.3912369906902313,0.08611207455396652,-0.05723170191049576
1733902273416378600,3.430378662109375,0.3144068121910095,0.028631122782826424,-0.04786238074302673
1733902273426404600,3.440404541015625,0.2433140128850937,-0.034599244594573975,-0.032700471580028534
1733902273436432000,3.450431884765625,0.18420487642288208,-0.08381420373916626,-0.02208535000681877
1733902273446457900,3.460457763671875,0.1375228464603424,-0.11995410174131393,-0.015657277777791023
1733902273456484900,3.47048486328125,0.10157406330108643,-0.14070843160152435,-0.010424323379993439
1733902273466511600,3.48051171875,0.08354446291923523,-0.13426198065280914,-0.0004648998146876693
1733902273476537600,3.49053759765625,0.08382664620876312,-0.1195443868637085,0.008635472506284714
1733902273486564900,3.50056494140625,0.1082768589258194,-0.094690702855587,0.01504570059478283
1733902273496590800,3.5105908203125,0.13830935955047607,-0.07997994124889374,0.016069281846284866
1733902273506617900,3.520617919921875,0.16213852167129517,-0.08284497261047363,0.01516407448798418
1733902273516644600,3.53064453125,0.17237317562103271,-0.11183182150125504,0.009431745857000351
1733902273526670600,3.540670654296875,0.16241933405399323,-0.13591478765010834,0.0031179238576442003
1733902273536697900,3.55069775390625,0.1514935940504074,-0.15080350637435913,-0.005891410168260336
1733902273546723800,3.560723876953125,0.16912852227687836,-0.15171031653881073,-0.015824202448129654
1733902273556750800,3.570750732421875,0.19317440688610077,-0.14371708035469055,-0.021122314035892487
1733902273566777600,3.580777587890625,0.20807985961437225,-0.13664478063583374,-0.02107277885079384
1733902273576803600,3.590803466796875,0.21876008808612823,-0.12761448323726654,-0.016727041453123093
1733902273586830800,3.600830810546875,0.22375644743442535,-0.12602165341377258,-0.009482977911829948
1733902273596856800,3.61085693359375,0.2201356440782547,-0.13979114592075348,-0.0013619805686175823
1733902273606883800,3.6208837890625,0.21153657138347626,-0.1587587147951126,0.005945201031863689
1733902273616910600,3.63091064453125,0.2010704129934311,-0.17205923795700073,0.011132562533020973
1733902273626936600,3.6409365234375,0.1913200467824936,-0.17757144570350647,0.016036774963140488
1733902273636963800,3.6509638671875,0.18425534665584564,-0.17717377841472626,0.023855915293097496
1733902273646989800,3.66098974609375,0.17562484741210938,-0.16874966025352478,0.03207869082689285
1733902273657016800,3.671016845703125,0.16883228719234467,-0.1636766791343689,0.04126053676009178
1733902273667043600,3.681043701171875,0.16287027299404144,-0.15772131085395813,0.04455113783478737
1733902273677069800,3.69106982421875,0.16704373061656952,-0.14534732699394226,0.04610513150691986
1733902273687096800,3.701096923828125,0.16144363582134247,-0.13938824832439423,0.04111836105585098
1733902273697122800,3.711122802734375,0.14807690680027008,-0.12956780195236206,0.03504076600074768
1733902273707149800,3.72114990234375,0.13407719135284424,-0.11456383019685745,0.02818712219595909
1733902273717176600,3.731176513671875,0.11524415016174316,-0.09882456064224243,0.02869327738881111
1733902273727202800,3.741202880859375,0.10039330273866653,-0.08494416624307632,0.02357042022049427
1733902273737229800,3.751229736328125,0.08473218977451324,-0.07653104513883591,0.01225375011563301
1733902273747255800,3.761255859375,0.06714387983083725,-0.07557497173547745,-0.0019491540733724833
1733902273757282800,3.77128271484375,0.05225108936429024,-0.07066096365451813,-0.0166374109685421
1733902273767309800,3.781309814453125,0.041348107159137726,-0.053273722529411316,-0.02145959809422493
1733902273777335800,3.791335693359375,0.032571941614151,-0.026538128033280373,-0.015790436416864395
1733902273787362800,3.80136279296875,0.02052859216928482,-0.004033884033560753,-0.007391626015305519
1733902273797388800,3.811388916015625,0.0127883804962039,0.00982014648616314,-0.0011230771197006106
1733902273807415800,3.821415771484375,0.008549160324037075,0.011762123554944992,-0.0007758009014651179
1733902273817442800,3.83144287109375,0.006925500929355621,0.010011991485953331,-0.004003469366580248
1733902273827468800,3.84146875,0.006156380288302898,0.006589564029127359,-0.007839219644665718
1733902273837495800,3.851495849609375,0.002810035366564989,0.011685829609632492,-0.00654800096526742
1733902273847521800,3.861521728515625,0.0027370648458600044,0.021030327305197716,-0.00378816737793386
1733902273857548800,3.871548828125,0.0014685012865811586,0.026553643867373466,0.003519309451803565
1733902273867575800,3.881575927734375,-0.0037598165217787027,0.03005863167345524,0.009052826091647148
1733902273877601800,3.891601806640625,-0.018481405451893806,0.027490630745887756,0.020162414759397507
1733902273887628800,3.90162890625,-0.026125211268663406,0.025657575577497482,0.02054697275161743
1733902273897654800,3.91165478515625,-0.0225019920617342,0.02717597782611847,0.01844623312354088
1733902273907681800,3.921681884765625,-0.016584714874625206,0.024935195222496986,0.022514743730425835
1733902273917708300,3.931708251953125,-0.011173320934176445,0.023705553263425827,0.029344454407691956
1733902273927734300,3.941734375,-0.004167077597230673,0.019955556839704514,0.02895829640328884
1733902273937761500,3.951761474609375,0.008498662151396275,0.014494873583316803,0.018505988642573357
1733902273947787500,3.96178759765625,0.021364659070968628,0.010112907737493515,0.007843757048249245
1733902273957814500,3.971814453125,0.030942406505346298,0.003562753554433584,0.000852473545819521
1733902273967841300,3.98184130859375,0.04131115600466728,-0.007559406105428934,-0.008745824918150902
1733902273977867300,3.9918671875,0.04255210980772972,-0.020878100767731667,-0.01427469588816166
1733902273987894500,4.00189453125,0.04030253738164902,-0.02565953880548477,-0.010752398520708084
1733902273997920500,4.01192041015625,0.034302618354558945,-0.024799033999443054,0.0019296924583613873
1733902274007947500,4.021947509765625,0.0289163775742054,-0.02242961898446083,0.01946287974715233
1733902274017974300,4.031974365234375,0.02459452860057354,-0.01790473982691765,0.026691148057579994
1733902274028000300,4.042000244140625,0.017835959792137146,-0.012960847467184067,0.023765932768583298
1733902274038027500,4.052027587890625,0.020199978724122047,-0.01796742156147957,0.018861105665564537
1733902274048053500,4.062053466796875,0.02520379051566124,-0.013647508807480335,0.012224508449435234
1733902274058080500,4.07208056640625,0.024095110595226288,-0.0075579178519546986,0.014162201434373856
1733902274068106500,4.0821064453125,0.02590659260749817,-0.005277719348669052,0.019210223108530045
1733902274078133200,4.09213330078125,0.024136662483215332,-0.00822904147207737,0.022473150864243507
1733902274088160500,4.102160400390625,0.026240026578307152,-0.015680832788348198,0.02218366600573063
1733902274098186500,4.1121865234375,0.021874167025089264,-0.026564836502075195,0.019201291725039482
1733902274108213500,4.122213623046875,0.016845054924488068,-0.035114116966724396,0.015274194069206715
1733902274118239500,4.132239501953125,0.012004725635051727,-0.0370001494884491,0.007732235360890627
1733902274128266500,4.1422666015625,0.0076800184324383736,-0.02809773199260235,0.004240565001964569
1733902274138293500,4.15229345703125,0.0073257023468613625,-0.01783878169953823,0.0016641446854919195
1733902274148319500,4.162319580078125,0.007703605107963085,-0.006595714949071407,0.0027025111485272646
1733902274158346500,4.172346435546875,0.0064502740278840065,0.0073937620036304,0.0037382624577730894
1733902274168372500,4.18237255859375,0.007107275538146496,0.015225851908326149,0.0014689830131828785
1733902274178399500,4.1923994140625,0.007498946972191334,0.022295786067843437,-0.0025224448181688786
1733902274188426500,4.202426513671875,0.003333230037242174,0.02411179430782795,-0.004815693013370037
1733902274198452500,4.212452392578125,-0.0028114784508943558,0.020974192768335342,-0.007235665339976549
1733902274208479500,4.2224794921875,-0.005629635415971279,0.011472834274172783,-0.005431906320154667
1733902274218505500,4.23250537109375,-0.01160645391792059,-0.00040492217522114515,-0.006769576109945774
1733902274228532500,4.242532470703125,-0.012611531652510166,-0.007358968257904053,-0.006515510380268097
1733902274238559500,4.2525595703125,-0.014563212171196938,-0.0077579873614013195,-0.004373075440526009
1733902274248585500,4.26258544921875,-0.017626646906137466,-0.003483613720163703,-0.004191447980701923
1733902274258612500,4.272612548828125,-0.019986579194664955,0.005318320356309414,-0.0029594390653073788
1733902274268638500,4.282638427734375,-0.022289946675300598,0.012651335448026657,-0.004534432664513588
1733902274278665500,4.29266552734375,-0.024545133113861084,0.02106586843729019,-0.006756438873708248
1733902274288692500,4.3026923828125,-0.027506569400429726,0.02532452903687954,-0.007023819722235203
1733902274298718500,4.312718505859375,-0.02567627839744091,0.0263482965528965,-0.005483727902173996
1733902274308745500,4.322745361328125,-0.023316185921430588,0.023847589269280434,0.003321214811876416
1733902274318771500,4.332771484375,-0.021745096892118454,0.01779830828309059,0.005547832697629929
1733902274328798500,4.342798583984375,-0.019453713670372963,0.006482536904513836,0.004214387387037277
1733902274338824400,4.352824462890625,-0.013944372534751892,-0.002567446790635586,-0.0015569315291941166
1733902274348851500,4.3628515625,-0.012523576617240906,0.001379624241963029,-0.005620382726192474
1733902274358878500,4.37287841796875,-0.008916404098272324,0.007234623655676842,-0.005877792835235596
1733902274368904400,4.382904541015625,-0.0065903994254767895,0.01600760780274868,-0.0025208783335983753
1733902274378931500,4.392931396484375,-0.0050013065338134766,0.02368311397731304,-0.00036347273271530867
1733902274388957400,4.40295751953125,-0.00019802944734692574,0.021656448021531105,0.0006615780293941498
1733902274398984400,4.412984375,0.0034237566869705915,0.01751462183892727,-0.0008767429972067475
1733902274409011500,4.423011474609375,0.00573990773409605,0.01691088266670704,-0.0011883327970281243
1733902274419037400,4.433037353515625,0.004534848500043154,0.01671326719224453,-0.0008233480621129274
1733902274429064400,4.443064453125,0.003710333723574877,0.017235247418284416,-0.004529403056949377
1733902274439090400,4.45309033203125,0.001985717099159956,0.017765462398529053,-0.0044377949088811874
1733902274449117400,4.463117431640625,-0.003547266125679016,0.01594572141766548,-0.00436402577906847
1733902274459144400,4.47314453125,-0.003895073663443327,0.013898680917918682,-0.002771498868241906
1733902274469170700,4.483170654296875,-0.005981127731502056,0.013994288630783558,0.0005550554487854242
1733902274479197400,4.493197509765625,-0.007111884653568268,0.012680274434387684,0.005158194340765476
1733902274489223400,4.503223388671875,-0.005478035658597946,0.007830126211047173,0.006839980371296406
1733902274499250400,4.51325048828125,-0.003428773256018758,0.00852949172258377,0.008146263659000397
1733902274509277400,4.52327734375,-0.00190065149217844,0.008657589554786682,0.008479425683617592
1733902274519303700,4.5333037109375,-0.004557114094495773,0.007985920645296574,0.006591508165001869
1733902274529330400,4.543330322265625,-0.008043725043535233,0.00519759114831686,0.0040252855978906155
1733902274539356400,4.5533564453125,-0.010600636713206768,0.002946825698018074,0.0002744239754974842
1733902274549383400,4.563383544921875,-0.009128441102802753,0.002435232512652874,0.0009655144531279802
1733902274559410700,4.57341064453125,-0.007722192909568548,0.0028165471740067005,0.002063438296318054
1733902274569436700,4.583436767578125,-0.007512602023780346,-0.0006383717991411686,0.001306567806750536
1733902274579463400,4.59346337890625,-0.0044519780203700066,-0.006706443149596453,-0.002227833727374673
1733902274589489400,4.603489501953125,-0.0036516976542770863,-0.008015653118491173,-0.006062519736588001
1733902274599516400,4.613516357421875,-0.0027168700471520424,-0.004872353747487068,-0.00868518278002739
1733902274609542400,4.62354248046875,-0.003524873172864318,-0.0020424784161150455,-0.009210891090333462
1733902274619569700,4.633569580078125,-0.0021653398871421814,0.002153470180928707,-0.009183792397379875
1733902274629596400,4.643596435546875,-0.003518225857988,0.0027870358899235725,-0.00800720788538456
1733902274639622400,4.653622314453125,-0.0047422144562006,-0.001730217831209302,-0.009643986821174622
1733902274649649400,4.6636494140625,-0.0051390258595347404,-0.0065215108916163445,-0.009491920471191406
1733902274659675400,4.67367529296875,-0.00634026899933815,-0.0070418138056993484,-0.01133592426776886
1733902274669702700,4.68370263671875,-0.006142929196357727,0.0009010639041662216,-0.012259774841368198
1733902274679729400,4.6937294921875,-0.008925577625632286,0.009621407836675644,-0.012281930074095726
1733902274689755400,4.70375537109375,-0.01087554357945919,0.01590646803379059,-0.012179665267467499
1733902274699782400,4.713782470703125,-0.011046101339161396,0.016282828524708748,-0.012825628742575645
1733902274709808400,4.723808349609375,-0.010911878198385239,0.010641454719007015,-0.012806453742086887
1733902274719835400,4.73383544921875,-0.011796187609434128,0.005100287031382322,-0.00641385605558753
1733902274729861400,4.743861328125,-0.008835552260279655,0.0018059569410979748,0.00036042695865035057
1733902274739888400,4.753888427734375,-0.01087510958313942,0.0031526382081210613,0.004558820277452469
1733902274749915400,4.763915283203125,-0.013699391856789589,0.004222429823130369,0.008742113597691059
1733902274759941400,4.77394140625,-0.016729645431041718,0.005228759720921516,0.005530905909836292
1733902274769968400,4.783968505859375,-0.016899289563298225,0.010969736613333225,0.0017303084023296833
1733902274779994400,4.793994384765625,-0.014505942352116108,0.014841990545392036,-0.003193874144926667
1733902274790021400,4.804021484375,-0.011379923671483994,0.017238302156329155,-0.006551321130245924
1733902274800048400,4.81404833984375,-0.009395070374011993,0.018934736028313637,-0.012153014540672302
1733902274810074600,4.82407470703125,-0.009347932413220406,0.018941128626465797,-0.01285502314567566
1733902274820101400,4.834101318359375,-0.013487040065228939,0.01679716259241104,-0.012033638544380665
1733902274830127400,4.84412744140625,-0.014949914999306202,0.013822411186993122,-0.013043775223195553
1733902274840154400,4.854154296875,-0.012321778573095798,0.00826113298535347,-0.009773665107786655
1733902274850180400,4.864180419921875,-0.0075627099722623825,0.004557475447654724,-0.01016461756080389
1733902274860207600,4.87420751953125,-0.002832412952557206,-0.00041797023732215166,-0.010945254936814308
1733902274870234400,4.884234375,0.0011586002074182034,0.00322736450470984,-0.009072787128388882
1733902274880260400,4.89426025390625,0.004968252032995224,0.011294612661004066,-0.0075289527885615826
1733902274890287400,4.904287353515625,0.00539808627218008,0.014827295206487179,0.00020939437672495842
1733902274900313300,4.914313232421875,0.005924179684370756,0.013741731643676758,0.00645853579044342
1733902274910340600,4.924340576171875,0.004603251814842224,0.00355460774153471,0.014936177060008049
1733902274920367400,4.934367431640625,0.005508245900273323,-0.009003954008221626,0.016609124839305878
1733902274930393300,4.944393310546875,0.007215864025056362,-0.022547459229826927,0.010751502588391304
1733902274940420400,4.95442041015625,0.007896003313362598,-0.026374006643891335,0.006440824829041958
1733902274950446300,4.9644462890625,0.008465653285384178,-0.022207757458090782,0.0031928333919495344
1733902274960473600,4.9744736328125,0.010561740025877953,-0.013397842645645142,0.0007251997012645006
1733902274970500400,4.984500244140625,0.012853655964136124,-0.008695765398442745,-0.0010005285730585456
1733902274980526300,4.9945263671875,0.013055168092250824,-0.002156994305551052,0.0014553354121744633
1733902274990553300,5.00455322265625,0.014454926364123821,0.0007855321746319532,0.00527217797935009
1733902275000579300,5.014579345703125,0.015828415751457214,-0.0011391837615519762,0.005787668749690056
1733902275010606600,5.024606689453125,0.01513839140534401,-0.00603114441037178,0.006508054211735725
1733902275020632600,5.034632568359375,0.015552502125501633,-0.009760763496160507,0.008244634605944157
1733902275030659300,5.044659423828125,0.011779336258769035,-0.012435909360647202,0.006021960638463497
1733902275040685300,5.054685302734375,0.012626491487026215,-0.01887649856507778,0.0069011808373034
1733902275050712300,5.06471240234375,0.010696765035390854,-0.02254473604261875,0.007154181133955717
1733902275060739600,5.074739501953125,0.012953919358551502,-0.025540458038449287,0.00672460300847888
1733902275070765600,5.084765625,0.013403194956481457,-0.02706564962863922,0.005648153368383646
1733902275080792300,5.094792236328125,0.01592075824737549,-0.023803580552339554,0.006752182729542255
1733902275090818300,5.104818359375,0.019761303439736366,-0.017866063863039017,0.006034727208316326
1733902275100845300,5.11484521484375,0.018966179341077805,-0.01255856454372406,0.0008248859085142612
1733902275110872600,5.12487255859375,0.016676926985383034,-0.005908651743084192,-0.003287833882495761
1733902275120898600,5.134898681640625,0.015203440561890602,-0.0010594568448141217,-0.009589074179530144
1733902275130925300,5.14492529296875,0.013425247743725777,0.005295644514262676,-0.011365402489900589
1733902275140951300,5.154951416015625,0.012672269716858864,0.005689977668225765,-0.012170025147497654
1733902275150978600,5.164978515625,0.011331368237733841,0.010390989482402802,-0.013844088651239872
1733902275161004500,5.175004638671875,0.010168958455324173,0.016242723912000656,-0.010526572354137897
1733902275171031600,5.185031494140625,0.006874895188957453,0.023834597319364548,-0.0077576832845807076
1733902275181058300,5.195058349609375,0.005627090577036142,0.027354685589671135,-0.0019897762686014175
1733902275191084300,5.205084228515625,0.003359941765666008,0.029420500621199608,0.002392455469816923
1733902275201111600,5.215111572265625,0.0035982532426714897,0.026362944394350052,0.00075738993473351
1733902275211137500,5.225137451171875,0.004215041175484657,0.020474161952733994,-0.0013976400950923562
1733902275221164500,5.23516455078125,0.005125970579683781,0.012673567049205303,-0.006173918955028057
1733902275231190500,5.2451904296875,0.0021078099962323904,0.009676978923380375,-0.005764857865869999
1733902275241217300,5.25521728515625,0.001813968876376748,0.008784067817032337,-0.007356111891567707
1733902275251244500,5.26524462890625,0.0005857187788933516,0.007857554592192173,-0.004785895347595215
1733902275261270500,5.2752705078125,0.0010923205409199,0.011912049725651741,-0.0026480925735086203
1733902275271297500,5.285297607421875,0.0006046958733350039,0.004807001911103725,0.0022084477823227644
1733902275281323500,5.295323486328125,-0.0006337857339531183,0.0011197782587260008,0.006030649412423372
1733902275291350300,5.305350341796875,0.002482112729921937,-0.005269145127385855,0.007490061689168215
1733902275301377500,5.31537744140625,0.004144767299294472,-0.01120322197675705,0.007693943567574024
1733902275311403500,5.325403564453125,0.004934661090373993,-0.010570988059043884,0.006698453798890114
1733902275321430500,5.335430419921875,0.009019957855343819,-0.00769464485347271,0.006003435235470533
1733902275331456500,5.34545654296875,0.010809069499373436,0.0008666191715747118,0.0014110805932432413
1733902275341483300,5.355483154296875,0.014488897286355495,0.00642749760299921,-0.002233555307611823
1733902275351509500,5.365509521484375,0.01629398763179779,0.010091474279761314,-0.007380380295217037
1733902275361536500,5.37553662109375,0.01821252703666687,0.011362601071596146,-0.0121495695784688
1733902275371563500,5.3855634765625,0.015077988617122173,0.010795613750815392,-0.011130111292004585
1733902275381589500,5.395589599609375,0.015349280089139938,0.00818296242505312,-0.010431780479848385
1733902275391616300,5.4056162109375,0.016047026962041855,0.0028427918441593647,-0.007803506217896938
1733902275401642500,5.415642578125,0.019239937886595726,-0.00009256659541279078,-0.00795169547200203
1733902275411669500,5.42566943359375,0.021169664338231087,-0.00016899930778890848,-0.007686710450798273
1733902275421695500,5.435695556640625,0.022464515641331673,-0.0006141585763543844,-0.00362146133556962
1733902275431722500,5.445722412109375,0.021014690399169922,0.0038133468478918076,-0.0013348711654543877
1733902275441749500,5.45574951171875,0.015525764785706997,-0.0032388935796916485,0.0012574163265526295
1733902275451775500,5.465775390625,0.011335546150803566,-0.011733045801520348,0.005182116758078337
1733902275461802500,5.475802490234375,0.012181457132101059,-0.01763412542641163,0.00922960601747036
1733902275471828500,5.485828369140625,0.015088031068444252,-0.020939374342560768,0.014756997115910053
1733902275481855500,5.49585546875,0.019757850095629692,-0.02002948895096779,0.015867184847593307
1733902275491881500,5.505881591796875,0.024841558188199997,-0.018394840881228447,0.015544941648840904
1733902275501908500,5.515908447265625,0.023154761642217636,-0.016035171225667,0.013585870154201984
1733902275511934500,5.5259345703125,0.021038614213466644,-0.014629821293056011,0.01100766472518444
1733902275521961500,5.53596142578125,0.018250655382871628,-0.008904875256121159,0.006935859099030495
1733902275531988500,5.545988525390625,0.018277287483215332,-0.006223072297871113,0.0047486042603850365
1733902275542014500,5.556014404296875,0.015479406341910362,-0.0012134152930229902,0.00011897995136678219
1733902275552041500,5.56604150390625,0.01708369515836239,0.0016175247728824615,-0.0018067517085000873
1733902275562067500,5.5760673828125,0.017194652929902077,0.005317499861121178,-0.001642199931666255
1733902275572094500,5.586094482421875,0.017839403823018074,0.0056264265440404415,-0.006036149337887764
1733902275582121500,5.59612158203125,0.01586291752755642,0.0044535137712955475,-0.006165431346744299
1733902275592147500,5.6061474609375,0.01481895986944437,0.004476150497794151,-0.007545215077698231
1733902275602174500,5.616174560546875,0.013205992057919502,0.0023361127823591232,-0.004401651676744223
1733902275612200400,5.626200439453125,0.010070119053125381,0.0012500756420195103,-0.002906286623328924
1733902275622227500,5.6362275390625,0.005318277981132269,0.003542906604707241,0.0008818774949759245
1733902275632253400,5.64625341796875,0.0037821666337549686,0.0037527638487517834,0.004930148832499981
1733902275642280400,5.656280517578125,0.0005293891299515963,0.002295610960572958,0.004137924872338772
1733902275652307500,5.666307373046875,0.0016053062863647938,-0.0002306634560227394,0.006301211193203926
1733902275662333400,5.67633349609375,-0.0015415457310155034,-0.004484500735998154,0.0038103393744677305
1733902275672360400,5.6863603515625,0.00013544689863920212,-0.007939419709146023,0.0022720976267009974
1733902275682386400,5.696386474609375,-0.0006558707682415843,-0.007677983492612839,-0.00040261715184897184
1733902275692413700,5.70641357421875,-0.000744287739507854,-0.0027167811058461666,-0.0039092013612389565
1733902275702439400,5.716439453125,0.0011081285774707794,0.0028924078214913607,-0.006527503952383995
1733902275712466400,5.726466552734375,0.0002844128757715225,0.010264570824801922,-0.008173337206244469
1733902275722492400,5.736492431640625,0.0004460858181118965,0.013335585594177246,-0.00589531846344471
1733902275732519400,5.74651953125,-0.0016367724165320396,0.015461054630577564,-0.004971467889845371
1733902275742546400,5.75654638671875,-0.0007994675543159246,0.017372535541653633,-0.004506412893533707
1733902275752572400,5.766572509765625,0.00012731249444186687,0.017315810546278954,-0.0019114288734272122
1733902275762599400,5.776599365234375,-0.0025136147160083055,0.015259917825460434,-0.001305992715060711
1733902275772625400,5.78662548828125,-0.0013082680525258183,0.008515462279319763,-0.004213365726172924
1733902275782652400,5.79665234375,-0.0021199919283390045,0.00015672785229980946,-0.005328364670276642
1733902275792678400,5.806678466796875,-0.005701943766325712,0.0008520791307091713,-0.002905420493334532
1733902275802705400,5.816705322265625,-0.00830044224858284,-0.0020495422650128603,0.0020307982340455055
1733902275812732400,5.826732421875,-0.008216286078095436,-0.004801386501640081,0.0033338828943669796
1733902275822758400,5.83675830078125,-0.005678955465555191,-0.006568995304405689,0.004770558327436447
1733902275832785400,5.846785400390625,-0.0025364255998283625,-0.004324483219534159,0.005867513827979565
1733902275842811400,5.856811279296875,0.00020227697677910328,0.00046286219730973244,0.00420515239238739
1733902275852838400,5.86683837890625,-0.0004355502314865589,0.004063455853611231,0.002927634632214904
1733902275862864400,5.876864501953125,-0.003859439631924033,0.006549715064466,0.0016034110449254513
1733902275872891400,5.886891357421875,-0.006149491760879755,0.0065369317308068275,-0.0021710870787501335
1733902275882918400,5.89691845703125,-0.01118384674191475,0.0021880795247852802,-0.0032864692620933056
1733902275892944600,5.906944580078125,-0.010221114382147789,-0.0012905413750559092,-0.003112298436462879
1733902275902971400,5.916971435546875,-0.009516442194581032,-0.00213742651976645,-0.00603911280632019
1733902275912997400,5.926997314453125,-0.005986954551190138,0.0013148291036486626,-0.005761611275374889
1733902275923024400,5.9370244140625,-0.007321944460272789,0.005151752848178148,-0.007955838926136494
1733902275933050400,5.94705029296875,-0.006706221494823694,0.011163306422531605,-0.00799312349408865
1733902275943077400,5.957077392578125,-0.007415533997118473,0.01722857728600502,-0.010835481807589531
1733902275953104400,5.9671044921875,-0.008075199089944363,0.021966075524687767,-0.013788128271698952
1733902275963130000,5.977130126953125,-0.00010131602175533772,0.025091638788580894,-0.017198871821165085
1733902275973157400,5.987157470703125,0.0060505857691168785,0.028956949710845947,-0.019412491470575333
1733902275983183400,5.997183349609375,0.01461686659604311,0.028282126411795616,-0.017878394573926926
1733902275993210400,6.00721044921875,0.019810562953352928,0.026306327432394028,-0.017052283510565758
1733902276003236400,6.017236328125,0.02493649534881115,0.024444570764899254,-0.015552690252661705
1733902276013263000,6.02726318359375,0.024973513558506966,0.017353106290102005,-0.018320247530937195
1733902276023290400,6.037290283203125,0.0217607282102108,0.0050291698426008224,-0.021284129470586777
1733902276033316400,6.04731640625,0.016124945133924484,-0.011191877536475658,-0.025143049657344818
1733902276043343400,6.05734326171875,0.016667919233441353,-0.022567812353372574,-0.029861770570278168
1733902276053369300,6.067369384765625,0.01863173581659794,-0.028515715152025223,-0.035328976809978485
1733902276063396000,6.07739599609375,0.026216331869363785,-0.018781956285238266,-0.03948826715350151
1733902276073422300,6.08742236328125,0.03431393951177597,-0.0065316809341311455,-0.040174830704927444
1733902276083449300,6.097449462890625,0.04367733746767044,0.003532009432092309,-0.03491142392158508
1733902276093475300,6.107475341796875,0.05476034805178642,0.006885728798806667,-0.03189273178577423
1733902276103502300,6.11750244140625,0.06449851393699646,0.006621117703616619,-0.028237858787178993
1733902276113529300,6.127529296875,0.0737958773970604,-0.0012477246345952153,-0.023386644199490547
1733902276123555300,6.137555419921875,0.08050547540187836,-0.012348724529147148,-0.019323259592056274
1733902276133582300,6.147582275390625,0.091067835688591,-0.022401627153158188,-0.016388189047574997
1733902276143608300,6.1576083984375,0.10225024074316025,-0.03097303956747055,-0.021929679438471794
1733902276153635300,6.16763525390625,0.11927929520606995,-0.030329620465636253,-0.03272560238838196
1733902276163662300,6.177662353515625,0.13315778970718384,-0.011040852405130863,-0.04523087665438652
1733902276173688300,6.187688232421875,0.1377141922712326,0.01928376406431198,-0.052707165479660034
1733902276183715300,6.19771533203125,0.13967639207839966,0.042845021933317184,-0.054457277059555054
1733902276193741300,6.2077412109375,0.13584835827350616,0.05186035484075546,-0.05688821151852608
1733902276203768300,6.217768310546875,0.13310003280639648,0.028315050527453423,-0.053767234086990356
1733902276213794300,6.227794189453125,0.13474160432815552,-0.025657104328274727,-0.049542661756277084
1733902276223821300,6.2378212890625,0.13928939402103424,-0.08566819131374359,-0.058317799121141434
1733902276233847300,6.247847412109375,0.15432240068912506,-0.13619928061962128,-0.0708402469754219
1733902276243874300,6.257874267578125,0.1747543215751648,-0.16586537659168243,-0.08626337349414825
1733902276253901300,6.2679013671875,0.1839371770620346,-0.173762708902359,-0.09392049908638
1733902276263927300,6.27792724609375,0.18486396968364716,-0.16462327539920807,-0.09830178320407867
1733902276273954300,6.287954345703125,0.18090838193893433,-0.15003980696201324,-0.0957866907119751
1733902276283980300,6.297980224609375,0.1901567578315735,-0.13560082018375397,-0.09195195883512497
1733902276294007300,6.30800732421875,0.18411004543304443,-0.1419154405593872,-0.09573604166507721
1733902276304033300,6.318033203125,0.17952954769134521,-0.16995885968208313,-0.11009669303894043
1733902276314060500,6.328060546875,0.17590871453285217,-0.21116141974925995,-0.13562308251857758
1733902276324087300,6.33808740234375,0.20979353785514832,-0.24159395694732666,-0.1656372994184494
1733902276334113300,6.34811328125,0.2886289656162262,-0.23748496174812317,-0.18429940938949585
1733902276344140300,6.358140380859375,0.28434571623802185,-0.2057775855064392,-0.1846139281988144
1733902276354166300,6.368166259765625,0.2264147698879242,-0.18800045549869537,-0.17364436388015747
1733902276364193500,6.378193603515625,0.14724954962730408,-0.1813889890909195,-0.16270634531974792
1733902276374219500,6.388219482421875,0.12570670247077942,-0.17532363533973694,-0.15828096866607666
1733902276384246300,6.398246337890625,0.13663369417190552,-0.16796652972698212,-0.14595815539360046
1733902276394273300,6.408273193359375,0.15010128915309906,-0.15838687121868134,-0.12293567508459091
1733902276404299300,6.41829931640625,0.1586935818195343,-0.1505584418773651,-0.0942264273762703
1733902276414326500,6.428326416015625,0.16726043820381165,-0.14335405826568604,-0.06295905262231827
1733902276424352500,6.4383525390625,0.17286831140518188,-0.13651907444000244,-0.02553483471274376
1733902276434379300,6.448379150390625,0.17045548558235168,-0.1377158910036087,0.011627715080976486
1733902276444405200,6.4584052734375,0.15878178179264069,-0.14087334275245667,0.042079344391822815
1733902276454432300,6.468432373046875,0.14261719584465027,-0.1478889137506485,0.06842467188835144
1733902276464459500,6.47845947265625,0.13177607953548431,-0.16060222685337067,0.09232783317565918
1733902276474485500,6.488485595703125,0.12667399644851685,-0.17342135310173035,0.11268370598554611
1733902276484512300,6.49851220703125,0.13229027390480042,-0.18746936321258545,0.12771889567375183
1733902276494538200,6.508538330078125,0.13662376999855042,-0.19724662601947784,0.14033056795597076
1733902276504565200,6.518565185546875,0.1253809779882431,-0.19039791822433472,0.14925675094127655
1733902276514591200,6.52859130859375,0.11297864466905594,-0.1763278990983963,0.15914933383464813
1733902276524618500,6.538618408203125,0.10241121053695679,-0.1546054184436798,0.16878058016300201
1733902276534644500,6.54864453125,0.09665532410144806,-0.13136161863803864,0.17425523698329926
1733902276544671200,6.558671142578125,0.0959363803267479,-0.11046969890594482,0.1766786128282547
1733902276554698200,6.5686982421875,0.09982991963624954,-0.08494383841753006,0.1748354434967041
1733902276564724500,6.578724365234375,0.10834920406341553,-0.0481904037296772,0.1717013120651245
1733902276574751500,6.58875146484375,0.1138816550374031,-0.004155303817242384,0.1732099950313568
1733902276584777500,6.598777587890625,0.12715063989162445,0.050969574600458145,0.17116278409957886
1733902276594804200,6.60880419921875,0.1344383805990219,0.09804573655128479,0.17368292808532715
1733902276604830200,6.618830322265625,0.1203128919005394,0.12469430267810822,0.16758620738983154
1733902276614857500,6.628857421875,0.09750451892614365,0.15186360478401184,0.15759588778018951
1733902276624884500,6.638884521484375,0.07607448101043701,0.17373526096343994,0.1476237177848816
1733902276634910500,6.648910400390625,0.055811818689107895,0.17696595191955566,0.13461950421333313
1733902276644937200,6.658937255859375,0.04089979827404022,0.16237591207027435,0.11437702924013138
1733902276654963200,6.668963134765625,0.03390127792954445,0.14774930477142334,0.10005640983581543
1733902276664990500,6.678990478515625,0.027511075139045715,0.13531938195228577,0.09068949520587921
1733902276675016400,6.689016357421875,0.020579932257533073,0.12508511543273926,0.08323077857494354
1733902276685043500,6.69904345703125,0.009321344085037708,0.11105374991893768,0.08336937427520752
1733902276695070200,6.7090703125,0.002980889519676566,0.0891449898481369,0.08221197128295898
1733902276705096200,6.71909619140625,-0.009726718068122864,0.06382089853286743,0.07757718861103058
1733902276715123500,6.72912353515625,-0.017694097012281418,0.04279976338148117,0.07534279674291611
1733902276725149400,6.7391494140625,-0.03055214136838913,0.032911330461502075,0.06602591276168823
1733902276735176400,6.749176513671875,-0.03769873455166817,0.025025181472301483,0.056456103920936584
1733902276745202200,6.7592021484375,-0.04040912538766861,0.018995031714439392,0.04062972217798233
1733902276755229200,6.769229248046875,-0.03880217298865318,0.008643324486911297,0.025800442323088646
1733902276765255200,6.779255126953125,-0.03098294325172901,-0.008507128804922104,0.00983517523854971
1733902276775282400,6.789282470703125,-0.020776377990841866,-0.021348625421524048,-0.004171454347670078
1733902276785309400,6.799309326171875,-0.010471966117620468,-0.02980927750468254,-0.01518241036683321
1733902276795335200,6.809335205078125,-0.0003168005496263504,-0.03549911826848984,-0.02038356475532055
1733902276805362200,6.819362060546875,0.007844414561986923,-0.032515693455934525,-0.02710891142487526
1733902276815388400,6.829388427734375,0.016595296561717987,-0.033654194325208664,-0.033930595964193344
1733902276825415400,6.83941552734375,0.023764852434396744,-0.03996351733803749,-0.03896288946270943
1733902276835441400,6.84944140625,0.02597501128911972,-0.044451210647821426,-0.044675637036561966
1733902276845468200,6.85946826171875,0.023870989680290222,-0.05252479016780853,-0.05122997611761093
1733902276855495200,6.8694951171875,0.02175138145685196,-0.056080907583236694,-0.049503181129693985
1733902276865521400,6.879521484375,0.015357855707406998,-0.05650165304541588,-0.0478774718940258
1733902276875548400,6.88954833984375,0.012157268822193146,-0.051360420882701874,-0.04665135219693184
1733902276885574400,6.899574462890625,0.010986678302288055,-0.04727679863572121,-0.04628420248627663
1733902276895601200,6.90960107421875,0.012205341830849648,-0.03897891938686371,-0.04544450715184212
1733902276905627100,6.919627197265625,0.016458896920084953,-0.031018175184726715,-0.04529072716832161
1733902276915654400,6.929654296875,0.023621736094355583,-0.029803508892655373,-0.04421880841255188
1733902276925681400,6.939681396484375,0.0291887316852808,-0.03331165015697479,-0.040588267147541046
1733902276935707600,6.949707763671875,0.03857770189642906,-0.0423102080821991,-0.03795519843697548
1733902276945734400,6.959734375,0.053577542304992676,-0.05007404461503029,-0.037652965635061264
1733902276955760400,6.969760498046875,0.06551169604063034,-0.05349966883659363,-0.03716081380844116
1733902276965787400,6.979787353515625,0.0806705504655838,-0.05292463302612305,-0.04070338234305382
1733902276975813400,6.9898134765625,0.08890771120786667,-0.05216057226061821,-0.0396578274667263
1733902276985840600,6.999840576171875,0.09313700348138809,-0.056356873363256454,-0.037621188908815384
1733902276995867400,7.009867431640625,0.09303287416696548,-0.06046693027019501,-0.03315266966819763
1733902277005893400,7.019893310546875,0.08816911280155182,-0.05846980959177017,-0.02741357684135437
1733902277015920400,7.02992041015625,0.0817658081650734,-0.04855379834771156,-0.020472314208745956
1733902277025946400,7.0399462890625,0.07223466038703918,-0.04024248942732811,-0.016892675310373306
1733902277035973600,7.0499736328125,0.06814058125019073,-0.03616119548678398,-0.00948535930365324
1733902277045999600,7.05999951171875,0.0646430030465126,-0.03592734783887863,-0.004040143918246031
1733902277056026400,7.0700263671875,0.059775546193122864,-0.03361811861395836,0.003748004324734211
1733902277066052400,7.08005224609375,0.053496889770030975,-0.03107653744518757,0.01652218960225582
1733902277076079400,7.090079345703125,0.05003344640135765,-0.02452596090734005,0.028928525745868683
1733902277086106600,7.100106689453125,0.04617889225482941,-0.01310184970498085,0.033923715353012085
1733902277096132600,7.110132568359375,0.04715760424733162,-0.008101232349872589,0.03022858314216137
1733902277106159400,7.120159423828125,0.049318309873342514,-0.008682509884238243,0.02131865918636322
1733902277116185300,7.130185302734375,0.04864745959639549,-0.012895897030830383,0.010099826380610466
1733902277126212400,7.14021240234375,0.04521557316184044,-0.017312681302428246,-0.0010635118233039975
1733902277136238600,7.150238525390625,0.040139324963092804,-0.023203592747449875,-0.010179778560996056
1733902277146265600,7.160265625,0.03321761637926102,-0.029472332447767258,-0.01053347997367382
1733902277156292400,7.170292236328125,0.02901701256632805,-0.03301060572266579,-0.009796583093702793
1733902277166318300,7.180318359375,0.025923367589712143,-0.03913941606879234,-0.0073099564760923386
1733902277176345300,7.190345458984375,0.02597423456609249,-0.042041461914777756,-0.006573858670890331
1733902277186371600,7.20037158203125,0.0244390070438385,-0.03789003565907478,-0.0074530187994241714
1733902277196398600,7.210398681640625,0.03106681816279888,-0.03323988988995552,-0.00629827193915844
1733902277206424600,7.220424560546875,0.037949398159980774,-0.030853651463985443,-0.005838892422616482
1733902277216451300,7.230451416015625,0.04936902970075607,-0.027611253783106804,-0.006023982539772987
1733902277226478300,7.240478271484375,0.05539632961153984,-0.025572355836629868,-0.008232010528445244
1733902277236504600,7.250504638671875,0.05883953347802162,-0.02919212356209755,-0.006674859672784805
1733902277246531600,7.260531494140625,0.058610111474990845,-0.03433036431670189,-0.004933701362460852
1733902277256557600,7.2705576171875,0.05587451532483101,-0.038333360105752945,-0.000286751426756382
1733902277266584300,7.280584228515625,0.04994352161884308,-0.04437347874045372,0.0038583590649068356
1733902277276610300,7.2906103515625,0.04702070355415344,-0.04904706031084061,0.004681275691837072
1733902277286637600,7.300637451171875,0.044779758900403976,-0.052492979913949966,0.005483036860823631
1733902277296663600,7.31066357421875,0.04150380566716194,-0.049828220158815384,0.0043927389197051525
1733902277306690600,7.320690673828125,0.036659181118011475,-0.04612279310822487,0.00707365944981575
1733902277316717300,7.33071728515625,0.03610710799694061,-0.03554791584610939,0.008284333162009716
1733902277326743300,7.340743408203125,0.034996598958969116,-0.02582845836877823,0.009413795545697212
1733902277336770600,7.3507705078125,0.034915901720523834,-0.018866688013076782,0.01231797318905592
1733902277346796500,7.360796630859375,0.029494652524590492,-0.018777145072817802,0.013007166795432568
1733902277356823600,7.370823486328125,0.027363590896129608,-0.02333887293934822,0.01479441486299038
1733902277366849500,7.380849609375,0.024706201627850533,-0.028971683233976364,0.015403710305690765
1733902277376876300,7.390876220703125,0.027351519092917442,-0.039331380277872086,0.01356532983481884
1733902277386903600,7.400903564453125,0.02849903143942356,-0.04635344818234444,0.010954302735626698
1733902277396929500,7.410929443359375,0.029770158231258392,-0.04577554017305374,0.011691199615597725
1733902277406956500,7.42095654296875,0.030941743403673172,-0.04361362010240555,0.011245667934417725
1733902277416982500,7.430982421875,0.03296388313174248,-0.03957653418183327,0.01338844746351242
1733902277427009300,7.44100927734375,0.033569760620594025,-0.03306630626320839,0.01932683028280735
1733902277437035500,7.451035400390625,0.032432593405246735,-0.022338027134537697,0.021283455193042755
1733902277447062500,7.4610625,0.03170183673501015,-0.015795448794960976,0.023420508950948715
1733902277457089500,7.471089599609375,0.03112313151359558,-0.008555911481380463,0.022759512066841125
1733902277467115500,7.481115478515625,0.028622856363654137,-0.007817499339580536,0.021120253950357437
1733902277477142500,7.491142578125,0.024145549163222313,-0.006753033027052879,0.022430529817938805
1733902277487168500,7.50116845703125,0.02102651633322239,-0.006300592795014381,0.022047314792871475
1733902277497195500,7.511195556640625,0.017520464956760406,-0.007346948608756065,0.02297196537256241
1733902277507221500,7.521221435546875,0.016001692041754723,-0.009399463422596455,0.022717101499438286
1733902277517248500,7.53124853515625,0.01790611818432808,-0.008634869009256363,0.0240127295255661
1733902277527275500,7.541275634765625,0.01858465000987053,-0.0017737462185323238,0.022347571328282356
1733902277537301500,7.551301513671875,0.021975919604301453,0.004830094054341316,0.018974678590893745
1733902277547328500,7.56132861328125,0.026217741891741753,0.008017395623028278,0.017061710357666016
1733902277557354500,7.5713544921875,0.029045486822724342,0.010681888088583946,0.016382604837417603
1733902277567381500,7.581381591796875,0.03194331377744675,0.010966025292873383,0.017665868625044823
1733902277577407500,7.591407470703125,0.03588053211569786,0.00529828667640686,0.016367843374609947
1733902277587434500,7.6014345703125,0.037254441529512405,-0.003794269170612097,0.014443042688071728
1733902277597461500,7.61146142578125,0.03438754752278328,-0.010761897079646587,0.01070263423025608
1733902277607487500,7.621487548828125,0.03080740012228489,-0.017992615699768066,0.011206220835447311
1733902277617514500,7.631514404296875,0.029231341555714607,-0.021909592673182487,0.013179090805351734
1733902277627540200,7.641540283203125,0.03165971487760544,-0.02352791279554367,0.01758485659956932
1733902277637567500,7.6515673828125,0.03601425141096115,-0.026380958035588264,0.022169223055243492
1733902277647593500,7.661593505859375,0.04027067497372627,-0.029133951291441917,0.024449853226542473
1733902277657620500,7.671620361328125,0.043298687785863876,-0.034586504101753235,0.02768239937722683
1733902277667646500,7.681646484375,0.043036818504333496,-0.04495694488286972,0.030961064621806145
1733902277677673200,7.691673095703125,0.04363922402262688,-0.05313711240887642,0.035179782658815384
1733902277687700500,7.701700439453125,0.04317163676023483,-0.0619969479739666,0.040336206555366516
1733902277697726500,7.7117265625,0.039093803614377975,-0.06854672729969025,0.05480249971151352
1733902277707753500,7.72175341796875,0.038435354828834534,-0.06976813077926636,0.06715720891952515
1733902277717779500,7.731779541015625,0.04629860445857048,-0.06245162710547447,0.0763818621635437
1733902277727806500,7.741806396484375,0.06497202813625336,-0.0523548498749733,0.07237689942121506
1733902277737832400,7.75183251953125,0.08669250458478928,-0.035376936197280884,0.05885603278875351
1733902277747859500,7.761859375,0.10192345082759857,-0.023162374272942543,0.04745026305317879
1733902277757886500,7.771886474609375,0.11418384313583374,-0.02205583080649376,0.030749311670660973
1733902277767912400,7.781912353515625,0.12209806591272354,-0.03941889852285385,0.010553644970059395
1733902277777939500,7.791939453125,0.12744542956352234,-0.0705760195851326,-0.004965660162270069
1733902277787965400,7.80196533203125,0.12583991885185242,-0.12016452848911285,-0.016548311337828636
1733902277797992400,7.811992431640625,0.11871489882469177,-0.16517941653728485,-0.026282431557774544
1733902277808018400,7.822018310546875,0.1071576401591301,-0.18820220232009888,-0.032383184880018234
1733902277818045400,7.83204541015625,0.09514598548412323,-0.17384189367294312,-0.02994239702820778
1733902277828072400,7.842072509765625,0.08282417058944702,-0.1274287849664688,-0.019733870401978493
1733902277838098400,7.852098388671875,0.07432495802640915,-0.07452109456062317,-0.003496309742331505
1733902277848125400,7.86212548828125,0.06745047867298126,-0.04954540729522705,0.005163740832358599
1733902277858151400,7.8721513671875,0.06568533182144165,-0.048784807324409485,0.006198379211127758
1733902277868178400,7.882178466796875,0.07060545682907104,-0.07100138813257217,0.0067391167394816875
1733902277878204400,7.892204345703125,0.07846710830926895,-0.10929205268621445,-0.00019815168343484402
1733902277888231400,7.9022314453125,0.08599945157766342,-0.15439274907112122,-0.013872118666768074
1733902277898258400,7.912258544921875,0.08832385390996933,-0.2177852988243103,-0.0372093990445137
1733902277908284400,7.922284423828125,0.08766401559114456,-0.289931058883667,-0.07000401616096497
1733902277918311400,7.9323115234375,0.09675311297178268,-0.3582320809364319,-0.1015414372086525
1733902277928337200,7.942337158203125,0.10952357947826385,-0.40828636288642883,-0.1256570667028427
1733902277938364200,7.9523642578125,0.12415897846221924,-0.4341549873352051,-0.1326446831226349
1733902277948390100,7.96239013671875,0.13868720829486847,-0.4223293960094452,-0.12981949746608734
1733902277958417200,7.972417236328125,0.14437492191791534,-0.3888374865055084,-0.11286181211471558
1733902277968443100,7.982443115234375,0.1446993499994278,-0.35572299361228943,-0.0909355953335762
1733902277978470100,7.99247021484375,0.13788539171218872,-0.3121531307697296,-0.07134777307510376
1733902277988497200,8.0024970703125,0.131317600607872,-0.26723018288612366,-0.060021452605724335
1733902277998523100,8.012523193359375,0.1341639906167984,-0.23107458651065826,-0.056354813277721405
1733902278008550100,8.022550048828125,0.13063371181488037,-0.20193494856357574,-0.06368789076805115
1733902278018576100,8.032576171875,0.11988494545221329,-0.18274261057376862,-0.07135620713233948
1733902278028603400,8.042603271484374,0.10869495570659637,-0.17173248529434204,-0.0830395370721817
1733902278038629400,8.05262939453125,0.10044342279434204,-0.1473246067762375,-0.09223969280719757
1733902278048656100,8.06265625,0.10629284381866455,-0.11455631256103516,-0.10282601416110992
1733902278058683100,8.07268310546875,0.1172831803560257,-0.08274857699871063,-0.12019194662570953
1733902278068709000,8.082709228515625,0.13297589123249054,-0.048245348036289215,-0.141548290848732
1733902278078736400,8.092736328125,0.14235900342464447,-0.013858347199857235,-0.1658051609992981
1733902278088762400,8.102762451171875,0.1493121236562729,0.013995586894452572,-0.18563620746135712
1733902278098789000,8.1127890625,0.14698797464370728,0.04078059643507004,-0.2037169486284256
1733902278108815000,8.122815185546875,0.136529341340065,0.07225722819566727,-0.2140652984380722
1733902278118842000,8.132842041015625,0.12357174605131149,0.10684343427419662,-0.2231045961380005
1733902278128869400,8.142869384765625,0.12207123637199402,0.13319265842437744,-0.22644388675689697
1733902278138895400,8.152895263671875,0.13033795356750488,0.1448378562927246,-0.22295060753822327
1733902278148922000,8.162922119140624,0.14142446219921112,0.15061144530773163,-0.22267891466617584
1733902278158948000,8.172947998046874,0.14997906982898712,0.16708096861839294,-0.22774584591388702
1733902278168975000,8.18297509765625,0.1540704071521759,0.20329639315605164,-0.24205854535102844
1733902278179001000,8.1930009765625,0.15545526146888733,0.25126925110816956,-0.25062620639801025
1733902278189028400,8.2030283203125,0.15498235821723938,0.3120976686477661,-0.25853392481803894
1733902278199055000,8.21305517578125,0.14659738540649414,0.38830164074897766,-0.2541777789592743
1733902278209081000,8.2230810546875,0.1322861760854721,0.4538334608078003,-0.23850545287132263
1733902278219108000,8.233108154296875,0.11999354511499405,0.48163819313049316,-0.21761588752269745
1733902278229134300,8.24313427734375,0.10209168493747711,0.4684950113296509,-0.1938602477312088
1733902278239161300,8.253161376953125,0.06917421519756317,0.4179982841014862,-0.1770322620868683
1733902278249187300,8.263187255859375,0.013156646862626076,0.33523207902908325,-0.1600089818239212
1733902278259214000,8.273214111328125,-0.05035761371254921,0.240768164396286,-0.1537841111421585
1733902278269240000,8.283239990234375,-0.10878504067659378,0.16254010796546936,-0.15685294568538666
1733902278279267300,8.293267333984375,-0.14028383791446686,0.10534711927175522,-0.16978923976421356
1733902278289294300,8.30329443359375,-0.13014058768749237,0.07183146476745605,-0.18425804376602173
1733902278299320300,8.3133203125,-0.07790854573249817,0.044886935502290726,-0.18474887311458588
1733902278309347000,8.32334716796875,0.005939798429608345,0.02012004889547825,-0.16301600635051727
1733902278319373000,8.333373046875,0.09268614649772644,0.007172026671469212,-0.11967304348945618
1733902278329400300,8.343400390625,0.15256604552268982,0.017746884375810623,-0.06199762225151062
1733902278339426300,8.35342626953125,0.1767081320285797,0.03930650278925896,-0.015128647908568382
1733902278349453300,8.363453369140625,0.16899794340133667,0.048673272132873535,0.015174560248851776
1733902278359480000,8.37347998046875,0.1479610949754715,0.04568281024694443,0.013807294890284538
1733902278369506000,8.383506103515625,0.12493973970413208,0.028803255409002304,-0.010257593356072903
1733902278379533300,8.393533203125,0.10763932019472122,0.006763999816030264,-0.05577394738793373
1733902278389559300,8.403559326171875,0.09835159778594971,-0.010345500893890858,-0.10209202766418457
1733902278399586300,8.41358642578125,0.1031559407711029,-0.011269085109233856,-0.1288703829050064
1733902278409612300,8.4236123046875,0.11437913775444031,-0.0024937575217336416,-0.13212887942790985
1733902278419639000,8.43363916015625,0.12733754515647888,0.013140596449375153,-0.11936380714178085
1733902278429666300,8.443666259765624,0.1397700309753418,0.019672105088829994,-0.09847694635391235
1733902278439692300,8.4536923828125,0.14714352786540985,0.024779248982667923,-0.07851842045783997
1733902278449719300,8.46371923828125,0.1613168716430664,0.019867977127432823,-0.06904709339141846
1733902278459745300,8.473745361328126,0.1745932698249817,0.005466933362185955,-0.07823286950588226
1733902278469772000,8.48377197265625,0.18707743287086487,-0.020710647106170654,-0.10398335009813309
1733902278479798300,8.49379833984375,0.19028788805007935,-0.05051807686686516,-0.13906677067279816
1733902278489825300,8.5038251953125,0.18328341841697693,-0.07307007908821106,-0.1797611564397812
1733902278499852300,8.513852294921875,0.16982939839363098,-0.08198767900466919,-0.2165553867816925
1733902278509878300,8.523878173828125,0.15327732264995575,-0.08035769313573837,-0.24393314123153687
1733902278519905000,8.533905029296875,0.13980838656425476,-0.06395501643419266,-0.25796401500701904
1733902278529931300,8.54393115234375,0.1288573443889618,-0.033157363533973694,-0.262589693069458
1733902278539958300,8.553958251953125,0.12613187730312347,0.0007164468988776207,-0.24878600239753723
1733902278549984300,8.563984375,0.12589432299137115,0.021037962287664413,-0.22258448600769043
1733902278560011300,8.57401123046875,0.12714600563049316,0.031703658401966095,-0.18836526572704315
1733902278570037200,8.584037353515624,0.1251332312822342,0.037482161074876785,-0.1492786854505539
1733902278580064300,8.594064208984374,0.12327540665864944,0.011395434848964214,-0.11509089171886444
1733902278590091300,8.60409130859375,0.1256406009197235,-0.02856384590268135,-0.09527305513620377
1733902278600117200,8.6141171875,0.1270054578781128,-0.07184074819087982,-0.08544119447469711
1733902278610144300,8.624144287109376,0.12556707859039307,-0.10953259468078613,-0.09026557207107544
1733902278620170200,8.634170166015625,0.12579743564128876,-0.13120752573013306,-0.09286774694919586
1733902278630197200,8.644197265625,0.12385804951190948,-0.1355827897787094,-0.09064336121082306
1733902278640224300,8.654224365234375,0.12335310876369476,-0.12924925982952118,-0.0838610902428627
1733902278650250200,8.664250244140625,0.11837413907051086,-0.1212807223200798,-0.07156732678413391
1733902278660277200,8.67427734375,0.11308297514915466,-0.11419299244880676,-0.057446178048849106
1733902278670303200,8.68430322265625,0.11026836186647415,-0.10680528730154037,-0.04947565495967865
1733902278680330200,8.694330322265625,0.11096850782632828,-0.09421385824680328,-0.04509129002690315
1733902278690356200,8.704356201171874,0.11482734233140945,-0.07939638942480087,-0.04496420919895172
1733902278700383200,8.71438330078125,0.11563268303871155,-0.06020272150635719,-0.045820679515600204
1733902278710409200,8.7244091796875,0.11257803440093994,-0.03940263390541077,-0.04475195333361626
1733902278720436200,8.734436279296874,0.10975588113069534,-0.018203074112534523,-0.04087891802191734
1733902278730463200,8.744463134765626,0.1093924269080162,0.0007568667642772198,-0.03746785596013069
1733902278740489200,8.7544892578125,0.11156370490789413,0.008338619954884052,-0.03451148048043251
1733902278750516200,8.76451611328125,0.11339428275823593,0.010026304051280022,-0.03681712970137596
1733902278760542200,8.774542236328125,0.11088026314973831,0.006689096800982952,-0.039961524307727814
1733902278770569200,8.7845693359375,0.1034218892455101,0.007254713214933872,-0.042486052960157394
1733902278780595200,8.79459521484375,0.09797705709934235,0.008215315639972687,-0.042910292744636536
1733902278790622200,8.804622314453125,0.09397655725479126,0.016993440687656403,-0.045651406049728394
1733902278800649200,8.814649169921875,0.09633239358663559,0.024309678003191948,-0.045481760054826736
1733902278810675200,8.82467529296875,0.10764839500188828,0.0359056331217289,-0.041687555611133575
1733902278820702200,8.8347021484375,0.11755348742008209,0.04198749363422394,-0.033440809696912766
1733902278830728200,8.844728271484374,0.12750299274921417,0.03687718138098717,-0.02166352979838848
1733902278840755200,8.854755126953124,0.13235928118228912,0.030739929527044296,-0.005118108354508877
1733902278850781200,8.86478125,0.12406665086746216,0.02032194659113884,0.009035644121468067
1733902278860808200,8.87480810546875,0.10953990370035172,0.013055245392024517,0.026188798248767853
1733902278870835200,8.884835205078126,0.0915093794465065,0.006070633418858051,0.0397607646882534
1733902278880861200,8.894861083984376,0.07080596685409546,-0.00001948326826095581,0.04738353192806244
1733902278890888200,8.90488818359375,0.05269000306725502,-0.0031718285754323006,0.050658006221055984
1733902278900914200,8.9149140625,0.039065271615982056,-0.0022074978332966566,0.04952722787857056
1733902278910941200,8.924941162109375,0.02481553889811039,0.0014684414491057396,0.04662666097283363
1733902278920967700,8.9349677734375,0.013235848397016525,0.010836110450327396,0.04463541507720947
1733902278930994400,8.944994384765625,0.007724330294877291,0.02462228201329708,0.04774369299411774
1733902278941021400,8.955021484375,0.008897453546524048,0.03549836575984955,0.055249813944101334
1733902278951047400,8.96504736328125,0.014546550810337067,0.04374244809150696,0.06178334355354309
1733902278961074700,8.97507470703125,0.018857143819332123,0.05054842308163643,0.06975125521421432
1733902278971100700,8.9851005859375,0.022206008434295654,0.0580737441778183,0.0715978741645813
1733902278981127400,8.99512744140625,0.026053477078676224,0.06169164925813675,0.06806731969118118
1733902278991153400,9.0051533203125,0.027952026575803757,0.056081175804138184,0.062096647918224335
1733902279001180700,9.0151806640625,0.024992723017930984,0.04230571165680885,0.05244748294353485
1733902279011206700,9.02520654296875,0.0196779053658247,0.029543684795498848,0.04055109620094299
1733902279021233700,9.035233642578126,0.011630631983280182,0.017319241538643837,0.027971917763352394
1733902279031260400,9.045260498046876,0.004449037369340658,0.011891908943653107,0.016646858304739
1733902279041286400,9.055286376953125,-0.002375578973442316,0.011034637689590454,0.010571123100817204
1733902279051313700,9.065313720703125,-0.014265104196965694,0.009183931164443493,0.006575098726898432
1733902279061339600,9.075339599609375,-0.026525499299168587,0.013697722926735878,0.006484550889581442
1733902279071366700,9.08536669921875,-0.03242456540465355,0.03344607353210449,0.00403938814997673
1733902279081392600,9.095392578125,-0.02430165745317936,0.06651347875595093,-0.00017905933782458305
1733902279091419400,9.10541943359375,-0.011896577663719654,0.0990506112575531,-0.0072618527337908745
1733902279101446700,9.11544677734375,-0.0038082911632955074,0.11670683324337006,-0.013323472812771797
1733902279111472600,9.12547265625,-0.0050435420125722885,0.10711070895195007,-0.01028469018638134
1733902279121499600,9.135499755859374,-0.012639941647648811,0.08484082669019699,-0.005133337806910276
1733902279131525600,9.145525634765624,-0.01710273139178753,0.05691218376159668,-0.0002907458692789078
1733902279141552400,9.155552490234374,-0.016297390684485435,0.033114176243543625,-0.0002819574438035488
1733902279151578400,9.165578369140626,-0.017590956762433052,0.01694948785007,-0.0005448944866657257
1733902279161605600,9.175605712890626,-0.01914464309811592,0.014079399406909943,0.002191237173974514
1733902279171632600,9.185632568359376,-0.018488295376300812,0.021510209888219833,0.009352710098028183
1733902279181658600,9.19565869140625,-0.01704060100018978,0.04280351474881172,0.021218158304691315
1733902279191685400,9.205685302734375,-0.01373551320284605,0.06863559037446976,0.04098084196448326
1733902279201711600,9.215711669921875,-0.010701906867325306,0.09471140056848526,0.06051885709166527
1733902279211738600,9.225738525390625,-0.007137509062886238,0.12012100964784622,0.07149101793766022
1733902279221764600,9.2357646484375,-0.00421335780993104,0.14798487722873688,0.06879829615354538
1733902279231791600,9.24579150390625,0.0010642888955771923,0.14901308715343475,0.058877233415842056
1733902279241818400,9.255818359375,0.0045109521597623825,0.13004818558692932,0.03826862946152687
1733902279251844600,9.2658447265625,0.001214400865137577,0.09948072582483292,0.027286536991596222
1733902279261871600,9.27587158203125,-0.0032282844185829163,0.07767903059720993,0.02342149056494236
1733902279271897600,9.285897705078124,-0.0075327130034565926,0.06241603195667267,0.023969901725649834
1733902279281924600,9.295924560546876,-0.007990244776010513,0.052457671612501144,0.02268972061574459
1733902279291950600,9.30595068359375,-0.004861906170845032,0.0576024055480957,0.021760394796729088
1733902279301977600,9.3159775390625,0.0033741858787834644,0.07224446535110474,0.02128821611404419
1733902279312004600,9.326004638671876,0.013922983780503273,0.08613523840904236,0.025863924995064735
1733902279322030600,9.336030517578125,0.017827443778514862,0.08803753554821014,0.03576768934726715
1733902279332057600,9.3460576171875,0.01640516147017479,0.0773434191942215,0.04036640003323555
1733902279342083300,9.356083251953125,0.010591481812298298,0.0552157498896122,0.045456234365701675
1733902279352110600,9.366110595703125,0.006703448481857777,0.03206586465239525,0.04474921524524689
1733902279362136600,9.376136474609375,0.004354274831712246,0.010530211962759495,0.04885820671916008
1733902279372163600,9.38616357421875,0.0007095127366483212,-0.008435910567641258,0.055199794471263885
1733902279382190600,9.396190673828125,-0.003961937967687845,-0.02341432496905327,0.06661064177751541
1733902279392216300,9.40621630859375,-0.0036551917437464,-0.03193362057209015,0.07734589278697968
1733902279402243600,9.41624365234375,0.0004332931712269783,-0.03983202204108238,0.08482244610786438
1733902279412269600,9.42626953125,0.011290553025901318,-0.04414186254143715,0.08475537598133087
1733902279422296600,9.436296630859376,0.019363924860954285,-0.04372693970799446,0.08154971897602081
1733902279432322600,9.446322509765626,0.02477087266743183,-0.040200214833021164,0.07334976643323898
1733902279442349300,9.456349365234376,0.031113725155591965,-0.030525747686624527,0.06540022790431976
1733902279452376600,9.46637646484375,0.034678246825933456,-0.01357599999755621,0.056076474487781525
1733902279462402600,9.476402587890625,0.0332380086183548,0.008483495563268661,0.044169481843709946
1733902279472429600,9.4864296875,0.0314970389008522,0.03369860351085663,0.03705589473247528
1733902279482455600,9.49645556640625,0.026944629848003387,0.048781681805849075,0.03209362551569939
1733902279492482300,9.506482421875,0.01882551982998848,0.051788486540317535,0.029710445553064346
1733902279502508500,9.516508544921875,0.01196361891925335,0.04766964167356491,0.026106389239430428
1733902279512535600,9.52653564453125,0.0033781887032091618,0.03930848091840744,0.021235285326838493
1733902279522562600,9.5365625,-0.004859767388552427,0.02137528732419014,0.014598687179386616
1733902279532588500,9.546588623046874,-0.00853190291672945,0.011859232559800148,0.006013204343616962
1733902279542615600,9.556615478515624,-0.010561497882008553,0.022502554580569267,-0.009058956056833267
1733902279552641500,9.5666416015625,-0.004990484099835157,0.04420841112732887,-0.018509848043322563
1733902279562668500,9.57666845703125,-0.005085292737931013,0.06647589802742004,-0.01608636975288391
1733902279572694500,9.586694580078126,-0.0038024147506803274,0.07796821743249893,-0.007172238081693649
1733902279582721500,9.596721435546876,-0.003370450111106038,0.0739218145608902,0.005039686802774668
1733902279592748500,9.60674853515625,0.0023979716934263706,0.05357285961508751,0.008412730880081654
1733902279602774500,9.6167744140625,0.011242596432566643,0.02326129376888275,0.0015340517275035381
1733902279612801500,9.626801513671875,0.013648188672959805,-0.006136124022305012,-0.018669303506612778
1733902279622827500,9.63682763671875,0.011173313483595848,-0.0305170975625515,-0.03987525776028633
1733902279632854500,9.6468544921875,-0.00037503521889448166,-0.048189926892519,-0.05568985641002655
1733902279642880500,9.656880615234375,-0.01579234190285206,-0.048047978430986404,-0.061238549649715424
1733902279652907500,9.666907470703125,-0.02934531681239605,-0.030615387484431267,-0.053689341992139816
1733902279662934500,9.6769345703125,-0.03500773012638092,-0.004108411259949207,-0.04040069878101349
1733902279672960500,9.68696044921875,-0.02826116979122162,0.01294182613492012,-0.02663847990334034
1733902279682987500,9.696987548828124,-0.012186595238745213,0.02178618311882019,-0.019227702170610428
1733902279693013500,9.707013427734376,0.003761942032724619,0.02075038105249405,-0.01987386867403984
1733902279703040500,9.71704052734375,0.011976994574069977,0.019714677706360817,-0.02696373499929905
1733902279713066500,9.72706640625,0.012550419196486473,0.02407851070165634,-0.035121649503707886
1733902279723093500,9.737093505859375,0.005641913041472435,0.03820312023162842,-0.03665589541196823
1733902279733119500,9.747119384765625,-0.0028206356801092625,0.06020646542310715,-0.0308302640914917
1733902279743146800,9.757146728515625,-0.009841526858508587,0.08262016624212265,-0.008357444778084755
1733902279753173500,9.767173583984375,-0.008069752715528011,0.10581883788108826,0.018521640449762344
1733902279763199500,9.777199462890625,0.0019155035261064768,0.11939377337694168,0.04225227236747742
1733902279773226500,9.7872265625,0.01911330223083496,0.11858940869569778,0.05477836728096008
1733902279783252500,9.79725244140625,0.03572982922196388,0.11291767656803131,0.055811673402786255
1733902279793279700,9.80727978515625,0.04640863835811615,0.09947080910205841,0.053268350660800934
1733902279803305700,9.8173056640625,0.0444331057369709,0.0762786716222763,0.05100918933749199
1733902279813332500,9.82733251953125,0.03719232603907585,0.05359315127134323,0.05415954813361168
1733902279823359500,9.837359375,0.034029290080070496,0.035248763859272,0.05608634650707245
1733902279833385500,9.847385498046876,0.03273966908454895,0.02997470460832119,0.06349176168441772
1733902279843412700,9.857412841796876,0.03984285145998001,0.043725404888391495,0.06648089736700058
1733902279853438700,9.867438720703126,0.04996014013886452,0.06167380511760712,0.06697382777929306
1733902279863465500,9.877465576171875,0.057521652430295944,0.07989462465047836,0.06516820192337036
1733902279873491500,9.887491455078125,0.056288670748472214,0.08838501572608948,0.06490350514650345
1733902279883518500,9.8975185546875,0.047333259135484695,0.08661001920700073,0.06371334195137024
1733902279893545700,9.907545654296875,0.03338366746902466,0.07704924792051315,0.06562484055757523
1733902279903571700,9.91757177734375,0.02779209241271019,0.06427672505378723,0.07087339460849762
1733902279913598500,9.927598388671875,0.02905893139541149,0.05540814995765686,0.07690650224685669
1733902279923624000,9.9376240234375,0.04074408486485481,0.069771908223629,0.07627666741609573
1733902279933651000,9.94765087890625,0.05935400724411011,0.09595130383968353,0.08443912118673325
1733902279943677000,9.957677001953124,0.07654843479394913,0.13509896397590637,0.09665956348180771
1733902279953704000,9.967703857421874,0.08824553340673447,0.17487730085849762,0.11083318293094635
1733902279963731000,9.97773095703125,0.08656720817089081,0.19757647812366486,0.12983669340610504
1733902279973757000,9.9877568359375,0.07642451673746109,0.18283791840076447,0.15200968086719513
1733902279983784000,9.997783935546876,0.06397317349910736,0.14245587587356567,0.17468224465847015
1733902279993810000,10.007809814453125,0.05807371065020561,0.09241708368062973,0.19580543041229248
1733902280003837000,10.0178369140625,0.05901700258255005,0.049467481672763824,0.20360636711120605
1733902280013863000,10.02786279296875,0.05793270096182823,0.032883111387491226,0.19683599472045898
1733902280023890000,10.037889892578125,0.05557607114315033,0.044487301260232925,0.1851300746202469
1733902280033917000,10.0479169921875,0.05273008346557617,0.07704570889472961,0.17627708613872528
1733902280043943000,10.05794287109375,0.04971005767583847,0.11145508289337158,0.17710772156715393
1733902280053970000,10.067969970703125,0.04612085968255997,0.1324719786643982,0.18865491449832916
1733902280063996000,10.077995849609374,0.04318073019385338,0.1267179548740387,0.20180213451385498
1733902280074023000,10.08802294921875,0.03157511726021767,0.10123541206121445,0.21822601556777954
1733902280084049000,10.098048828125,0.018191931769251823,0.0663144439458847,0.23369045555591583
1733902280094076000,10.108075927734374,0.007476200815290213,0.044586628675460815,0.23987999558448792
1733902280104103000,10.11810302734375,0.0018747742287814617,0.03559020534157753,0.23942725360393524
1733902280114129200,10.128129150390626,-0.0015212449943646789,0.034839972853660583,0.2240721583366394
1733902280124156000,10.138156005859376,-0.008660647086799145,0.03420507162809372,0.20476263761520386
1733902280134182000,10.148181884765625,-0.014336656779050827,0.042357947677373886,0.18369707465171814
1733902280144209000,10.158208984375,-0.02074022777378559,0.054460152983665466,0.17238689959049225
1733902280154235000,10.16823486328125,-0.025299809873104095,0.0641493946313858,0.18085384368896484
1733902280164262100,10.17826220703125,-0.022152220830321312,0.07222569733858109,0.2043764740228653
1733902280174289000,10.188288818359375,-0.01846669800579548,0.07336820662021637,0.230607271194458
1733902280184315000,10.19831494140625,-0.015987826511263847,0.05909312516450882,0.2560660243034363
1733902280194342000,10.208341796875,-0.01705360598862171,0.03430560976266861,0.2703136205673218
1733902280204368000,10.218367919921874,-0.021045152097940445,0.018762607127428055,0.27337732911109924
1733902280214395100,10.22839501953125,-0.02148509956896305,0.028056634590029716,0.25974172353744507
1733902280224421000,10.238421142578124,-0.0171422827988863,0.03673721104860306,0.23817598819732666
1733902280234448000,10.24844775390625,-0.01896042190492153,0.038466401398181915,0.22273844480514526
1733902280244475000,10.258474853515626,-0.03255506232380867,0.04323265701532364,0.21963585913181305
1733902280254500900,10.2685009765625,-0.047101475298404694,0.03646501526236534,0.22763173282146454
1733902280264528100,10.278528076171876,-0.058680370450019836,0.013772220350801945,0.24440059065818787
1733902280274554000,10.28855419921875,-0.05972922593355179,-0.026217354461550713,0.26341521739959717
1733902280284580900,10.298580810546875,-0.057546500116586685,-0.05088675022125244,0.2626815140247345
1733902280294606800,10.30860693359375,-0.04724396392703056,-0.03535763546824455,0.23859696090221405
1733902280304633900,10.3186337890625,-0.03735591471195221,0.01384639274328947,0.20097395777702332
1733902280314661000,10.3286611328125,-0.04124508425593376,0.06663963943719864,0.17661558091640472
1733902280324687000,10.33868701171875,-0.05305567383766174,0.10185781866312027,0.1802912801504135
1733902280334713900,10.3487138671875,-0.06150571629405022,0.09922560304403305,0.20805563032627106
1733902280344739800,10.35873974609375,-0.061854325234889984,0.05618466064333916,0.23989158868789673
1733902280354766800,10.368766845703124,-0.05250510200858116,-0.004794105887413025,0.26188841462135315
1733902280364793000,10.37879296875,-0.03177398815751076,-0.05812257528305054,0.25856533646583557
1733902280374820000,10.388820068359376,-0.02119385078549385,-0.09356002509593964,0.22311033308506012
1733902280384846800,10.398846923828126,-0.02168174274265766,-0.09605753421783447,0.17147937417030334
1733902280394872800,10.408872802734376,-0.028213119134306908,-0.06989172846078873,0.12331396341323853
1733902280404900000,10.418900146484376,-0.02835852839052677,-0.04004434868693352,0.09494730830192566
1733902280414926000,10.428926025390625,-0.02447897009551525,-0.014276334084570408,0.09156359732151031
1733902280424953000,10.438953125,-0.015894537791609764,-0.0032271454110741615,0.11005658656358719
1733902280434979000,10.44897900390625,-0.006996171548962593,-0.019783591851592064,0.13106657564640045
1733902280445005800,10.459005859375,0.004764880519360304,-0.05385687202215195,0.14238475263118744
1733902280455033000,10.469033203125,0.017081836238503456,-0.09653874486684799,0.1317489594221115
1733902280465059000,10.47905908203125,0.02504841797053814,-0.12108243256807327,0.10324835032224655
1733902280475086000,10.489086181640625,0.025365561246871948,-0.1121392548084259,0.06669497489929199
1733902280485112000,10.499112060546874,0.01700936257839203,-0.06817419081926346,0.0457468144595623
1733902280495138800,10.509138916015624,0.00915456935763359,-0.004579072818160057,0.05244021117687225
1733902280505164800,10.519164794921876,0.009354306384921074,0.04359245300292969,0.08558537811040878
1733902280515192000,10.529192138671876,0.01544518768787384,0.05297944322228432,0.12399367243051529
1733902280525219000,10.539218994140626,0.013956213369965553,0.016604658216238022,0.1448129415512085
1733902280535245000,10.5492451171875,0.007104992400854826,-0.03424149006605148,0.1367371827363968
1733902280545271800,10.559271728515625,-0.0052483463659882545,-0.07114118337631226,0.09907182306051254
1733902280555297800,10.5692978515625,-0.016472892835736275,-0.07422852516174316,0.045083656907081604
1733902280565325000,10.579324951171875,-0.008344393223524094,-0.029043737798929214,0.006659838370978832
1733902280575351000,10.58935107421875,0.004960106685757637,0.04672139137983322,0.0021039352286607027
1733902280585378000,10.5993779296875,0.003117731772363186,0.13048899173736572,0.04364125803112984
1733902280595404800,10.60940478515625,-0.0017763315699994564,0.16971401870250702,0.09909006953239441
1733902280605430800,10.6194306640625,-0.0016777946148067713,0.1267431080341339,0.12088218331336975
1733902280615458000,10.6294580078125,-0.0044838665053248405,0.027455085888504982,0.10723578184843063
1733902280625484000,10.639484130859374,-0.015385782346129417,-0.09247051924467087,0.06303369998931885
1733902280635511000,10.649510986328124,-0.02433719113469124,-0.1716802567243576,0.00396671611815691
1733902280645537000,10.659537109375,-0.027630722150206566,-0.15531672537326813,-0.038146913051605225
1733902280655564000,10.66956396484375,-0.013560596853494644,-0.05279800295829773,-0.043299898505210876
1733902280665591000,10.679591064453126,0.0042684669606387615,0.09221485257148743,-0.008391449227929115
1733902280675617000,10.689616943359376,0.018229709938168526,0.19717900454998016,0.04250558838248253
1733902280685644000,10.69964404296875,0.023086782544851303,0.20396341383457184,0.07283072918653488
1733902280695670000,10.709669921875,0.01919051818549633,0.11941312998533249,0.06856300681829453
1733902280705697000,10.719697021484375,0.014475125819444656,-0.019288290292024612,0.03480930253863335
1733902280715723000,10.729722900390625,0.00627649063244462,-0.14035022258758545,-0.01116060372442007
1733902280725750000,10.73975,-0.011459097266197205,-0.17221547663211823,-0.04183569177985191
1733902280735777000,10.749777099609375,-0.022111017256975174,-0.11656149476766586,-0.05252044275403023
1733902280745802800,10.759802734375,-0.01447467040270567,-0.0032027126289904118,-0.03875429928302765
1733902280755830000,10.769830078125,0.005172645207494497,0.11718995869159698,-0.01516626589000225
1733902280765856000,10.77985595703125,0.03100903518497944,0.17397147417068481,0.007822672836482525
1733902280775883000,10.789883056640624,0.04839692637324333,0.16022831201553345,0.019053990021348
1733902280785909000,10.799908935546876,0.04968882352113724,0.09267164021730423,0.014521555975079536
1733902280795935700,10.809935791015626,0.03746253624558449,0.0010359873995184898,0.0013140076771378517
1733902280805963000,10.819962890625,0.01599985361099243,-0.06307748705148697,-0.01659362018108368
1733902280815989000,10.829989013671875,-0.006017907056957483,-0.0802827998995781,-0.02654147520661354
1733902280826016000,10.84001611328125,-0.022425908595323563,-0.06110724061727524,-0.027486098930239677
1733902280836042000,10.8500419921875,-0.03314664214849472,-0.019479013979434967,-0.028570322319865227
1733902280846068700,10.86006884765625,-0.03300975635647774,0.02159891463816166,-0.02312149479985237
1733902280856094700,10.8700947265625,-0.02960652858018875,0.03840786963701248,-0.01801987551152706
1733902280866122000,10.8801220703125,-0.023931067436933517,0.035884790122509,-0.018939731642603874
1733902280876149000,10.89014892578125,-0.024044044315814972,0.02059987373650074,-0.025478074327111244
1733902280886175000,10.900175048828125,-0.03653453662991524,-0.002293457742780447,-0.03099614568054676
1733902280896201700,10.91020166015625,-0.05345945060253143,-0.016123391687870026,-0.03544169291853905
1733902280906228000,10.92022802734375,-0.06034345552325249,-0.012872469611465931,-0.04335314407944679
1733902280916255000,10.9302548828125,-0.061820995062589645,-0.0046110693365335464,-0.04775495082139969
1733902280926281200,10.94028125,-0.06575927883386612,0.009308474138379097,-0.050202131271362305
1733902280936308200,10.95030810546875,-0.06937278062105179,0.024291083216667175,-0.04155601188540459
1733902280946335000,10.9603349609375,-0.0774802416563034,0.039699066430330276,-0.03321552276611328
1733902280956361000,10.97036083984375,-0.08897864073514938,0.037767309695482254,-0.02278144098818302
1733902280966388200,10.98038818359375,-0.09892581403255463,0.015014060772955418,-0.019075917080044746
1733902280976414200,10.990414306640625,-0.10571251809597015,-0.019362203776836395,-0.025880727916955948
1733902280986441200,11.000441162109375,-0.11013363301753998,-0.045546405017375946,-0.0384037122130394
1733902280996467200,11.01046728515625,-0.11247149854898453,-0.044817689806222916,-0.04682627320289612
1733902281006494000,11.020493896484375,-0.1061406284570694,-0.010664512403309345,-0.052460990846157074
1733902281016521200,11.030521240234375,-0.09550860524177551,0.04682759568095207,-0.05020943656563759
1733902281026547200,11.040547119140625,-0.09478049725294113,0.09765349328517914,-0.038209497928619385
1733902281036574200,11.05057421875,-0.10320278257131577,0.11551439762115479,-0.026346798986196518
1733902281046600200,11.06060009765625,-0.11308284103870392,0.09402482211589813,-0.013223271816968918
1733902281056627200,11.070627197265624,-0.12248173356056213,0.04418659582734108,-0.007533245719969273
1733902281066653200,11.080653076171876,-0.13300922513008118,-0.009615917690098286,-0.014099269174039364
1733902281076680200,11.09068017578125,-0.14564919471740723,-0.04241883382201195,-0.03660898655653
1733902281086707200,11.100707275390626,-0.15677960216999054,-0.058466244488954544,-0.06492451578378677
1733902281096733200,11.110733154296875,-0.1521947830915451,-0.06659137457609177,-0.09606853872537613
1733902281106760200,11.12076025390625,-0.11956680566072464,-0.061694350093603134,-0.12517821788787842
1733902281116786200,11.1307861328125,-0.06936401128768921,-0.05231420323252678,-0.143480122089386
1733902281126813200,11.140813232421875,-0.020521635189652443,-0.03993023931980133,-0.15123604238033295
1733902281136840200,11.150840087890625,0.011037355288863182,-0.01699402928352356,-0.15136520564556122
1733902281146866200,11.1608662109375,0.019484901800751686,0.0005910892505198717,-0.1532251536846161
1733902281156893200,11.17089306640625,0.019741449505090714,0.00283649074845016,-0.16571888327598572
1733902281166919200,11.180919189453125,0.01834169030189514,-0.009770381264388561,-0.1834816336631775
1733902281176946200,11.1909462890625,0.015445753931999207,-0.03659479320049286,-0.2031385600566864
1733902281186972200,11.20097216796875,0.007897557690739632,-0.06368660181760788,-0.21737955510616302
1733902281196999200,11.210999267578124,-0.0007493959274142981,-0.08259733766317368,-0.22582823038101196
1733902281207026200,11.221026123046874,-0.005918857641518116,-0.092697374522686,-0.23299053311347961
1733902281217052200,11.23105224609375,-0.0075750891119241714,-0.09089920669794083,-0.2516736686229706
1733902281227079200,11.2410791015625,-0.004113245755434036,-0.08227349072694778,-0.27493080496788025
1733902281237105200,11.251105224609375,0.0011264949571341276,-0.0815938413143158,-0.2908932566642761
1733902281247132200,11.261132080078125,0.0034106881357729435,-0.09716880321502686,-0.28617146611213684
1733902281257158400,11.271158447265625,-0.0018322168616577983,-0.1235322654247284,-0.2617641091346741
1733902281267185200,11.28118505859375,-0.0011579045094549656,-0.16979749500751495,-0.22493313252925873
1733902281277212200,11.291212158203125,0.009330620057880878,-0.21023903787136078,-0.19618411362171173
1733902281287238100,11.301238037109375,0.026672590523958206,-0.2171802967786789,-0.18321585655212402
1733902281297265200,11.31126513671875,0.048191774636507034,-0.18014001846313477,-0.17703105509281158
1733902281307291400,11.32129150390625,0.06853567063808441,-0.11805852502584457,-0.16691769659519196
1733902281317318100,11.331318115234374,0.07722361385822296,-0.05055241286754608,-0.14508619904518127
1733902281327344000,11.34134423828125,0.07280728965997696,-0.002044530352577567,-0.10905096679925919
1733902281337371100,11.35137109375,0.0593801885843277,0.011063003912568092,-0.07329960912466049
1733902281347398400,11.3613984375,0.04187522828578949,-0.011472132988274097,-0.051959164440631866
1733902281357424400,11.37142431640625,0.02486184798181057,-0.05467471107840538,-0.04599250480532646
1733902281367451100,11.381451171875,0.002361333929002285,-0.095561683177948,-0.06108304113149643
1733902281377477000,11.39147705078125,-0.01786510832607746,-0.12267027050256729,-0.08589517325162888
1733902281387504000,11.401504150390625,-0.023175984621047974,-0.1181572750210762,-0.10596448928117752
1733902281397530000,11.411530029296875,-0.014871295541524887,-0.07643094658851624,-0.11395153403282166
1733902281407557400,11.421557373046875,0.005125314928591251,-0.02373497560620308,-0.11076027154922485
1733902281417584000,11.431584228515625,0.02703721635043621,0.008344289846718311,-0.09659698605537415
1733902281427610000,11.441610107421875,0.05469707399606705,0.018751658499240875,-0.07941374182701111
1733902281437637000,11.45163720703125,0.07732465118169785,-0.00028649962041527033,-0.07062850892543793
1733902281447663000,11.4616630859375,0.09606824815273285,-0.0450475811958313,-0.08209928125143051
1733902281457690000,11.471690185546874,0.10537967085838318,-0.09926218539476395,-0.1086709201335907
1733902281467716000,11.481716064453124,0.10461241751909256,-0.1441337913274765,-0.1479799747467041
1733902281477743000,11.4917431640625,0.09982345998287201,-0.16616769134998322,-0.1762092262506485
1733902281487770000,11.50177001953125,0.09653259813785553,-0.16652588546276093,-0.17855706810951233
1733902281497796000,11.511796142578126,0.09111256152391434,-0.149461567401886,-0.15549588203430176
1733902281507823000,11.521822998046876,0.09260446578264236,-0.12539485096931458,-0.11930352449417114
1733902281517849000,11.53184912109375,0.09824272990226746,-0.10566499084234238,-0.08920265734195709
1733902281527876000,11.5418759765625,0.10916035622358322,-0.10013999789953232,-0.07502532005310059
1733902281537902000,11.551902099609375,0.12474732846021652,-0.09838791191577911,-0.0845305472612381
1733902281547929000,11.56192919921875,0.13993772864341736,-0.09575857222080231,-0.11121435463428497
1733902281557956000,11.5719560546875,0.14255304634571075,-0.08552209287881851,-0.1445690095424652
1733902281567982000,11.581982177734375,0.1384754776954651,-0.06837400048971176,-0.15910640358924866
1733902281578009000,11.592009033203125,0.128911554813385,-0.04402472823858261,-0.1483606994152069
1733902281588035000,11.60203515625,0.11815690994262695,-0.03161546215415001,-0.11751142889261246
1733902281598062300,11.612062255859374,0.10336184501647949,-0.04149279370903969,-0.083493173122406
1733902281608088300,11.62208837890625,0.09627996385097504,-0.06839444488286972,-0.06083712726831436
1733902281618115000,11.632114990234374,0.09381487965583801,-0.08798742294311523,-0.05474123731255531
1733902281628142000,11.64214208984375,0.09076795727014542,-0.08593039214611053,-0.06569242477416992
1733902281638168000,11.65216796875,0.08647480607032776,-0.05389503389596939,-0.08559326082468033
1733902281648195300,11.6621953125,0.08697574585676193,-0.00013966066762804985,-0.09224344044923782
1733902281658221300,11.67222119140625,0.08045902103185654,0.04706685245037079,-0.07006949931383133
1733902281668248000,11.682248046875,0.06223980709910393,0.05553996562957764,-0.021338975057005882
1733902281678274000,11.692274169921875,0.04452994093298912,0.009902763180434704,0.022038977593183517
1733902281688301000,11.702301025390625,0.03180748596787453,-0.06812998652458191,0.0440172478556633
1733902281698328300,11.712328369140625,0.019642475992441177,-0.1454712599515915,0.04261782020330429
1733902281708354300,11.722354248046875,0.01316273957490921,-0.18740247189998627,0.020571108907461166
1733902281718381000,11.732381103515625,0.017798854038119316,-0.17134392261505127,-0.0015253706369549036
1733902281728407000,11.742406982421874,0.033017221838235855,-0.10539819300174713,-0.008012298494577408
1733902281738434000,11.75243408203125,0.05522654950618744,-0.02686898037791252,-0.0024224903900176287
1733902281748461300,11.76246142578125,0.07036315649747849,0.0340481661260128,0.009405139833688736
1733902281758487300,11.7724873046875,0.07523785531520844,0.05931275710463524,0.022415898740291595
1733902281768514000,11.78251416015625,0.0696641281247139,0.048878759145736694,0.03538842126727104
1733902281778540000,11.7925400390625,0.05785038694739342,0.020442165434360504,0.04518013074994087
1733902281788567000,11.802567138671876,0.03853128105401993,-0.007602517958730459,0.04410687834024429
1733902281798593300,11.81259326171875,0.02103467285633087,-0.02659343183040619,0.03450921177864075
1733902281808620300,11.822620361328125,0.007761743851006031,-0.024704186245799065,0.021020835265517235
1733902281818647000,11.83264697265625,0.0019001527689397335,-0.004688013810664415,0.012358834967017174
1733902281828673000,11.842673095703125,0.006132714916020632,0.029814036563038826,0.011536717414855957
1733902281838700000,11.852699951171875,0.016397878527641296,0.05704445764422417,0.019104689359664917
1733902281848726300,11.862726318359375,0.026265688240528107,0.06294495612382889,0.023793715983629227
1733902281858753300,11.872753173828125,0.02659989707171917,0.05111919716000557,0.02552836760878563
1733902281868779300,11.882779296875,0.023973753675818443,0.031953759491443634,0.023259885609149933
1733902281878806000,11.892805908203124,0.013689734973013401,0.010445515625178814,0.021538836881518364
1733902281888833000,11.9028330078125,0.005144183058291674,-0.001439373241737485,0.017976591363549232
1733902281898859300,11.912859375,-0.00460642296820879,-0.004359409213066101,0.018561888486146927
1733902281908886300,11.92288623046875,-0.013927753083407879,0.005231698974967003,0.018106753006577492
1733902281918912300,11.932912353515626,-0.01517440751194954,0.021445171907544136,0.01795113831758499
1733902281928939300,11.942939208984376,-0.018221329897642136,0.03373086452484131,0.013542274944484234
1733902281938965200,11.95296533203125,-0.017150454223155975,0.03996425122022629,0.006838319357484579
1733902281948992500,11.962992431640625,-0.019390705972909927,0.04094056412577629,0.00185048533603549
1733902281959019500,11.97301953125,-0.02625548467040062,0.043353497982025146,-0.006302985362708569
1733902281969045500,11.98304541015625,-0.036460984498262405,0.042402483522892,-0.00953526422381401
1733902281979072300,11.993072265625,-0.04826655238866806,0.03832360357046127,-0.013156095519661903
1733902281989098200,12.00309814453125,-0.058821458369493484,0.04219504073262215,-0.009736062958836555
1733902281999125500,12.01312548828125,-0.06888531148433685,0.04967561364173889,-0.007319509983062744
1733902282009151500,12.0231513671875,-0.08472685515880585,0.04959305375814438,-0.009205561131238937
1733902282019178500,12.033178466796874,-0.10879985988140106,0.02882540225982666,-0.017611414194107056
1733902282029205200,12.043205322265624,-0.12731681764125824,-0.0010241055861115456,-0.024905012920498848
1733902282039231200,12.053231201171876,-0.12470445781946182,-0.01722653955221176,-0.03841973841190338
1733902282049258500,12.063258544921876,-0.10290222615003586,-0.00623753946274519,-0.05030409246683121
1733902282059284500,12.073284423828126,-0.06773367524147034,0.022702941671013832,-0.05489213764667511
1733902282069311500,12.0833115234375,-0.038234107196331024,0.054493363946676254,-0.057746514678001404
1733902282079338200,12.093338134765625,-0.021899204701185226,0.0743306502699852,-0.05267755687236786
1733902282089364500,12.103364501953125,-0.017066366970539093,0.07569471746683121,-0.04871317371726036
1733902282099391500,12.1133916015625,-0.017490796744823456,0.06476853042840958,-0.0545530691742897
1733902282109417500,12.12341748046875,-0.02034756913781166,0.05101090297102928,-0.06152921915054321
1733902282119444500,12.133444580078125,-0.019988644868135452,0.029503919184207916,-0.06714537739753723
1733902282129470500,12.143470458984375,-0.02111702598631382,0.015276777558028698,-0.06732647120952606
1733902282139497500,12.15349755859375,-0.02001633122563362,0.01269044354557991,-0.05800987035036087
1733902282149524500,12.1635244140625,-0.021167881786823273,0.01701861247420311,-0.047316212207078934
