time,seconds_elapsed,z,y,x
1733851384687512600,0.0155126953125,-0.459559877499938,-0.5528367116123437,-0.3105921358257532
1733851384697480400,0.02548046875,-0.49917716374769805,-0.682263886514306,-0.3648877896368503
1733851384707449300,0.035449462890625,-0.6083002401590347,-0.8385574410319327,-0.44848903290927405
1733851384717418500,0.04541845703125,-0.8238805347733199,-1.0626742394536732,-0.5814934817761183
1733851384727386400,0.055386474609375,-1.0364970111459493,-1.1431149728685617,-0.7543249141186475
1733851384737355500,0.06535546875,-1.0814018824078142,-1.1004185714364052,-0.871021202263236
1733851384747323400,0.075323486328125,-0.8318506368696689,-1.1054086348086596,-0.8190630514889955
1733851384757292500,0.08529248046875,-0.5773831238478422,-1.3305781571537256,-0.5353951629459858
1733851384767260700,0.0952607421875,-0.6655629270821809,-2.0348966390877963,-0.29794658926427364
1733851384777229600,0.1052294921875,-0.6809332224324345,-1.396041101667285,-0.8090887699633836
1733851384787198500,0.115198486328125,-0.6272752820029854,-0.30027473995089526,-1.1950725391209125
1733851384797166600,0.12516650390625,-0.6692638274267315,0.234705412453413,-1.1109405499726532
1733851384807135500,0.135135498046875,-0.5328653522074223,0.34801614981293677,-0.8020967191189528
1733851384817103600,0.145103515625,-0.5043742939993738,0.4265811524838209,-0.2847293802946806
1733851384827072500,0.155072509765625,-0.5704293591871857,0.7588561278074979,0.0931318726837635
1733851384837040400,0.165040283203125,-0.6209660988561808,1.112097318792343,0.15848492708206177
1733851384847009500,0.175009521484375,-0.7467948108747601,1.1279366929590702,-0.13655191221535204
1733851384856978400,0.184978515625,-0.8625327753812074,0.79344813323915,-0.47857905074656004
1733851384866946600,0.194946533203125,-0.7504546485565602,0.5276256979882716,-0.5690846665799617
1733851384876915500,0.20491552734375,-0.558901126217842,0.46756490477919577,-0.4292734603077173
1733851384886883600,0.214883544921875,-0.545706421341002,0.3841553846865892,-0.3376099066108465
1733851384896852500,0.2248525390625,-0.6217202782243489,0.28431670784056184,-0.19466624753177164
1733851384906821400,0.2348212890625,-0.4521960707336664,0.3304384075462818,0.08565233058333396
1733851384916789500,0.24478955078125,-0.03637567397803068,0.42954993916153905,0.18565934973359108
1733851384926758400,0.25475830078125,0.46888329390138384,0.4797679682701826,0.05457680884003639
1733851384936726500,0.2647265625,0.9300158275455236,0.4606421197786927,0.15574059680998326
1733851384946696000,0.274696044921875,1.1261682219818234,0.16628274135142565,0.27985212964713574
1733851384956664000,0.2846640625,1.0748004383161662,-0.09923895738720893,0.4386357474148273
1733851384966633000,0.294633056640625,1.2128531104832887,0.11267799241393804,0.731955261400342
1733851384976602000,0.30460205078125,1.402812787759304,0.39970600503981113,0.916870514768362
1733851384986570200,0.3145703125,1.636969918680191,0.6736126702859997,0.7441419582784176
1733851384996539100,0.3245390625,1.8868115254670381,0.9797574713140725,0.7907429659336805
1733851385006507000,0.334507080078125,1.8751754482090472,0.8960381546199321,0.9121382255494594
1733851385016476000,0.344475830078125,1.5444643612012265,0.607044394879043,0.7255681907117366
1733851385026444800,0.35444482421875,1.2019938628166913,0.5218061980545521,0.5008393978714942
1733851385036413000,0.364412841796875,0.906159735661745,0.7882146164998411,0.19002806633710861
1733851385046381800,0.3743818359375,0.41210079171061514,1.4064248407766222,-0.3062468000978231
1733851385056350000,0.384349853515625,0.038648002824187275,1.6200135231822728,-0.3757219028621912
1733851385066319000,0.394319091796875,-0.14215864618122576,1.396846865092218,-0.12199030289947986
1733851385076287000,0.404286865234375,-0.325376447981596,1.1261284744933246,0.3248077081829309
1733851385086256000,0.414256103515625,0.06105740303099155,0.8720937999308109,0.3909112886875868
1733851385096225000,0.42422509765625,0.38119185870587824,0.43626580341309307,0.34951544845998284
1733851385106193200,0.434193115234375,0.5707821181476116,0.2014551770195365,0.3933019832164049
1733851385116162000,0.444162109375,1.2078174544036389,0.3410533250629902,0.35251872192919254
1733851385126130200,0.454130126953125,1.588932740741968,0.6366369845882057,0.6348971551835536
1733851385136099000,0.46409912109375,1.3510779243469238,0.8827011186629533,0.9605962592482566
1733851385146067000,0.47406689453125,0.9312392318606376,0.9001359453275799,0.9711778590172528
1733851385156036000,0.4840361328125,0.5077905321836471,0.8188993853598833,1.0398346311360598
1733851385166005200,0.494005126953125,0.32032384076714515,0.8445408993557095,1.0804822833448648
1733851385175972900,0.503972900390625,0.3462935638040304,0.8582488144516944,1.1403034225791693
1733851385185942000,0.51394189453125,0.373778952100873,0.7433608909033238,0.9458084399610758
1733851385195910000,0.523909912109375,0.3458212701171636,0.46472091352492567,0.6456342377752066
1733851385205879000,0.533879150390625,0.3348293359816074,0.14008549316897986,0.3024883243471384
1733851385215848000,0.543847900390625,0.5545604666650295,0.08641644682362676,-0.013708791878819465
1733851385225816000,0.553816162109375,1.0071563503712415,0.19011793657764792,-0.18514730855822562
1733851385235785000,0.563784912109375,1.637227108311653,0.14654329100623725,0.01549976694881916
1733851385245753000,0.573753173828125,1.986115949305892,0.04448343097940087,0.28631285009384155
1733851385255722000,0.583721923828125,1.616159770363569,-0.0013733341798186302,0.5469441464424133
1733851385265690000,0.593690185546875,0.8491133218377828,0.03002133651524782,0.6735971804559231
1733851385275659000,0.603658935546875,0.3006961802333593,0.16491817499995232,0.5642749282106757
1733851385285628200,0.613628173828125,-0.18158464764058588,0.20395546940267084,0.45679596574455494
1733851385295596000,0.623595947265625,-0.6938017640948295,0.2548107735015452,0.17699439724087715
1733851385305565200,0.633565185546875,-0.7473913154631853,0.0972708721846342,-0.3403548214048147
1733851385315532800,0.64353271484375,-0.40160511665940285,-0.1468305835150182,-0.766627346330881
1733851385325502000,0.653501953125,-0.00838555102944374,-0.24976269633173942,-0.6866314340740441
1733851385335470000,0.663469970703125,0.43180210200250146,-0.07597031000256538,-0.26340134558379646
1733851385345439000,0.67343896484375,1.177391336479783,0.19889584792554377,0.15644319212138652
1733851385355408000,0.683407958984375,2.483333649548888,0.27957345883622764,0.5915723927199841
1733851385365376000,0.6933759765625,5.0506122412413355,0.2613873754128814,1.0981634859859943
1733851385375345000,0.703344970703125,7.904578361558913,0.09727949388250708,1.6862462830245495
1733851385385313000,0.71331298828125,5.918533723923564,0.08505304951593279,2.181829075542092
1733851385395282000,0.723281982421875,1.821777035498619,0.5175049937292933,1.9414453251913188
1733851385405251000,0.7332509765625,-0.3531131806910038,0.5343836478158831,1.1143319459766148
1733851385415219000,0.743218994140625,-1.7138778017938137,0.4523347485519945,0.35008477278053757
1733851385425188000,0.75318798828125,-2.0779273870408534,0.7039161847434937,-0.2895145687445998
1733851385435156200,0.76315625,-1.640492832109332,0.6148541918471455,-0.863033418379724
1733851385445125000,0.773125,-0.788362208276987,0.37192177992686626,-1.2972303065642714
1733851385455093000,0.783093017578125,0.10535422539710998,0.08399871815741061,-1.5788815945878625
1733851385465062000,0.793061767578125,0.39513445934057234,-0.2775662106670439,-1.6279814333215354
1733851385475031000,0.803031005859375,0.030815409502387044,-0.5067440918706357,-1.6981044786006212
1733851385484999000,0.8129990234375,-0.822454447492957,-0.47280543578118084,-1.5905585883781312
1733851385494968000,0.822968017578125,-1.5992846234083176,-0.13926774704530834,-1.2049749244540928
1733851385504936000,0.83293603515625,-1.6603344276547432,0.34751112290024755,-0.6075111356079578
1733851385514905000,0.842905029296875,-0.9276403305858373,0.38474297531619667,0.08728460796028376
1733851385524873000,0.852873046875,-0.07375847917199134,0.15686054075062275,0.4463976135879755
1733851385534842000,0.862842041015625,-0.4899000707060098,0.15446429326385258,0.4458738819748163
1733851385544811000,0.87281103515625,-1.3228531158596277,0.19342998373508452,0.5161015566721558
1733851385554779100,0.882779052734375,-1.2875585151165723,0.11847396534159779,0.6684931353151797
1733851385564748000,0.892748046875,-0.5251876571863889,-0.1921302993133664,0.5438622547790408
1733851385574716200,0.902716064453125,0.19702596240043638,-0.34862229901254177,0.27743980780839916
1733851385584685000,0.91268505859375,0.6255968273967504,-0.3087807024896145,0.12395195836126803
1733851385594653200,0.922653076171875,0.8684107275038957,-0.31528307012096046,-0.056387657654285425
1733851385604622000,0.9326220703125,1.1002800397485495,-0.409333372823894,-0.3354886766731739
1733851385614591200,0.94259130859375,1.1192822618603706,-0.41046719915941354,-0.3870668882191181
1733851385624558800,0.952558837890625,0.7907710229843854,-0.2218456386193633,-0.2236637939572334
1733851385634528000,0.962528076171875,0.40326048265099523,-0.06321311976015567,-0.22275281659215687
1733851385644496000,0.972495849609375,0.08260112631916999,0.010377309368550776,-0.22583938443064688
1733851385654465000,0.982465087890625,-0.2891787609189749,0.17706074047535658,-0.09298778803795575
1733851385664434000,0.992433837890625,-0.6056897653996944,0.20934782996550202,0.04188362374454736
1733851385674402000,1.002402099609375,-0.5368956306368112,0.08855053624287247,-0.012450608511269091
1733851385684371000,1.012370849609375,-0.2243833404034376,0.024493220743536947,-0.13959142604172228
1733851385694339000,1.022339111328125,-0.07989128283858299,0.07395677822306752,-0.15554887363016603
1733851385704308000,1.032307861328125,-0.2436158641397953,0.16649828379824758,-0.2418929858699441
1733851385714276000,1.042276123046875,-0.6318313378721475,0.15896613472774623,-0.3793041452631354
1733851385724245000,1.052244873046875,-0.9686422030597924,0.057610477447509766,-0.09147709121406078
1733851385734214100,1.062214111328125,-1.0024550408124924,0.1336824942588806,0.38942192691266536
1733851385744182000,1.07218212890625,-0.9387830713689327,0.2996938713230192,0.7257368252769112
1733851385754151200,1.082151123046875,-0.9516168339788913,0.3822219324059784,0.6890224208638072
1733851385764118800,1.092118896484375,-0.9523661910414695,0.4437215262465179,0.49649172405600545
1733851385774088000,1.102087890625,-0.768522366297245,0.2683088452391326,0.2583402628019452
1733851385784056000,1.11205615234375,-0.4744616785556078,0.09337488765940069,0.1436176128178835
1733851385794025000,1.12202490234375,-0.28495675930976866,0.019736673866212365,0.06978548388779163
1733851385803993900,1.131993896484375,-0.20423954704105854,-0.0786862909629941,0.053662032082676885
1733851385813962000,1.1419619140625,-0.26780513350069524,-0.09675561613887548,0.11658464446365832
1733851385823931000,1.151930908203125,-0.23167115932404994,-0.07009367305412888,0.15511545064896345
1733851385833899000,1.16189892578125,-0.1414344235599041,-0.0492781179100275,0.14673691388219595
1733851385843868000,1.171867919921875,-0.07954349231421946,-0.012362491836398839,0.0779822343468666
1733851385853836000,1.1818359375,-0.13761457301080227,0.02543620068207383,0.003017594255506992
1733851385863805000,1.191804931640625,-0.15418518406152723,0.05054506910592317,-0.07830927434414625
1733851385873774000,1.201774169921875,-0.00924304464161396,-0.039299744731187816,-0.07299158645272255
1733851385883742200,1.2117421875,0.016248539489507673,-0.027924364235997198,-0.13367752582281828
1733851385893711000,1.221711181640625,0.1356347973704338,-0.1863952627927065,-0.20878917316943404
1733851385903679200,1.23167919921875,0.21209961289167403,-0.2688965819992125,-0.1466501123815775
1733851385913648000,1.241648193359375,0.20877602142691612,-0.28238194038569925,-0.03283668619692325
1733851385923616000,1.251615966796875,0.1447965934693813,-0.21701383454874157,0.07296528296768665
1733851385933585000,1.2615849609375,0.031275428229570384,-0.16999438228569924,0.14085574688911437
1733851385943554000,1.271553955078125,-0.11830606142878532,-0.14825915501341222,0.11134937415868043
1733851385953522200,1.281522216796875,-0.29628946970701214,-0.08812851143851876,0.0975806687861681
1733851385963491300,1.2914912109375,-0.48079205062091346,-0.04543664005100727,0.11686316914409399
1733851385973459200,1.301459228515625,-0.6104290688812732,-0.007967325617372989,0.13627251075208185
1733851385983428400,1.311428466796875,-0.5822749875426292,0.026598814720660446,0.06390022524148226
1733851385993397200,1.321397216796875,-0.574093434652686,0.07287424368336796,-0.09394085097908973
1733851386003365400,1.331365478515625,-0.6233697989970445,0.09365998821109532,-0.09407003031671046
1733851386013334300,1.341334228515625,-0.6221376268535852,0.10115516627207398,-0.04196165741682052
1733851386023302400,1.351302490234375,-0.6282195771157741,0.1335702660560608,0.12503273933529854
1733851386033271300,1.361271240234375,-0.6723696844875812,0.18870631621405481,0.5225961793884635
1733851386043239400,1.371239501953125,-0.765469408467412,0.39528175885677336,0.9578805705487727
1733851386053208300,1.381208251953125,-0.980493384373188,0.8939473198205232,1.1189216118544338
1733851386063177500,1.391177490234375,-1.376795718449354,1.189233311573416,1.254589434711635
1733851386073145300,1.401145263671875,-1.4564122759997844,1.1014571207039057,1.5269918328747152
1733851386083114500,1.411114501953125,-1.4454396310865878,0.9793617499947548,1.325332657715678
1733851386093082000,1.42108203125,-1.4307260460793971,0.7800431466124952,1.0589444052755832
1733851386103051300,1.43105126953125,-1.3552987569123505,0.4372827253706753,0.45932519196122884
1733851386113019100,1.44101904296875,-1.353837452188134,0.09693389531522989,-0.2990969283431768
1733851386122988300,1.45098828125,-1.2523410712629557,-0.014658493819087744,-0.7801534751191734
1733851386132957200,1.460957275390625,-1.2599988925397396,0.031833208242803814,-0.8159513492092489
1733851386142925300,1.47092529296875,-1.2141045718491077,0.17143822441846132,-0.5455687664359807
1733851386152894200,1.480894287109375,-0.9732529117256402,0.25347601776644585,-0.24819296279698608
1733851386162862300,1.4908623046875,-0.854109230428934,0.3180053346917033,0.03894406316131353
1733851386172831200,1.500831298828125,-0.7845575552970171,0.3498303596280515,0.30090251646041866
1733851386182799400,1.51079931640625,-0.6756570355951785,0.31631387447342274,0.4416179780960083
1733851386192768300,1.520768310546875,-0.5316968929499387,0.31909327605888244,0.42088323310315606
1733851386202737400,1.5307373046875,-0.4752431843221187,0.3846042974978685,0.2800011827290058
1733851386212705300,1.540705322265625,-0.45667292388677594,0.26253552253469825,0.018608254358172416
1733851386222674400,1.55067431640625,-0.4466179783403873,0.1778076133199036,-0.24179098680019379
1733851386232642000,1.56064208984375,-0.3368687328547239,0.11151683968007564,-0.3764870420157909
1733851386242611200,1.570611083984375,-0.21957097168564796,0.040648528991639614,-0.458856697666645
1733851386252579300,1.580579345703125,-0.08970949701964855,0.04011296081021428,-0.4238473436057567
1733851386262548200,1.59054833984375,0.0897509980738163,0.024385376454889772,-0.3226695271104574
1733851386272517000,1.60051708984375,0.15310907926261424,0.012312369084358215,-0.39102819306552405
1733851386282485200,1.6104853515625,0.21107085436582565,-0.0006133095927536487,-0.5205383700758218
1733851386292454100,1.6204541015625,0.3369242624342441,-0.04186681874021887,-0.5604799198418855
1733851386302422300,1.63042236328125,0.18297171808481216,0.020042232684046028,-0.5437392129212617
1733851386312391200,1.64039111328125,-0.0010883797585964203,0.02899403929412365,-0.547021303331852
1733851386322359300,1.650359375,-0.1369254217028618,-0.07740107345804571,-0.6467588578909635
1733851386332328200,1.660328125,-0.2701718626320362,-0.17204247392192482,-0.8381529518842696
1733851386342297300,1.67029736328125,-0.08624386673569678,-0.18924582991823552,-0.9061457071363925
1733851386352265500,1.680265380859375,0.16471534590423106,-0.12488354012295604,-0.9144821583271026
1733851386362234400,1.690234375,0.3024351328551769,-0.02367489009797573,-0.7949526925832032
1733851386372202200,1.7002021484375,0.3971633348196745,0.08426511400863528,-0.6258744752943516
1733851386382171100,1.710171142578125,0.3952256447553634,0.08646174727007747,-0.4909276601880789
1733851386392139300,1.72013916015625,0.4466571413069963,-0.0048475861616432666,-0.394098102030158
1733851386402108200,1.730108154296875,0.33282968659698964,0.03133256524428725,-0.2966927898108959
1733851386412077300,1.740077392578125,0.23767478365302083,0.16836086279973386,-0.17060381942093372
1733851386422045200,1.750045166015625,0.1219838731586933,0.25497137089073657,-0.13581950628757475
1733851386432014300,1.760014404296875,-0.04994271929860115,0.30591844492629167,-0.1976134068995714
1733851386441982200,1.769982177734375,-0.10129062922000884,0.308212839473784,-0.3124509154349565
1733851386451951400,1.779951416015625,-0.07600245870649815,0.20504852533638476,-0.40833179456591606
1733851386461919200,1.789919189453125,-0.10450959126651287,0.0863857594244182,-0.35088790585696694
1733851386471888400,1.799888427734375,-0.21761516144275664,0.0942762204132974,-0.12477964135706424
1733851386481857300,1.809857177734375,-0.2945341504722834,0.19443200038447975,0.15970131713449953
1733851386491825400,1.819825439453125,-0.348012058159709,0.2557284728683531,0.11223112542927265
1733851386501794300,1.829794189453125,-0.46809331256747244,0.26285028757229445,-0.16665888118743896
1733851386511762400,1.839762451171875,-0.40992520123720166,0.26636794030442834,-0.3411567854374647
1733851386521731300,1.8497314453125,-0.2776619261264801,0.28542203873395916,-0.27105799781680107
1733851386531699200,1.85969921875,-0.21309505366981027,0.22312194216549394,-0.15939152053296565
1733851386541668000,1.869668212890625,-0.14994564679563044,0.237737912017107,-0.01310030459165573
1733851386551637200,1.87963720703125,-0.2118745719641447,0.18474515749812126,0.05845452705621719
1733851386561605000,1.889605224609375,-0.24645547147989272,0.14452347561642526,-0.14130816683173178
1733851386571574300,1.89957421875,-0.3823708393573761,0.1001785032596439,-0.3635603404253721
1733851386581542100,1.909542236328125,-0.4296855482399463,0.15233984845578669,-0.3466553828537464
1733851386591511300,1.91951123046875,-0.43585050061047076,0.19308306999355554,-0.39571547409892077
1733851386601479200,1.929479248046875,-0.31120120763480663,0.11845599129348992,-0.5200789358705282
1733851386611448300,1.9394482421875,-0.2566349201887846,0.05898892619386315,-0.5666495483875275
1733851386621417200,1.949417236328125,-0.20434066932797432,0.05677987184226513,-0.47526247354447837
1733851386631385300,1.95938525390625,-0.09265314925611019,0.0694105861607939,-0.25267887603938577
1733851386641354200,1.969354248046875,0.05009001881480217,0.14240641039721666,-0.003161094379425049
1733851386651322400,1.979322265625,0.013022563180327415,0.09328859761543572,0.016895020699501037
1733851386661291300,1.989291259765625,0.06571253536045552,-0.02705707988217473,-0.13399053729474544
1733851386671259100,1.999259033203125,0.12044190441370009,-0.1216814561460167,-0.335061391171813
1733851386681228300,2.009228271484375,0.08556932847499847,-0.1295697251778096,-0.45535716511309143
1733851386691197200,2.019197265625,0.07990706492960453,-0.024445070752874016,-0.49300037480890746
1733851386701165300,2.029165283203125,0.09470189847946166,0.03920234877131879,-0.5300590626150369
1733851386711134200,2.03913427734375,0.11300035623610019,0.11773249932453035,-0.5511632254421711
1733851386721102300,2.049102294921875,0.1524707813590765,0.1499817410223186,-0.5486030195653439
1733851386731071200,2.0590712890625,0.16146014350056648,0.12065576636008918,-0.5515034171819686
1733851386741039400,2.069039306640625,0.24065876789987087,0.12983159098438918,-0.4298153120994568
1733851386751008300,2.07900830078125,0.1281447338759899,0.18053608843572436,-0.32554829741716385
1733851386760977200,2.08897705078125,-0.15125848295986652,0.1884875588968396,-0.34959435891509055
1733851386770945300,2.0989453125,-0.013353402569890021,0.04922288059145212,-0.36675884420573707
1733851386780914400,2.10891455078125,-0.005341361027956008,-0.08239632446207105,-0.25657880608737466
1733851386790882300,2.11888232421875,0.04508826500475406,-0.12625395169332623,-0.2232850237727165
1733851386800851500,2.1288515625,0.17309622075855732,-0.1774402413122356,-0.32507658825218677
1733851386810819300,2.1388193359375,0.1874520783692598,-0.22219890903644263,-0.5098714301109314
1733851386820788500,2.14878857421875,0.03912380364239216,-0.16629728133343158,-0.4760562542706728
1733851386830757400,2.15875732421875,-0.10096271243989467,-0.10888941378593445,-0.311124050745368
1733851386840725200,2.168725341796875,-0.11347381896674633,0.004174582270905375,-0.13562544502019883
1733851386850694100,2.178694091796875,-0.20700433557927608,0.15721958332136274,0.057661915373802185
1733851386860662300,2.188662353515625,-0.16452888342142105,0.21109540428519247,0.17422200991809367
1733851386870631200,2.198631103515625,-0.25725918956696986,0.19182554421313106,0.0065676879525184625
1733851386880599300,2.208599365234375,-0.18804916747957467,0.28231355132460595,0.02471533906161785
1733851386890568200,2.218568115234375,-0.11586626706123351,0.2574243170008063,-0.03538870876729488
1733851386900537300,2.228537353515625,-0.2542185066968202,0.1500202464018017,-0.2538555186033249
1733851386910505200,2.238505126953125,-0.23291852903664112,0.06045629533268511,-0.2965799770861864
1733851386920474400,2.248474365234375,-0.19567425553053616,-0.0484862368799746,-0.40348727714419363
1733851386930442200,2.258442138671875,-0.08156856840103864,-0.2392602262135595,-0.5216653282791376
1733851386940411400,2.268411376953125,0.018310148194432257,-0.39009558839052916,-0.5678863967061042
1733851386950379300,2.278379150390625,0.042944530974328515,-0.4227326603621244,-0.501360206875205
1733851386960348400,2.288348388671875,0.06300853709876537,-0.2863721060004085,-0.3961632178664207
1733851386970317300,2.2983173828125,0.034500235494971276,-0.03427789798118174,-0.17769699255228041
1733851386980285200,2.30828515625,0.10529460416436194,0.08347147941291332,-0.12034370473623275
1733851386990254000,2.318254150390625,0.18791531196683645,0.13715418895743786,-0.16185294221043586
1733851387000222200,2.32822216796875,0.22515374025404453,0.08973419306948781,-0.2593734052419662
1733851387010191000,2.338191162109375,0.3137199124574661,-0.04987535315081477,-0.40286300776600836
1733851387020159200,2.3481591796875,0.3308680311352014,-0.11598558259196579,-0.3989449575394392
1733851387030128000,2.358128173828125,0.3560796292811632,-0.12530096181742847,-0.38507308405339713
1733851387040097300,2.36809716796875,0.3470382446914911,-0.07266812665201723,-0.3735404671698808
1733851387050065200,2.378065185546875,0.20771657550185918,0.04018208052366972,-0.4061503588736057
1733851387060034300,2.388034423828125,-0.0290659354865551,0.08024564923420548,-0.4611567913025617
1733851387070002400,2.39800244140625,-0.03794102359861135,0.010679726381227373,-0.48105040929615495
1733851387079971300,2.407971435546875,-0.1675543687224388,-0.013508739262074231,-0.3389887937486172
1733851387089939500,2.417939453125,-0.24023294370323417,-0.09827398481257259,-0.0568985297858715
1733851387099908400,2.427908447265625,-0.2094037979364395,-0.20853333524484186,0.16061550936996935
1733851387109876200,2.437876220703125,-0.32063860580474135,-0.2706873378735036,0.21430033780634403
1733851387119845400,2.447845458984375,-0.3774447811320424,-0.29273250787779687,0.16550561949908732
1733851387129814300,2.457814208984375,-0.34851211663633586,-0.25449589886609464,0.12299100437462329
1733851387139782100,2.4677822265625,-0.4304050946861505,-0.1583345222933218,0.11671849997639655
1733851387149751300,2.477751220703125,-0.4982844526916742,-0.06204813110139221,0.19863456664085388
1733851387159719200,2.48771923828125,-0.5690741451859473,-0.07405296860653907,0.2907049475729465
1733851387169688300,2.497688232421875,-0.5744163829967379,-0.09239574042893946,0.25564298654198647
1733851387179656200,2.50765625,-0.44289077451080083,-0.18692889474537222,0.1464145500600338
1733851387189625300,2.517625244140625,-0.3551189675554633,-0.27849125309009104,0.13447452141940594
1733851387199594200,2.52759423828125,-0.320995456418395,-0.2641642197150737,0.1801379559636116
1733851387209562400,2.537562255859375,-0.35957974635660644,-0.23740615931209175,0.05707563991844654
1733851387219531300,2.54753125,-0.3855199510380625,-0.11284008764047175,-0.046913142344355584
1733851387229499400,2.55749951171875,-0.26753537664860483,0.002243358479999006,-0.0678740973085165
1733851387239468300,2.56746826171875,-0.32363983344733716,0.022235157884750514,-0.12684125006198882
1733851387249436400,2.5774365234375,-0.4223071284264326,0.03583382218629121,-0.14690496392548083
1733851387259405300,2.5874052734375,-0.3488262971520424,0.0686430723870173,-0.16407120278179643
1733851387269374500,2.59737451171875,-0.3940172918789088,0.126000177861657,-0.26483225516974923
1733851387279342000,2.607342041015625,-0.40365824979692694,0.130806080306042,-0.38745851788520813
1733851387289311200,2.617311279296875,-0.4022004522040486,0.03282161649195477,-0.5126023163795471
1733851387299279000,2.627279052734375,-0.16744681669473646,-0.09533875334458425,-0.5528676912724971
1733851387309248300,2.637248291015625,0.10708163371160626,-0.16028015820207073,-0.4488549436122179
1733851387319216000,2.647216064453125,0.11795008759796619,-0.22969227873282505,-0.4100795150160789
1733851387329185300,2.657185302734375,0.20146789037063717,-0.2833308751409873,-0.3748573949873447
1733851387339154200,2.667154296875,0.14532690095379946,-0.31851803345419466,-0.2545201199918985
1733851387349122300,2.677122314453125,0.13086100709736345,-0.25369369737142694,0.012392448583245277
1733851387359091200,2.68709130859375,0.13861498222500085,-0.1428648947544396,0.1272258654654026
1733851387369059300,2.697059326171875,0.13109949202835558,-0.06435975534489843,-0.012881108883023261
1733851387379028200,2.7070283203125,0.15058102208971977,-0.03310875373710878,-0.2943751605182886
1733851387388996400,2.716996337890625,0.14975874592140317,0.0008709456071432214,-0.527636219382286
1733851387398965200,2.72696533203125,0.14427695350944994,0.00240039850550238,-0.6310819808095693
1733851387408934400,2.736934326171875,0.12797471107132732,-0.03586003890635911,-0.6945850234270096
1733851387418902300,2.74690234375,0.16579671140015123,-0.1626051853498444,-0.6933955213814973
1733851387428871200,2.75687109375,0.2555406952112913,-0.351963681862317,-0.6072878482460975
1733851387438839300,2.76683935546875,0.316937778525427,-0.48974349190481004,-0.44333530340790744
1733851387448808200,2.77680810546875,0.31450799409523605,-0.5385396715167909,-0.3620996202230453
1733851387458776300,2.7867763671875,0.18961480936110017,-0.4770345612509176,-0.29069910235404967
1733851387468745200,2.7967451171875,0.1553583194941282,-0.3098914402104914,-0.16977496738135814
1733851387478714000,2.806714111328125,0.1261404813814908,-0.08255044644470326,-0.04728022209107875
1733851387488682200,2.81668212890625,0.18946685225777327,0.04995033634947613,0.04765606966614723
1733851387498651400,2.8266513671875,0.21411628647632897,0.03747643829416483,-0.022753099077939987
1733851387508619300,2.836619384765625,0.23371698593795298,-0.01120484623387456,-0.13382453307807446
1733851387518588400,2.84658837890625,0.25665304036736486,-0.10960278621967881,-0.2915688709259033
1733851387528556300,2.856556396484375,0.3647229544639587,-0.1967195633323863,-0.36550562927424907
1733851387538525400,2.866525390625,0.4210970950495451,-0.2634392299087718,-0.32993338063359257
1733851387548493300,2.876493408203125,0.42807639601025727,-0.32005265914294867,-0.403135979488492
1733851387558462500,2.88646240234375,0.5560241094768047,-0.304481324795261,-0.499883120059967
1733851387568431400,2.896431396484375,0.6181102710336447,-0.201412726117298,-0.5324509261876345
1733851387578399200,2.906399169921875,0.5490922643870115,-0.022688746871147303,-0.5325479568213224
1733851387588368100,2.9163681640625,0.4806552724987268,0.13741049267291092,-0.5315531005650759
1733851387598336300,2.926336181640625,0.421702148270607,0.19330374527322128,-0.4610924938946962
1733851387608305200,2.93630517578125,0.47346156160235403,0.1473686724470928,-0.4272048373401165
1733851387618273300,2.946273193359375,0.5679185454100371,0.029910861878097057,-0.3488198674112558
1733851387628242200,2.9562421875,0.629704262715578,-0.05826708732587285,-0.2473492054492235
1733851387638211300,2.96621142578125,0.5859890396296977,-0.08735940849585458,-0.14596680629253386
1733851387648179200,2.97617919921875,0.5572960291087627,-0.07742022568308748,-0.19396014508903026
1733851387658148400,2.9861484375,0.6401140130490064,-0.021258408107352442,-0.34237025288045403
1733851387668116200,2.9961162109375,0.6277081204622984,0.064784675359237,-0.5086024330884218
1733851387678085400,3.00608544921875,0.5790922658532858,0.12684746060706675,-0.646136926600337
1733851387688053200,3.01605322265625,0.5467407328248024,0.1620306733975187,-0.6768962220013142
1733851387698022400,3.0260224609375,0.4320891022503376,0.20254921933393924,-0.7403752992212772
1733851387707991300,3.0359912109375,0.4288999508202076,0.17673481472292915,-0.799641727182269
1733851387717959200,3.045959228515625,0.37202713999748227,0.13981754468148574,-0.806527395042777
1733851387727928000,3.055927978515625,0.3714823655962944,0.11474993071663192,-0.6057125617533922
1733851387737896200,3.065896240234375,0.43158056820631024,0.025063912753982003,-0.3338146059811115
1733851387747865000,3.075864990234375,0.4284615594029426,-0.03404160729056457,-0.11966507482230662
1733851387757833200,3.085833251953125,0.49999534826278685,-0.11536000717268324,-0.12322364408671856
1733851387767802000,3.095802001953125,0.5115490079343319,-0.07735068584452383,-0.14966273820102213
1733851387777771300,3.105771240234375,0.44282092414498325,0.055803286461648526,-0.13838321929574013
1733851387787739400,3.115739501953125,0.41547114492654796,0.10083956098426133,-0.2670037539899349
1733851387797708300,3.125708251953125,0.3748071261048317,0.0939308593080379,-0.4084820166915655
1733851387807676400,3.135676513671875,0.39163551130890845,0.07962572723757474,-0.41049160294830794
1733851387817645300,3.145645263671875,0.3703881406188011,0.10431045196522026,-0.3869143280059099
1733851387827613400,3.155613525390625,0.3682581428527832,0.1301551512497943,-0.31531390365064144
1733851387837582300,3.165582275390625,0.3803554078817367,0.195066316232644,-0.19958266114592552
1733851387847551200,3.17555126953125,0.30887188790440556,0.2262304295748472,-0.056934185621142386
1733851387857519400,3.185519287109375,0.2948994766533375,0.23426300244815645,0.06308744755387306
1733851387867488500,3.195488525390625,0.2662462136209011,0.25250395786389707,0.14102525823712347
1733851387877456100,3.2054560546875,0.2330453702867031,0.22235282095652073,0.09308511093258857
1733851387887425300,3.21542529296875,0.13181903847455978,0.23534889798872172,-0.012633271601796149
1733851387897393200,3.22539306640625,-0.005669857763382606,0.19462005203617735,-0.08827683386802673
1733851387907362300,3.2353623046875,-0.10511340237855911,0.2165583093335852,-0.10675298627912998
1733851387917330200,3.245330078125,-0.1919850456237793,0.20356051526833324,-0.1686082616895437
1733851387927299300,3.25529931640625,-0.2738017435669899,0.13111257070563734,-0.2062017870247364
1733851387937268200,3.265268310546875,-0.20329788227677345,0.08053719779299572,-0.10058218868970871
1733851387947236400,3.275236328125,-0.11219313150644301,0.015358020390570163,0.027937223717570302
1733851387957204500,3.28520458984375,-0.04039513875246048,-0.07428607867609244,0.13086977492570875
1733851387967172600,3.295172607421875,0.023364508974552153,-0.1431575118923094,0.12172434543967246
1733851387977141500,3.3051416015625,0.07419920867681502,-0.21016603274689985,0.044349429336190224
1733851387987109600,3.315109619140625,0.08289747891724109,-0.16986335805086417,-0.03780746034681797
1733851387997078800,3.325078857421875,0.05095101955831051,-0.019675815091026016,-0.10349661483168601
1733851388007047700,3.335047607421875,-0.01139583647804102,0.0574427333649015,-0.15705226393043994
1733851388017015600,3.345015625,0.03801146305289585,0.1486749966721516,-0.22240473380684853
1733851388026984400,3.354984375,0.010810736916330643,0.208866786716599,-0.2670738966166973
1733851388036952600,3.36495263671875,-0.07655541184756438,0.2569654490510933,-0.29464579415321346
1733851388046921500,3.37492138671875,-0.09779344388716854,0.25062479305379093,-0.331452553024888
1733851388056889600,3.3848896484375,-0.06920389374070801,0.16420268367435784,-0.2977420066028833
1733851388066858500,3.3948583984375,-0.009901234555710106,0.0523026807624381,-0.16465514014959334
1733851388076827600,3.40482763671875,0.06727672507041134,0.000704705070098862,0.04892448216676712
1733851388086795500,3.41479541015625,0.06894436602168716,0.0016755045973230152,0.2012871269762516
1733851388096764700,3.4247646484375,0.12160395219670608,0.03639512759717181,0.22480068903267383
1733851388106732500,3.434732666015625,0.1501098974466324,0.05935135716493241,0.13593348805606364
1733851388116701700,3.44470166015625,0.11563890631245448,0.15732169198896734,0.06862462341487408
1733851388126669600,3.454669677734375,0.06609364363253116,0.22033295076778156,0.03798807761073112
1733851388136638700,3.464638671875,-0.0380196417927742,0.17823778489809483,0.008857260194420813
1733851388146606300,3.4746064453125,-0.061283631268609313,0.109857582964655,-0.0606716185837984
1733851388156575700,3.48457568359375,-0.09488834269596264,0.0004918249378213659,-0.10894552788734435
1733851388166544600,3.494544677734375,-0.09104277318371459,-0.11796348593565635,-0.10422960528135299
1733851388176512500,3.504512451171875,0.01392917489754036,-0.19672606613840907,-0.0643581981420517
1733851388186481400,3.5144814453125,0.022128847966063767,-0.23871700444864108,-0.039002807611227035
1733851388196449500,3.524449462890625,0.10815700785815716,-0.17952683832794428,0.005796703580021858
1733851388206418400,3.53441845703125,0.04147767329216003,-0.09773371305656618,0.09517185407876967
1733851388216386600,3.544386474609375,0.017306487577222286,-0.010842470061732456,0.14819851086735725
1733851388226355500,3.55435546875,0.004434767577052116,0.013490591684030368,0.08346738775968551
1733851388236324600,3.56432470703125,-0.056766427838802334,-0.018236681099422274,-0.04276537501513958
1733851388246292500,3.57429248046875,-0.010516169849969446,0.01974179756590165,-0.06785539260804653
1733851388256261600,3.58426171875,-0.0767366547325626,-0.014221399309765547,-0.09656593878567218
1733851388266229500,3.5942294921875,-0.036813188612461085,-0.03866654312787577,-0.09640577978789806
1733851388276198700,3.60419873046875,0.06533668778538704,-0.101965806801524,-0.13964052588045597
1733851388286166800,3.614166748046875,0.11595449333395809,-0.12917032319721766,-0.13915712627768514
1733851388296135700,3.6241357421875,0.16455051073133944,-0.14526513342973776,-0.11545242556333542
1733851388306104600,3.6341044921875,0.1644528955757618,-0.14874283774397334,-0.12076456049680709
1733851388316072400,3.644072509765625,0.1424012227654457,-0.10998891772674396,-0.06113397539854049
1733851388326041300,3.654041259765625,0.11640052006840705,-0.06288907543756067,-0.01979191118478775
1733851388336009500,3.664009521484375,0.08772153807282447,-0.025376141057908533,0.044704818645119666
1733851388345978600,3.673978515625,0.08937865763008594,-0.0041006402518600224,0.03634264849126339
1733851388355946500,3.683946533203125,0.1244417511722073,0.044513835250819096,-0.002955342674255371
1733851388365915600,3.69391552734375,0.013541034096479415,0.07433701884546316,-0.07109072126746177
1733851388375884500,3.703884521484375,-0.0031604733249172567,0.1121040558503475,-0.0690197602123022
1733851388385852700,3.713852783203125,-0.001952303111553192,0.09457065504891797,-0.04618950424492359
1733851388395821600,3.723821533203125,-0.10600596730411052,0.07846381645188666,-0.06576280424296856
1733851388405789700,3.733789794921875,-0.04117079930007458,0.08619775343849323,-0.05242810637354851
1733851388415758600,3.743758544921875,-0.06258647576179355,0.053280129226157436,-0.05164893869459629
1733851388425726700,3.753726806640625,-0.002213036406971514,-0.01389468810604885,-0.06011632278859615
1733851388435695600,3.763695556640625,0.042409985706210136,-0.032992296883743256,0.003836217162013054
1733851388445663500,3.77366357421875,0.014421945116855203,0.011665275953011587,0.0943827495276928
1733851388455632400,3.78363232421875,-0.05506196200847625,0.062004538554837924,0.11317337471544742
1733851388465601500,3.7936015625,-0.07046415033433585,0.11339557523191905,0.12635200524032114
1733851388475569400,3.8035693359375,-0.06601122604608535,0.08727806862164288,0.047475452402234074
1733851388485538600,3.81353857421875,-0.023766660034656523,0.06763966749813408,-0.010608487775921821
1733851388495506400,3.82350634765625,-0.03549505521859973,0.11830261822952888,-0.009565700724720955
1733851388505475600,3.8334755859375,0.00028941140063107015,0.11423413581475615,-0.049314942789077755
1733851388515443500,3.843443359375,0.05066986452937126,0.05676391622130759,-0.1558767904102802
1733851388525412600,3.85341259765625,0.007052841120958328,0.018310760115785522,-0.22345628868639467
1733851388535381500,3.863381591796875,-0.021657084002159533,0.00022447467194870114,-0.1210036299496889
1733851388545349600,3.873349609375,0.0029226094484329224,0.0012722484255209565,-0.0012122983992099762
1733851388555318500,3.883318603515625,-0.03873685015141964,-0.009589090733462945,0.060578095081448555
1733851388565286700,3.89328662109375,-0.029060638256929814,0.00016151983779855072,0.0833762023448944
1733851388575255600,3.903255615234375,0.05664952346086502,-0.0021264632352162153,0.07979659029245376
1733851388585223700,3.9132236328125,0.06436057276222855,-0.051173539735190565,0.01929331401288509
1733851388595192600,3.923192626953125,0.06690145288407802,-0.05535785794882103,-0.05679097775816917
1733851388605160400,3.933160400390625,0.15172255680765956,-0.036776902589527885,-0.09868483063578605
1733851388615129300,3.94312939453125,0.15623623483981935,0.00334199477112852,-0.16546821009814738
1733851388625098500,3.953098388671875,0.0956891194185242,0.05392587978378869,-0.22362930716574192
1733851388635066600,3.963066650390625,0.06716678928937762,0.033650797325093296,-0.23276772238910196
1733851388645035500,3.973035400390625,0.07710665708873421,-0.03495940483878367,-0.19442951616644857
1733851388655003600,3.983003662109375,0.07168404751811176,-0.06476402986343019,-0.13680150306224823
1733851388664972500,3.99297265625,0.03155603526923805,-0.08212396466094068,-0.09263327551186085
1733851388674941400,4.00294140625,0.01867956602871418,-0.1042454147718381,-0.05007774385511875
1733851388684909600,4.01290966796875,0.0022334946731105447,-0.15660594493504612,-0.013025485789775847
1733851388694878500,4.02287841796875,-0.04083700076844543,-0.20215216457406057,0.020001170021295547
1733851388704846600,4.0328466796875,-0.028955972306057808,-0.26920970306899394,0.017550854259729385
1733851388714815700,4.042815673828125,0.01968194800429046,-0.29577695360761136,0.030394553741812703
1733851388724783600,4.05278369140625,-0.053397316731885074,-0.3014264307366684,0.03618541210293769
1733851388734752800,4.062752685546875,-0.06555361847169697,-0.3571219779409468,-0.01661737280189991
1733851388744720400,4.072720458984375,0.010988938460871577,-0.38944837652817366,-0.14752631069421768
1733851388754689500,4.082689453125,0.017429785163328052,-0.4365300073072314,-0.21643851887881754
1733851388764658400,4.092658447265625,0.005230338401533663,-0.4959791348913684,-0.259248902079463
1733851388774626600,4.10262646484375,0.08160221494231372,-0.5446306088030338,-0.21459727492630482
1733851388784595500,4.112595458984375,0.06871821998246014,-0.5570930904151872,-0.13525368909835814
1733851388794563600,4.1225634765625,0.04579787457883358,-0.5322250450098887,-0.0508031355202198
1733851388804532500,4.132532470703125,0.10331607063300907,-0.3928268399853259,0.00011515081226825714
1733851388814500600,4.14250048828125,0.018279205066896974,-0.1435302815943025,0.026440847679972648
1733851388824469500,4.152469482421875,-0.2728565351387486,0.09140507629062049,0.09069032475054263
1733851388834438700,4.162438720703125,-0.3915226985841989,0.23845502904420718,0.1335644208371639
1733851388844406500,4.172406494140625,-0.3292308583874255,0.2100323781635612,0.06779460233151913
1733851388854375700,4.182375732421875,-0.22031093986537306,0.12332515909927896,0.01893091044127941
1733851388864343600,4.192343505859375,-0.2789910923710093,-0.06210800349588971,-0.01173310789167881
1733851388874312700,4.202312744140625,-0.32613508432917293,-0.2404783515653573,-0.020869185027480124
1733851388884280600,4.212280517578125,-0.17815693821422754,-0.4136771011166274,-0.20561375800371168
1733851388894249700,4.222249755859375,-0.13069032670557498,-0.42336266536135225,-0.2126496479898691
1733851388904217600,4.232217529296875,-0.0688273794453591,-0.2809691875109449,-0.13293255267441273
1733851388914186500,4.2421865234375,-0.10281908089630305,-0.1341175429415889,-0.09559621697068214
1733851388924155400,4.2521552734375,-0.0536689002148807,-0.023196842523757366,-0.04333820646703243
1733851388934123500,4.26212353515625,0.0246434428691864,0.08907368333414196,0.01844108109772205
1733851388944092400,4.272092529296875,0.008762567648291588,0.15531064442750064,0.049068274551630015
1733851388954061000,4.28206103515625,-0.03214921538941562,0.18393459003390744,-0.0020581015735864636
1733851388964030000,4.292030029296875,0.0026181466091424227,0.15592954351082444,-0.04269172525703907
1733851388973998000,4.301998046875,0.06397942795753479,0.11732263988200574,-0.11651391731500625
1733851388983967000,4.311967041015625,0.0599654430758208,0.03010254852529615,-0.15033376933038234
1733851388993936100,4.32193603515625,0.07172558510489761,-0.12397975968364626,-0.16359481744170187
1733851389003904000,4.331904052734375,0.06267711318731307,-0.22285244104173033,-0.16073007566034792
1733851389013873200,4.341873046875,0.02617372117638588,-0.29857790943775325,-0.17767478072047233
1733851389023841000,4.351841064453125,0.027046996879577637,-0.3432991677610203,-0.17779460770785807
1733851389033810200,4.36181005859375,0.11084990020394325,-0.31551552716996517,-0.19454875863194465
1733851389043778000,4.371778076171875,0.14064298092126845,-0.2175122855901718,-0.13055237953960894
1733851389053747000,4.381746826171875,0.006412643521279096,-0.03224880330637097,-0.0124655138194561
1733851389063715800,4.3917158203125,-0.07683262592032551,0.061746627404168246,0.10387480049431323
1733851389073684000,4.40168408203125,-0.18905483739078044,-0.017035963540151713,0.017819734328985214
1733851389083652900,4.41165283203125,-0.1570452496677637,-0.09390643725283443,-0.048014381584525104
1733851389093621000,4.42162109375,0.05719590529724955,-0.18183635737933218,-0.027210078486800193
1733851389103590000,4.43158984375,0.017478373545408248,-0.20960596944503485,0.03674129242002964
1733851389113558000,4.44155810546875,-0.06752630678415299,-0.20203633790835737,0.09574877718389034
1733851389123527200,4.451527099609375,-0.10348075967542826,-0.12626958765387533,0.17706453986763954
1733851389133496000,4.46149609375,-0.22453356252908704,-0.049062575463205575,0.23749533543288706
1733851389143464200,4.471464111328125,-0.2594721894413233,0.055806131439283486,0.26848785506784917
1733851389153433000,4.48143310546875,-0.23494155929684638,0.17085107218027115,0.22528934933245182
1733851389163401200,4.491401123046875,-0.2779009955793619,0.2010503225456923,0.13782733897864818
1733851389173370000,4.5013701171875,-0.2679232069224119,0.12766557205691934,0.0359410819530487
1733851389183338000,4.511337890625,-0.19328633748069404,0.12048691259920596,-0.07067746429145336
1733851389193307000,4.521306884765625,-0.07743044568300246,0.1738171554442495,-0.20556290459930895
1733851389203275000,4.53127490234375,-0.023809330132603643,0.2617830967321992,-0.3398158922225237
1733851389213244000,4.541243896484375,-0.0835416220396757,0.21006891078166662,-0.3365910849571228
1733851389223213000,4.551213134765625,-0.031083705049753187,0.15754165488258004,-0.2291407640635967
1733851389233181000,4.561180908203125,0.02061506413593888,0.1444130009792745,-0.16994506325125694
1733851389243150000,4.571150146484375,0.10540632091052829,0.10622823175266384,-0.024368717581033705
1733851389253118000,4.581117919921875,0.09016257454939186,0.16902093414366245,0.1437777718156576
1733851389263087000,4.591087158203125,0.05531104139871895,0.2595703891187906,0.2514619014650583
1733851389273055000,4.601054931640625,0.007861819416284561,0.34880540049448605,0.18000936114788055
1733851389283024100,4.611024169921875,-0.11144625866189599,0.44676820046603677,0.04787409633100032
1733851389292993000,4.620992919921875,-0.1253781917721033,0.4671630459800362,-0.048913376250863075
1733851389302961200,4.630961181640625,-0.07743154166154563,0.36570889676138757,-0.24514672696888445
1733851389312930000,4.640929931640625,0.08162132150158286,0.22075097525045273,-0.36872108418941496
1733851389322898000,4.65089794921875,0.16379223970994353,0.05427081163078546,-0.3763999482542276
1733851389332866800,4.66086669921875,0.2003629978686571,-0.10017331562787293,-0.34630350067615506
1733851389342835000,4.6708349609375,0.2770287427894771,-0.1138112342275679,-0.3200374250411987
1733851389352803800,4.680803955078125,0.2181003146111965,-0.002266191366314888,-0.2520283031761646
1733851389362773000,4.69077294921875,0.15948153690397737,0.2658763573952019,-0.08798048126995563
1733851389372740900,4.700740966796875,-0.028836802905797956,0.4522217896968126,-0.06405833841264248
1733851389382710000,4.7107099609375,-0.15120251498892903,0.5503653530627489,-0.041917233753204344
1733851389392678100,4.72067822265625,-0.13314926416501402,0.4453421131856739,-0.05186053561866283
1733851389402647000,4.73064697265625,-0.056492287072539324,0.28903116914182897,-0.0035118075132369994
1733851389412615200,4.740615234375,-0.05449263768792152,0.27379472930431364,0.05153612596988678
1733851389422584000,4.750583984375,-0.06361468629837036,0.28264117584377524,-0.00805880329310894
1733851389432552200,4.76055224609375,0.028141367987543343,0.2179375252649188,-0.05160334598720073
1733851389442521000,4.77052099609375,0.057847793334722515,0.23570903653800487,-0.09018471331596374
1733851389452490000,4.780489990234375,0.07950038382485508,0.2702325067780912,-0.18390753763020037
1733851389462458000,4.7904580078125,-0.011402268502116203,0.3485847434811294,-0.17705986369252205
1733851389472427000,4.800427001953125,-0.09313947146832942,0.5019236859768629,-0.1194043780595064
1733851389482395000,4.810394775390625,-0.10838029522001742,0.6378845004312693,0.13650924211740492
1733851389492364000,4.820364013671875,-0.17441168727129697,0.707155312795192,0.3843909470081329
1733851389502332000,4.830331787109375,-0.24593831573799252,0.6829103677242994,0.4939765263646841
1733851389512301000,4.840301025390625,-0.20229484271407125,0.5018139419920742,0.369612480071187
1733851389522270000,4.85027001953125,-0.13556421635225416,0.2856139080442488,0.23963994624614715
1733851389532238000,4.860238037109375,-0.13341829036474226,0.12506079638600348,0.08842764051556587
1733851389542207000,4.87020703125,-0.15263079422637818,-0.09617693946808575,-0.10952537360191344
1733851389552175000,4.880175048828125,-0.08684300167262554,-0.19641192215532063,-0.21679157010018824
1733851389562144000,4.89014404296875,-0.13682196132838725,-0.18069880471676586,-0.224561619579792
1733851389572112100,4.900112060546875,-0.316106369202584,-0.11159604239612816,-0.16854104167222975
1733851389582081000,4.9100810546875,-0.26716259781345725,-0.05570815095752477,-0.1258528235465288
1733851389592049200,4.920049072265625,-0.11599266991987824,-0.02984831803590059,-0.11553016697466373
1733851389602018000,4.93001806640625,0.10837518065348267,-0.005846972462534904,-0.06555471445024014
1733851389611987200,4.9399873046875,0.1539059287287295,0.10638912140280007,-0.022200725892186163
1733851389621954800,4.949954833984375,0.10094313095659017,0.22758476679325101,0.014214987835288047
1733851389631924000,4.959924072265625,0.09558350361958146,0.34197160895168777,0.043780689537525175
1733851389641891800,4.969891845703125,0.06841185744702816,0.47496173703223465,0.06170388424098491
1733851389651861000,4.979861083984375,0.03644230947345495,0.41026860784739255,-0.047429275172948836
1733851389661829000,4.9898291015625,0.07095408927574753,0.1896796912908554,-0.17131342899501323
1733851389671798000,4.999798095703125,0.16956176302209494,-0.017594693401455877,-0.3322416575759649
1733851389681767000,5.009766845703125,0.2942426201798022,-0.10640724158138036,-0.3698573947429657
1733851389691735000,5.019735107421875,0.24263386736512182,-0.10184271014481783,-0.27644027537703514
1733851389701704000,5.029703857421875,0.1523952319048345,0.021640753921866415,-0.21241350114643573
1733851389711672000,5.039672119140625,0.13754618394970894,0.1419178231626749,-0.22698972350955007
1733851389721641000,5.049640869140625,0.068867199999094,0.2561301855370402,-0.20631635331511497
1733851389731609000,5.059609130859375,0.06853183056488633,0.25350509773045776,-0.11741466554701327
1733851389741578000,5.069577880859375,0.13460954597592353,0.06816343564391136,-0.02282967144548893
1733851389751545900,5.0795458984375,0.23502529205754397,-0.0770958069011569,0.09086392775177955
1733851389761515300,5.089515380859375,0.28860958272889253,-0.10849661507606506,0.1933300304919481
1733851389771484200,5.099484130859375,0.1522157836847007,-0.025436639073491096,0.3261906869739294
1733851389781452000,5.1094521484375,0.026102409505844113,0.1297284959360957,0.23837504087686537
1733851389791421000,5.1194208984375,-0.05986395546272397,0.22634499586522577,0.02400339139997959
1733851389801389000,5.12938916015625,-0.0777614312030375,0.1439060743704438,-0.03914835356175899
1733851389811358000,5.13935791015625,-0.06204349145889282,0.06450754348486662,-0.0762958886951208
1733851389821326000,5.149326171875,-0.10501827144101261,0.03364449544847011,-0.052145782300829883
1733851389831295000,5.159294921875,-0.03744637194946408,-0.004440905056893825,-0.017795184409618376
1733851389841264000,5.16926416015625,-0.006687953331321477,-0.020041794292628763,-0.012764204505085945
1733851389851232000,5.17923193359375,-0.012708528795093297,0.04922521867901086,0.0417056368291378
1733851389861201200,5.189201171875,-0.05054477684497833,0.164698687030375,0.12488193268775939
1733851389871169000,5.1991689453125,-0.043348143339157104,0.1150607958972454,0.12908289150893687
1733851389881138200,5.20913818359375,0.04791267477571964,0.08325549857467412,0.0717342798680067
1733851389891106000,5.21910595703125,0.08609495978429912,0.047824411970376964,-0.034058921468257904
1733851389901075200,5.2290751953125,0.052318070127815,0.06768178960680961,-0.007349778240919112
1733851389911044000,5.239044189453125,-0.051536710491776466,0.09896686244755983,0.03656827394068241
1733851389921012000,5.249011962890625,-0.10885273503735661,0.15784370656907556,-0.011984452304244041
1733851389930980900,5.25898095703125,-0.13513152402341366,0.09137363083958626,-0.017467267629504204
1733851389940949000,5.268948974609375,-0.12445567009970546,-0.06892886705845594,-0.04357552235424518
1733851389950917000,5.278917236328125,-0.11551613844931125,-0.1466664789944887,-0.0061813189834356306
1733851389960885200,5.28888525390625,-0.1526611893646419,-0.12905161958783865,0.019376316121220587
1733851389970854400,5.2988544921875,-0.19593802103325725,-0.04270955317467451,0.07849427552223205
1733851389980822300,5.308822265625,-0.15370046928450465,0.10812895080745219,0.1383224290192127
1733851389990791400,5.31879150390625,-0.18666048960015177,0.23542700472623107,0.12826222277581692
1733851390000760300,5.32876025390625,-0.24092004918456075,0.42524230509549377,0.1646399425804615
1733851390010728400,5.338728515625,-0.15734262517914174,0.5555839644938707,0.11358078647255897
1733851390020697300,5.348697265625,-0.12085676882490515,0.5702259455695748,0.02321779398024082
1733851390030665200,5.358665283203125,-0.11650967953130602,0.4204965718731284,0.023462124130129814
1733851390040634000,5.368634033203125,-0.04757993569001555,0.26777152349203825,-0.03405366077125072
1733851390050602200,5.378602294921875,0.007485533449798822,0.1494350669249892,-0.10468319426774977
1733851390060571100,5.388571044921875,0.08361322597116232,0.08731208048909903,-0.12767185566723346
1733851390070540300,5.398540283203125,0.07444426947906613,-0.015320903250575064,-0.09577508066892623
1733851390080508200,5.408508056640625,0.03119958651438355,0.04728402148336172,0.09019581923186779
1733851390090477300,5.418477294921875,-0.08025529384538531,0.15727876616269348,0.20685703606307507
1733851390100445200,5.428445068359375,-0.1052476962827146,0.3073766809105873,0.24406886860430238
1733851390110414300,5.438414306640625,-0.11464914635643363,0.372355933560431,0.3167804690718651
1733851390120382200,5.44838232421875,-0.13242577219605445,0.33374621692001816,0.3100298257678747
1733851390130351400,5.458351318359375,-0.06827507932484149,0.2144765711560845,0.2283966676980257
1733851390140320300,5.4683203125,-0.04929448452293873,0.11757102515250444,0.1309983697414398
1733851390150288400,5.478288330078125,-0.05561477358564734,0.1593108565121889,0.01641688179373741
1733851390160257300,5.48825732421875,-0.055432402756065126,0.19733751256763934,-0.10090776738226413
1733851390170225400,5.498225341796875,-0.022146949878334998,0.2721776494964957,-0.27381343400478364
1733851390180194300,5.5081943359375,0.08825272234007715,0.31381928117871283,-0.44945817020237444
1733851390190162200,5.518162109375,0.23519056562185287,0.3624795594513416,-0.4565688789904117
1733851390200131000,5.528131103515625,0.27124738290905953,0.34843554426878687,-0.29077450567781926
1733851390210099200,5.53809912109375,0.09879179814159869,0.3184308666273951,0.04729541966021061
1733851390220068000,5.548068115234375,0.03183890733122825,0.2120055048674345,0.21676643565893172
1733851390230037200,5.558037353515625,0.023798808738589285,0.09798720376044512,0.2470487611979246
1733851390240005400,5.56800537109375,-0.07433832488656043,0.08250818733870982,0.20145488475859163
1733851390249974300,5.577974365234375,-0.07916019208505749,0.1310954003751278,0.13328852650523185
1733851390259942400,5.5879423828125,0.015519640693068503,0.2526844289973378,0.045915363478660584
1733851390269911300,5.597911376953125,0.07638005984723567,0.3303632964834571,-0.07603753001987934
1733851390279879400,5.60787939453125,0.1777070755548775,0.31781215020716186,-0.14412380877435207
1733851390289848300,5.617848388671875,0.17357976649180054,0.26414076577425,-0.06405892293453216
1733851390299817200,5.627817138671875,0.10526946972310543,0.1522387261688709,0.02713701325058937
1733851390309785300,5.637785400390625,0.06663724898993968,0.0064472764432430265,0.06286649827957153
1733851390319754200,5.647754150390625,0.0835983206629753,-0.12201952899396419,-0.008554477855563163
1733851390329722000,5.65772216796875,0.11103504751250147,-0.13799655806571245,-0.08903028258383273
1733851390339691300,5.667691162109375,0.056173722642660136,-0.061251172037422655,-0.10079203204810619
1733851390349659100,5.6776591796875,0.04912438865303993,0.03712444651871919,-0.15444646534621714
1733851390359628300,5.687628173828125,0.025434154855459926,0.07654810989052056,-0.11292670647799968
1733851390369596200,5.69759619140625,-0.0481891536295414,0.05881605384498834,-0.042948914888501166
1733851390379565300,5.7075654296875,-0.03441898695230484,-0.024880174234509465,-0.020646482187509536
1733851390389534200,5.7175341796875,-0.044158290678262706,-0.07598346174508333,-0.013770751199126243
1733851390399502300,5.72750244140625,-0.03137713503837585,-0.15101239924430845,-0.044539398950338364
1733851390409471200,5.73747119140625,0.03456511742472648,-0.2019730634137988,-0.10643208376169204
1733851390419439400,5.747439453125,0.023882979890704155,-0.25028613568395375,-0.030624855366349218
1733851390429408300,5.757408203125,-0.03937529418542981,-0.2904085949748754,-0.029611294409632682
1733851390439376400,5.76737646484375,-0.007401800689101219,-0.31538784566968675,-0.09041326137483119
1733851390449345300,5.77734521484375,0.06734861212968826,-0.24861703342795372,-0.10021452442109584
1733851390459314400,5.787314453125,-0.012940291724354028,-0.11575170077085495,-0.03380056279301643
1733851390469282300,5.7972822265625,-0.022431027516722678,-0.03945113590061664,-0.0024848025530576703
1733851390479251500,5.80725146484375,0.01694061340689659,-0.0365337871491909,-0.08295300849676132
1733851390489219000,5.817218994140625,0.015810878724604845,-0.022336334970593452,-0.07052022790312766
1733851390499188200,5.827188232421875,0.007590016737580299,-0.002441547933220863,-0.022239304336905477
1733851390509156400,5.83715625,-0.01597045320048928,-0.0035293431699275966,0.03102174572944641
1733851390519125200,5.847125244140625,0.00007467267140746116,-0.027854221609234807,0.12526187191605567
1733851390529094100,5.85709423828125,0.001868570350855589,-0.08893851264715194,0.12504384525120257
1733851390539062300,5.867062255859375,-0.019607932920008897,-0.08338584695607423,0.10329320121407508
1733851390549031200,5.87703125,-0.014659808993339537,-0.0656806789174676,-0.00961947673857212
1733851390558999300,5.886999267578125,0.042340865992754696,0.016907003398239612,-0.1660468867689371
1733851390568968200,5.89696826171875,-0.04336334090828895,0.09232114082276821,-0.2728156551390886
1733851390578936300,5.906936279296875,-0.02528364046886563,0.1944844612240791,-0.23803309557139873
1733851390588905200,5.9169052734375,-0.06501520074605942,0.2921633296877146,-0.12680208709537982
1733851390598873300,5.926873291015625,-0.0590858106970787,0.20997575260549783,-0.05100421105027198
1733851390608842500,5.936842529296875,-0.03609305764436722,0.04542290378659963,-0.008078677037358284
1733851390618811400,5.946811279296875,-0.03648950961604714,-0.05316869560778141,-0.012443886509537696
1733851390628779300,5.956779296875,0.04212722324207425,-0.11876023493707179,0.02788637031316757
1733851390638748200,5.966748046875,0.005187777901440859,-0.05836626425087452,0.050368835756182666
1733851390648716300,5.97671630859375,0.012447539771348238,0.07184241641759873,0.02787292630970478
1733851390658685200,5.986685302734375,-0.04010214715525508,0.19127514378875493,-0.034904140120744706
1733851390668653300,5.9966533203125,-0.07686740497276187,0.2456917936310172,-0.07393266669511794
1733851390678622200,6.006622314453125,-0.009943740256875753,0.22627982167452573,-0.08327274197041988
1733851390688590300,6.01659033203125,0.04231017859354615,0.17729162662178277,-0.08002806096076964
1733851390698559200,6.026559326171875,0.039868484529852866,0.1114382214859128,-0.13842998104691503
1733851390708528400,6.0365283203125,0.0831440010242164,0.05405804566293954,-0.12747136465907097
1733851390718496300,6.046496337890625,0.10078224130645394,0.06379559582322836,-0.07040683065652847
1733851390728465400,6.05646533203125,0.06854688200354575,0.08056786692589521,0.04330255063176155
1733851390738433300,6.066433349609375,0.005488806674629449,0.11079817001670599,0.0520054970473051
1733851390748402400,6.07640234375,-0.03614654139727354,0.15283990693241356,0.04001286143660545
1733851390758370000,6.0863701171875,-0.03426701126098632,0.1806760083630681,-0.024733459240198135
1733851390768339200,6.096339111328125,-0.06842062527537346,0.2177107307717204,-0.07216916415393353
1733851390778308000,6.10630810546875,-0.008637479963898659,0.1899640611901879,-0.011651859349012373
1733851390788276200,6.116276123046875,0.004621814581751823,0.16012246515601872,0.04031798186302185
1733851390798245000,6.1262451171875,0.018913520915061235,0.10642448497712612,0.09681552963256836
1733851390808213200,6.136213134765625,0.06124518068805337,0.055497723077237604,0.10183598814308643
1733851390818182100,6.14618212890625,0.05713116949796676,0.023795886129140853,0.05808101756870746
1733851390828150300,6.156150390625,0.1599292806714773,-0.042267362365126605,-0.04417933346629142
1733851390838119200,6.166119140625,0.15710983933657408,-0.08320435290932655,-0.12128946115374564
1733851390848087300,6.17608740234375,0.17479089584723115,-0.06397329047769308,-0.2160129869431257
1733851390858056200,6.18605615234375,0.169386406455189,0.00015139116942882537,-0.22625556401610372
1733851390868025300,6.196025390625,0.06463073147311807,0.05448007046729326,-0.19236440033018587
1733851390877993500,6.205993408203125,-0.0024852409444749354,0.08092822467088699,-0.09937047481238842
1733851390887962400,6.21596240234375,-0.05573913061767816,0.06268325066715479,0.03900923735201359
1733851390897930500,6.225930419921875,-0.10884309042617678,0.031126082886755464,0.0798778388351202
1733851390907899400,6.2358994140625,-0.11509352912306785,0.0554889552488923,0.05979483574926853
1733851390917867300,6.2458671875,-0.10806056174635886,0.05686082812398672,0.025738252368569373
1733851390927836200,6.255836181640625,-0.07707564089596271,0.0694058369204402,0.005613748228549957
1733851390937805000,6.26580517578125,-0.035372780545800925,0.03941606458723545,-0.05685819777548313
1733851390947773200,6.275773193359375,0.01927694739997387,-0.040788229723274706,-0.12950550083518028
1733851390957742300,6.285742431640625,0.11515724200904369,-0.06650573156476021,-0.1432774210780859
1733851390967710500,6.29571044921875,0.13058219015598296,-0.04224982670843601,-0.10575696097910403
1733851390977679600,6.3056796875,0.07977496298253536,0.032820027323067186,-0.06899111863970755
1733851390987647500,6.3156474609375,0.005551058255881071,0.09373188440352678,-0.05400806904137134
1733851390997616600,6.32561669921875,-0.015447159978747366,0.13105273027718067,-0.022714520633220672
1733851391007584500,6.33558447265625,-0.09321545931398868,0.16760580664873123,0.014136077380180358
1733851391017553700,6.3455537109375,-0.049349575711041684,0.17963292905092237,0.005367079991102218
1733851391027522600,6.3555224609375,-0.012303601256012917,0.18942104035466908,0.01744505579769611
1733851391037490700,6.36549072265625,0.05939677634239197,0.1537745574340224,0.012562544453144073
1733851391047459600,6.37545947265625,0.13048033721670507,0.08518179046213627,-0.013553309056162833
1733851391057427700,6.385427734375,0.14015709710046648,-0.005101707053184509,-0.045128597015142435
1733851391067396600,6.395396728515625,0.19315628136023877,-0.057277007709443564,-0.06359598159790039
1733851391077364500,6.405364501953125,0.2232856082946062,-0.0210749367326498,-0.14746084424257278
1733851391087333600,6.415333740234375,0.24469313798248765,0.059654550495743745,-0.15982348220944403
1733851391097302800,6.425302734375,0.27815467807948585,0.12382394806742668,-0.15962942094206808
1733851391107270400,6.4352705078125,0.2699345467448234,0.23887597613632677,-0.13242986384928226
1733851391117239600,6.445239501953125,0.2773050755128264,0.35484278096258637,-0.07511924613118172
1733851391127207400,6.45520751953125,0.2813040820211172,0.3806529295235872,-0.020827683973312378
1733851391137176600,6.465176513671875,0.32395109135359523,0.38691345122307536,-0.044568040522933006
1733851391147144400,6.47514453125,0.3924304610788822,0.2880681693285703,-0.17430033585131166
1733851391157113600,6.485113525390625,0.42802623672559853,0.2673074131116271,-0.24460253708958624
1733851391167081500,6.49508154296875,0.46278789963573214,0.2873237807020545,-0.19750819295942781
1733851391177050600,6.505050537109375,0.415567152646929,0.2679921805053949,-0.1392477271705866
1733851391187019500,6.51501953125,0.39053982502669093,0.25976240455955263,-0.045886721906065936
1733851391196987600,6.524987548828125,0.39446284368932244,0.2861006686478853,0.050911272069811817
1733851391206956500,6.53495654296875,0.3787047180652618,0.33289836791902777,0.12796937730908392
1733851391216924700,6.544924560546875,0.3441258643761277,0.3985796313583851,0.1907774233996868
1733851391226893600,6.5548935546875,0.364099561868608,0.4837108606770634,0.1975613844513893
1733851391236861400,6.564861328125,0.3204290547072887,0.4614905533015728,0.12895312764942646
1733851391246830300,6.574830322265625,0.14848390367999673,0.4014814902797341,0.11459259386360644
1733851391256798500,6.584798583984375,-0.008922726646065712,0.39527094520181416,0.12233809342384337
1733851391266767600,6.594767578125,-0.18672844026982782,0.4028437185436487,0.11639584389328955
1733851391276736500,6.604736572265625,-0.3153919373229146,0.389935429392755,0.016771686580777167
1733851391286704600,6.61470458984375,-0.4085542051449418,0.35441432641744613,-0.078287354773283
1733851391296673500,6.624673583984375,-0.42837797277271744,0.36406653638184067,-0.07438391759395599
1733851391306641700,6.6346416015625,-0.5079727568827569,0.36443566195517774,-0.08956102845966815
1733851391316610600,6.644610595703125,-0.49252150525078175,0.2558122056290507,-0.0526245057284832
1733851391326578700,6.65457861328125,-0.48666094265431165,0.09199059369415044,-0.0634995354861021
1733851391336547600,6.664547607421875,-0.501615642940998,-0.06385404801219702,-0.028797639939188956
1733851391346515700,6.674515625,-0.49619215658754107,-0.2246627418667078,0.04382219059169292
1733851391356484600,6.684484619140625,-0.47918578446805477,-0.2761167425110936,0.09170622379481792
1733851391366453800,6.694453857421875,-0.5215700512111187,-0.1666091968268156,0.13614040880501269
1733851391376421400,6.70442138671875,-0.5733154360175132,-0.014030278918147086,0.1722118391394615
1733851391386390500,6.714390625,-0.5326335892781615,0.22940847508907317,0.18225801685750484
1733851391396358400,6.7243583984375,-0.4601356315612793,0.420249319113791,0.17855507068634033
1733851391406327600,6.73432763671875,-0.40447511913776396,0.5026829799115657,0.17666180428564549
1733851391416295400,6.74429541015625,-0.2818146618917584,0.4498913009226322,0.1244154842197895
1733851391426264600,6.7542646484375,-0.1898342973306775,0.3193007813297212,-0.022163316491246223
1733851391436233500,6.7642333984375,-0.08913988043814897,0.17615692350342868,-0.10564648634195327
1733851391446201600,6.77420166015625,0.026888883708417414,0.08225099770724772,-0.18256138371825217
1733851391456170500,6.78417041015625,0.0297977568924427,0.11331921292692422,-0.3043751610070467
1733851391466138600,6.794138671875,0.03308160086870193,0.3402778106458485,-0.3752326580405235
1733851391476107500,6.804107421875,0.08825199168771505,0.6285378492847085,-0.31746669777035713
1733851391486075600,6.81407568359375,0.0630330870181322,0.8587260765746235,-0.2496849549204111
1733851391496044500,6.82404443359375,0.09870382759720087,1.039787284862995,-0.16505962929725645
1733851391506012700,6.8340126953125,0.029626784239709377,1.0397782247737049,-0.08225158222913742
1733851391515981600,6.843981689453125,-0.037811844260990615,0.8814470269486308,0.016966916891932485
1733851391525950700,6.85395068359375,-0.06832564046829938,0.6674322280853986,0.047610476958751674
1733851391535918600,6.863918701171875,-0.030326456941664217,0.4514562121517956,0.15180150379538535
1733851391545887500,6.873887451171875,-0.03483019810169935,0.27923049061745403,0.10006722490489482
1733851391555855600,6.883855712890625,0.025918577371537684,0.15492197390347717,0.0456792166352272
1733851391565824500,6.893824462890625,0.1262038289412856,0.06262903626188636,0.03259586317837238
1733851391575792600,6.903792724609375,0.13073065871596334,0.0800783298432827,0.07140636308789253
1733851391585761500,6.913761474609375,0.022782325172424314,0.2006289553284645,0.1471890415638685
1733851391595729700,6.923729736328125,-0.02497545130252838,0.2771785265237093,0.2321475446641445
1733851391605698600,6.933698486328125,-0.08994505934119224,0.3555279867477715,0.34253158092200753
1733851391615667500,6.94366748046875,-0.21881167775094507,0.44409795834347604,0.3338818259984255
1733851391625635600,6.953635498046875,-0.3495186633303761,0.471013730058819,0.2217950774759054
1733851391635604700,6.963604736328125,-0.2777522347584367,0.43268443779498333,0.08486439507603645
1733851391645572600,6.973572509765625,-0.29185090273767705,0.29806290912032124,0.02504734749495983
1733851391655541800,6.983541748046875,-0.31846856828927994,0.1950055624887347,0.00485854594707489
1733851391665509400,6.99350927734375,-0.3650771747291088,0.11183102019578217,-0.032822657671570776
1733851391675478500,7.003478515625,-0.31446167073547837,0.01156096619516611,-0.09099544517695904
1733851391685446400,7.0134462890625,-0.2576759536743164,-0.01251446752771735,-0.030216274565458296
1733851391695415600,7.02341552734375,-0.1891220574080944,-0.01498757964298129,-0.08388239830136299
1733851391705384400,7.033384521484375,-0.21804741538017988,-0.0010949556298553943,-0.26507892340719696
1733851391715352600,7.0433525390625,-0.14920301173478365,0.03621346915364265,-0.31043314587175846
1733851391725321500,7.053321533203125,-0.03505582355111837,0.09360884254574775,-0.2061497645765543
1733851391735289600,7.06328955078125,0.015302198550105095,0.09244988176897168,-0.10775777940750121
1733851391745258500,7.073258544921875,-0.02359685642570257,0.04079349042028189,-0.08209142323136329
1733851391755226600,7.0832265625,-0.0011930091768503188,-0.0007129705749452114,-0.043236499658226964
1733851391765195500,7.093195556640625,0.026050971579551694,-0.08389467326104641,-0.07960837424397468
1733851391775163600,7.10316357421875,0.028148528380692005,-0.21948672746829687,-0.18139409350454805
1733851391785132500,7.113132568359375,0.09957739556133746,-0.2906347318809479,-0.2441384267091751
1733851391795101700,7.123101806640625,0.026738661582767963,-0.3458790647190064,-0.25938977185487744
1733851391805069600,7.133069580078125,0.014978957945108413,-0.35838133035227654,-0.3397399043768644
1733851391815038700,7.143038818359375,0.10556114614605903,-0.3204695328481495,-0.36055998956561086
1733851391825006600,7.153006591796875,0.23117899189293384,-0.3188721806541085,-0.29632044936716556
1733851391834975500,7.1629755859375,0.26696137615293264,-0.3318890447460115,-0.25693302635252474
1733851391844943600,7.172943603515625,0.31068887419849633,-0.3279241597030312,-0.27505495849847794
1733851391854912500,7.18291259765625,0.354328693960607,-0.3323307240989059,-0.3559527880311012
1733851391864880600,7.192880615234375,0.3219567026659846,-0.25539712202213705,-0.24573767859935758
1733851391874849500,7.202849609375,0.41208442509770393,-0.229057688890025,-0.2158528279453516
1733851391884818400,7.212818359375,0.48875791493356224,-0.13790361908525228,-0.30597149028778076
1733851391894786600,7.22278662109375,0.6546697771459817,-0.08464812197685241,-0.4597060079723596
1733851391904755700,7.232755615234375,0.7174462590545415,-0.07351860600151121,-0.514019781962037
1733851391914723600,7.2427236328125,0.5359624414399266,-0.12563121668510138,-0.6044365504682063
1733851391924692700,7.252692626953125,0.27119185332953927,-0.25285430567152795,-0.4686638059318065
1733851391934660600,7.26266064453125,-0.08691606690883635,-0.40811859020665286,-0.2025765822649002
1733851391944629800,7.272629638671875,-0.298408361557126,-0.592973564754799,-0.0882914469152689
1733851391954598400,7.282598388671875,-0.19227438395917415,-0.687557755138725,-0.09896773923039436
1733851391964567300,7.2925673828125,-0.03929536081701517,-0.6096973205406219,-0.03033025633394718
1733851391974536400,7.302536376953125,0.0786032888546586,-0.34099282704740763,0.07964812173247336
1733851391984504600,7.312504638671875,0.21469605912566184,-0.0596103460278362,0.13033376835286617
1733851391994473500,7.322473388671875,0.21836042685210705,0.10324384564701466,0.0915372969686985
1733851392004441600,7.332441650390625,0.22119301992952822,0.2332255856918171,0.10380758047699927
1733851392014410500,7.342410400390625,0.15908815367221832,0.319400515377149,0.19782851095497608
1733851392024378600,7.352378662109375,0.11334580867290496,0.27924408075138923,0.14496961194872857
1733851392034347500,7.362347412109375,0.05366963086724281,0.17126093162279574,0.0348041868776083
1733851392044315600,7.372315673828125,0.15387889459133147,-0.005220912986062467,-0.044023266121745105
1733851392054284500,7.382284423828125,0.25711189005076884,-0.16026896095462143,-0.08674304842948913
1733851392064253700,7.392253662109375,0.364388607943058,-0.18475553276166318,-0.09449497773051262
1733851392074221600,7.4022216796875,0.38669133290499447,-0.10582681134492158,-0.12063888829052448
1733851392084190700,7.412190673828125,0.24064532389640805,0.013289872347004711,-0.15553250701725482
1733851392094158300,7.422158447265625,-0.007950666743516922,0.16727993569523095,-0.10659165823757648
1733851392104127500,7.43212744140625,-0.1839022769331932,0.33940877272635694,-0.05055296015143394
1733851392114095400,7.442095458984375,-0.16339286512881515,0.36329306779131293,-0.10890168874561786
1733851392124064500,7.452064453125,-0.16715864740312097,0.18293076501991598,-0.21028291885852812
1733851392134032400,7.462032470703125,-0.203891756516695,0.05526508336514234,-0.09385667982697486
1733851392144001500,7.47200146484375,-0.22283435739576815,-0.1516995595245622,0.013583119672536849
1733851392153970400,7.481970458984375,-0.25349545311927796,-0.31003859359622,0.06649345660507679
1733851392163938600,7.4919384765625,-0.13121610414534807,-0.35915797728057947,0.13294424311220646
1733851392173907500,7.501907470703125,-0.09909516500234604,-0.36674912652932107,0.17824819669425487
1733851392183875600,7.51187548828125,-0.15793986041992902,-0.25949502232763916,0.16962240716814994
1733851392193844500,7.521844482421875,-0.19790040714740753,-0.1250760487540625,0.12154139008820056
1733851392203812600,7.5318125,-0.3076169194072485,-0.07409697214504704,-0.00858604203760624
1733851392213781500,7.541781494140625,-0.4266980568617582,0.04364379268432967,-0.03703530693054199
1733851392223749600,7.55174951171875,-0.41320144642889495,0.1713729954288341,0.14717384399473665
1733851392233718500,7.561718505859375,-0.3714508014142513,0.19339177061654625,0.24077158062458037
1733851392243687700,7.571687744140625,-0.42403234478384255,0.07484984547211788,0.18505203149020671
1733851392253655600,7.581655517578125,-0.3267389685064554,-0.1739685100810602,-0.01172609362900257
1733851392263624400,7.59162451171875,-0.15824001241028307,-0.3862123537490144,-0.15294833574295044
1733851392273592600,7.601592529296875,-0.08099749051481485,-0.4437386965770274,-0.15695640234053135
1733851392283561500,7.6115615234375,-0.10148878214061259,-0.4578395565133542,-0.2330184822797775
1733851392293529600,7.621529541015625,-0.1594376977622509,-0.3733808926939964,-0.30338322736024853
1733851392303498500,7.63149853515625,-0.1720025803029537,-0.24431367367822676,-0.15669979723095892
1733851392313466600,7.641466552734375,-0.2109463512033224,-0.08054801144795491,0.004230769437551498
1733851392323435500,7.651435546875,-0.2736620428353548,0.05141775115407072,0.08747311626970768
1733851392333404400,7.661404296875,-0.2160924819201231,0.06964360033222473,0.04068506160974502
1733851392343372500,7.67137255859375,-0.15241700534522531,0.034189881771011274,-0.1788046615332365
1733851392353341700,7.681341796875,0.018975918626785278,-0.037060628601466306,-0.395702030095458
1733851392363309600,7.6913095703125,0.10475742854773998,-0.1497189710334409,-0.5305430467396974
1733851392373278700,7.70127880859375,0.09754705877751112,-0.24946756757637484,-0.5449456661015749
1733851392383246300,7.711246337890625,0.0297106631308794,-0.3820820855438709,-0.36297406497001644
1733851392393215500,7.721215576171875,0.007833470104634761,-0.6331455622758716,-0.24839023893475531
1733851392403183400,7.731183349609375,0.02822363944351673,-0.8089563757553696,-0.1604787312477827
1733851392413152500,7.741152587890625,0.13157763093411923,-0.8645770676251501,-0.028501287341117856
1733851392423121400,7.751121337890625,0.1464806010335684,-0.8430708268031477,0.10184943214654922
1733851392433089500,7.761089599609375,0.183309571737051,-0.6781214529473334,0.1860802054941654
1733851392443058400,7.771058349609375,0.020281740528345107,-0.5109001155715436,0.2031903302490711
1733851392453026600,7.781026611328125,-0.10394026694595813,-0.26298849046658723,0.2175941186547279
1733851392462995500,7.790995361328125,-0.08985445844829082,-0.11563733540987595,0.17588497469425202
1733851392472963600,7.800963623046875,-0.13861498222500085,-0.07610767264664173,0.1259106912136078
1733851392482932500,7.810932373046875,-0.1579214479804039,-0.14344483180055395,0.08466448858976364
1733851392492900600,7.820900634765625,-0.1070136830419302,-0.2443011429902166,0.12714520144462585
1733851392502869500,7.830869384765625,-0.08497866910547018,-0.304309767620638,0.19239888712167738
1733851392512838700,7.840838623046875,-0.027314123383164406,-0.3495674343755468,0.046342648980021474
1733851392522806500,7.850806640625,-0.036706221106648444,-0.33171916807182134,-0.019637597405910492
1733851392532775700,7.860775634765625,-0.10624854388833045,-0.26393117814417927,-0.04241407735943794
1733851392542743600,7.87074365234375,-0.09355360522717238,-0.1555850043894723,0.01108604215979576
1733851392552712400,7.88071240234375,-0.15758710145950316,-0.0478382852321025,0.03439911320805549
1733851392562680600,7.8906806640625,-0.18376345298439264,0.03629101876872592,0.06618658261299133
1733851392572649500,7.9006494140625,-0.21248247472941875,0.09221579901846125,0.029316695377230643
1733851392582617600,7.91061767578125,-0.20384148763418197,0.13977828125017694,0.009047229808568953
1733851392592586500,7.92058642578125,-0.22424042480140924,0.12426180062857456,0.03388298037946224
1733851392602555400,7.930555419921875,-0.22654197974205015,0.14739497593212872,0.08175240053534508
1733851392612523500,7.9405234375,-0.23081132762432097,0.17862682074829936,0.16143033288419245
1733851392622492700,7.95049267578125,-0.25020634844601153,0.12539373640110715,0.11852759522497654
1733851392632460500,7.96046044921875,-0.2133990050524473,0.023015293678082523,0.03593815934360027
1733851392642429700,7.9704296875,-0.13433832781910895,-0.10319310184046626,-0.05140519306659698
1733851392652397600,7.9803974609375,-0.12028583706915377,-0.13960967408446595,-0.060602645000815386
1733851392662366700,7.99036669921875,-0.12240122178792953,-0.08048970538945868,-0.03555997368097305
1733851392672334300,8.000334228515625,-0.12063947281241416,0.011025952852878253,0.013002104914188383
1733851392682303500,8.010303466796875,-0.12472995699644088,0.124123670799518,0.029345336949825284
1733851392692272400,8.0202724609375,-0.1115969191789627,0.2191233192496933,0.01928162357509136
1733851392702240500,8.030240478515625,-0.010944295601546764,0.2801670408152044,-0.016821955463290215
1733851392712209400,8.04020947265625,0.017799276062846182,0.2829762712833471,0.011906710892915725
1733851392722177500,8.050177490234375,0.01855798547565937,0.22293809176487847,-0.016780454409122465
1733851392732146400,8.060146484375,0.13661796318888664,0.06588684618116822,-0.14506956519186495
1733851392742114600,8.070114501953125,0.21841040347367524,-0.07718962266445159,-0.19251403793394564
1733851392752083500,8.08008349609375,0.24061229840964077,-0.17128862334731965,-0.2373153026908636
1733851392762051600,8.090051513671876,0.2317410096898675,-0.20710750369280576,-0.29421675508618356
1733851392772020500,8.1000205078125,0.19413345582932232,-0.15206451124628073,-0.23072131125330925
1733851392781989600,8.10998974609375,0.21256021614074705,-0.03315750194939319,-0.1645347286403179
1733851392791957500,8.11995751953125,0.17724223452210425,0.0823328490381129,-0.14852993477880955
1733851392801926700,8.1299267578125,0.1554661637827754,0.13576740164100193,-0.14585340904593466
1733851392811894500,8.13989453125,0.14189298098236322,0.16402389304134993,-0.10559563293755053
1733851392821863400,8.149863525390625,0.1191349134683609,0.1226931630723644,-0.08526888422369956
1733851392831831600,8.15983154296875,0.09379939668178558,0.07266917696478777,-0.04264145637452602
1733851392841800400,8.169800537109374,0.15063947427868843,0.023194760164525357,-0.012096095985174178
1733851392851768600,8.1797685546875,0.07478928352445363,0.008662609838577919,-0.07534428705871105
1733851392861737500,8.189737548828125,0.06416296783089637,0.03030991679881699,-0.07184416998326779
1733851392871705600,8.19970556640625,0.08381050210893154,0.06780093617418315,-0.010630699607729912
1733851392881674500,8.209674560546874,0.008708207112550735,0.06223094945554621,-0.0287391877502203
1733851392891643600,8.2196435546875,-0.00005932897180318832,0.057008237238042055,-0.06672200466394423
1733851392901611500,8.229611572265625,0.0100865097284317,0.0762156173999887,-0.06060790569782257
1733851392911580700,8.23958056640625,0.005323825371265411,0.06293595591974445,-0.015849895560741425
1733851392921548500,8.249548583984375,0.05559738405942916,0.03364682440287434,-0.032528643161058426
1733851392931517700,8.259517578125,0.01758592557311058,0.019015958376228808,-0.04447627058625221
1733851392941485300,8.2694853515625,0.05864215858280658,-0.004942214775690809,-0.06751344730257988
1733851392951454700,8.279454833984374,0.11607172650545834,-0.013040509828971697,-0.091532620793581
1733851392961422300,8.28942236328125,0.13460340849608182,-0.013505844052089377,-0.09806640647649764
1733851392971391500,8.2993916015625,0.22771569969654082,0.026426773488847536,-0.11464403178989886
1733851392981360400,8.3093603515625,0.26674481079280377,0.10218821738054976,-0.154666830098629
1733851392991328500,8.31932861328125,0.2064738819643855,0.17454364308789372,-0.14099194048941135
1733851393001297400,8.32929736328125,0.1460398715287447,0.16115549799818546,-0.15414543657302857
1733851393011265300,8.339265380859375,0.19841303284466266,0.1191770629765,-0.21471359478235244
1733851393021234400,8.349234375,0.28732874913811685,0.03631467363894917,-0.25650048015415666
1733851393031202300,8.359202392578124,0.2365910800695419,-0.015078838123008607,-0.26942367461323735
1733851393041171200,8.369171142578125,0.1879056673556566,-0.04852408467233181,-0.27229718422293664
1733851393051139300,8.379139404296875,0.2420160277277231,-0.10445771494880318,-0.1411333947867155
1733851393061108200,8.389108154296874,0.1856102498948574,-0.1206994411050342,-0.02576981655061245
1733851393071077400,8.399077392578125,0.13638912286907434,-0.08919363818569108,0.12557985182404519
1733851393081045500,8.40904541015625,0.07855272771120071,-0.0467799626850523,0.23365736470520496
1733851393091014400,8.419014404296876,0.05334989739358425,0.008651910348050296,0.2599257784277201
1733851393100982500,8.428982421875,0.04965864166021347,0.03297066957382485,0.22814999946057796
1733851393110951400,8.438951416015625,-0.03676876494884491,0.056296161712240424,0.18153730136752128
1733851393120919600,8.44891943359375,-0.13687544508129357,0.08605439031189308,0.16677344747781753
1733851393130888400,8.458888427734376,-0.11992460254132747,0.061667552552279084,0.12710662299990652
1733851393140856600,8.468856689453125,-0.1109042607396841,-0.0150264686149545,0.02631049929857254
1733851393150825500,8.478825439453125,-0.08349953646361827,-0.06024283524509519,-0.027088497933745383
1733851393160794600,8.488794677734376,-0.06961012732088566,-0.10975404952494427,-0.09730652801990508
1733851393170762200,8.49876220703125,-0.10457213510870933,-0.13104312219861894,-0.0780997232466936
1733851393180731400,8.5087314453125,-0.08912760547846556,-0.09958985318411141,-0.02681026551425457
1733851393190699300,8.51869921875,-0.051686932617425914,-0.029415296913497146,-0.005182371073961258
1733851393200668400,8.52866845703125,-0.10568740287423133,0.041855256166588514,0.05280570751428604
1733851393210636300,8.53863623046875,-0.09668518125116825,0.09008534459471702,0.0901210004299879
1733851393220605400,8.54860546875,-0.12202069803774356,0.13761970584364608,0.03882686652243137
1733851393230573300,8.5585732421875,-0.10544541081190109,0.1623524344314821,-0.0016617957323789595
1733851393240542500,8.56854248046875,-0.14242811077237127,0.1634268039310351,-0.029429508101940154
1733851393250510300,8.57851025390625,-0.20145839188992976,0.1599845179900527,-0.04691840304136276
1733851393260479500,8.5884794921875,-0.1716238101184368,0.15415402173828333,0.03759060272574424
1733851393270448400,8.598448486328126,-0.10689619414210319,0.12351183164464309,0.054338323909044264
1733851393280416500,8.60841650390625,-0.07321896546781062,0.08252780535463243,0.015705518653988837
1733851393290385400,8.618385498046875,-0.01221884558200836,0.10749732010671868,-0.009433598777651786
1733851393300353300,8.628353271484375,0.02617489022016525,0.1385800570420921,-0.05768120459616184
1733851393310322200,8.638322265625,0.07978899150788783,0.12053232264351099,-0.055340778949856756
1733851393320290300,8.648290283203124,0.11367255640923976,0.17073884397745132,0.0012765958070755003
1733851393330259200,8.65825927734375,0.1603571506947279,0.20852767268903552,-0.012218261060118675
1733851393340227300,8.668227294921875,0.21325755075514316,0.23316567219812423,0.002294248417019844
1733851393350196500,8.678196533203124,0.13653437655866146,0.28158918257281185,-0.021844752061367035
1733851393360165400,8.688165283203125,0.14348112695664167,0.33247791401725263,-0.06712357120215892
1733851393370133500,8.698133544921875,0.23426146807819603,0.32001046396903693,-0.17812778518497943
1733851393380102400,8.708102294921876,0.2430003625899553,0.28487375720143315,-0.2823229036748409
1733851393390070500,8.718070556640624,0.2725046894937754,0.2486804905856028,-0.29453707308173177
1733851393400039400,8.728039306640625,0.3622399054765701,0.1968944084426388,-0.26107728655040263
1733851393410007600,8.738007568359375,0.36613545161038635,0.18451558652594685,-0.14936930821239947
1733851393419976400,8.7479765625,0.31132308044880624,0.18917108418159187,-0.11584230166375636
1733851393429944600,8.757944580078124,0.36419746928513047,0.12723616766370832,-0.09372574692368507
1733851393439913500,8.76791357421875,0.2653396201699972,0.10430237825661898,-0.026686346873641013
1733851393449882600,8.777882568359376,0.1167708146855235,0.15186974672600626,0.02007072812616825
1733851393459850200,8.787850341796876,0.061820204097032545,0.14246303595528007,-0.005582768568396568
1733851393469819400,8.7978193359375,0.02119476372003555,0.08260229536294937,-0.00445814845263958
1733851393479787300,8.807787353515625,-0.035443946085870266,0.07737184736356138,0.04538461760282516
1733851393489756400,8.81775634765625,-0.059494976019859314,0.06735350750051439,0.0006067337214946747
1733851393499724300,8.827724365234374,-0.12641630264818668,0.055153439684212206,-0.057605216750502584
1733851393509693400,8.837693359375,-0.2351408812612295,0.050636546781659124,-0.06319616862535476
1733851393519661300,8.847661376953125,-0.2076747821867466,-0.02773205653429031,-0.07408171977698802
1733851393529630500,8.85763037109375,-0.08974164572358131,-0.19378975695818662,-0.07507832959890365
1733851393539598600,8.8675986328125,-0.05713584567308425,-0.3202776635378599,-0.05647475141584873
1733851393549567500,8.8775673828125,-0.025201076751947403,-0.36629122669398784,-0.06344751303792
1733851393559536400,8.887536376953125,0.17416238868534564,-0.3047933864191174,-0.10612053359448909
1733851393569504500,8.89750439453125,0.046582595215737814,-0.12678265174254774,-0.1270253744572401
1733851393579473400,8.907473388671875,-0.07236731707453728,0.007524988677352667,-0.05765548563301563
1733851393589441300,8.917441162109375,-0.015560557225346563,0.09433467260226606,0.04428396288454532
1733851393599410200,8.92741015625,-0.04872311437577009,0.13303046009093522,-0.010840542966127395
1733851393609378300,8.93737841796875,-0.004053074783086776,0.1164730007827282,-0.06619476591944694
1733851393619347500,8.947347412109375,0.15914719038307665,0.10719283900111913,-0.06425415324568748
1733851393629315300,8.9573154296875,0.2126975787848234,0.04422112678140402,-0.08421206864714623
1733851393639284500,8.967284423828126,0.24107933139950036,0.05934650745987892,-0.06750877112746238
1733851393649253400,8.97725341796875,0.24537264467924833,0.09008096068054437,-0.07428980956971645
1733851393659221500,8.987221435546875,0.22206804919838904,0.12108093296959996,-0.14902210220992565
1733851393669190400,8.9971904296875,0.06559066254645586,0.149337597899884,-0.1248468613743782
1733851393679158500,9.007158447265626,0.03503945693820715,0.16466113149896264,0.02632394330203533
1733851393689127400,9.01712744140625,-0.0644034985885024,0.17693419148623943,0.08275544009804725
1733851393699095600,9.027095458984375,-0.13404460556954145,0.218542359290272,0.04681085101366043
1733851393709064400,9.037064453125,-0.05736877764612436,0.20644436360895632,0.0334837519288063
1733851393719032300,9.0470322265625,-0.14157938498854636,0.1709749908208847,0.08058160319030284
1733851393729001200,9.057001220703125,-0.0009133154526352882,0.08893091386258602,0.06697510264217853
1733851393738970400,9.066970458984375,0.05948562366962432,0.0743603905878961,-0.026817864298820493
1733851393748938200,9.076938232421876,0.07772182984501123,0.10120148963183163,-0.03466799327731132
1733851393758907400,9.086907470703125,0.152906250166893,0.06103533732965588,-0.049882513543963426
1733851393768875300,9.096875244140625,0.15870003113746642,0.0868164059266448,-0.04794190087020397
1733851393778844400,9.106844482421875,0.023047113588452336,0.10435147809535264,-0.06447685608565806
1733851393788812300,9.116812255859376,0.004690203642845153,0.10892243927270173,-0.08733809171319007
1733851393798781400,9.126781494140625,-0.015391045877337455,0.13906798668950796,-0.13871405868530273
1733851393808749300,9.136749267578125,-0.05889467203915119,0.20778788717240093,-0.2394189969718456
1733851393818718500,9.146718505859376,0.010602350296080112,0.2429644144937396,-0.33818799875974653
1733851393828686600,9.1566865234375,0.030401568004488944,0.23058628669679163,-0.41128129202127456
1733851393838655500,9.166655517578125,-0.08161737597882747,0.16733663431853055,-0.31299042913913727
1733851393848624400,9.176624267578125,-0.14818652816861866,0.1843815848827362,-0.13526713310182092
1733851393858592500,9.186592529296876,-0.23852117134928702,0.16011223602294922,-0.11564297969937323
1733851393868561400,9.1965615234375,-0.20815584370195864,0.13586656029969452,-0.1789355944365263
1733851393878529300,9.206529296875,-0.14306933128535745,0.1161477143511176,-0.21334172190725803
1733851393888498400,9.21649853515625,-0.22853870651721953,0.08696107509434223,-0.11526479403674601
1733851393898466300,9.22646630859375,-0.25161066228598356,-0.006598375351727009,-0.0505722493737936
1733851393908435500,9.236435546875,-0.1797787672623992,-0.08542115217596292,-0.06431260543465614
1733851393918403300,9.2464033203125,-0.10260463442802428,-0.13579437184631823,-0.1638198583692312
1733851393928372500,9.25637255859375,-0.04182721738219261,-0.1638926313444972,-0.19861703098416328
1733851393938341400,9.26634130859375,-0.11169979503154753,-0.2235746543690562,-0.23497370800077913
1733851393948309500,9.2763095703125,-0.15939678122997283,-0.09024959524571895,-0.10574176340997218
1733851393958277400,9.28627734375,-0.27101620450168845,0.02175385890752077,-0.040182957306504244
1733851393968245500,9.29624560546875,-0.26735300581902266,0.13191811493486166,0.05688450126051903
1733851393978214400,9.30621435546875,-0.28141835605055093,0.17338555909395217,0.06838146230876445
1733851393988182300,9.316182373046875,-0.24790654707103965,0.03958002297729254,0.2075520325899124
1733851393998151400,9.3261513671875,-0.2201546167925,-0.05654401725977659,0.3606979367315769
1733851394008119300,9.336119384765626,-0.19181524201482533,-0.16060381893217562,0.24144202723205088
1733851394018088400,9.34608837890625,-0.2324547109171748,-0.22411095320284366,0.07424538590610028
1733851394028056300,9.356056396484375,-0.22449644538909194,-0.2674181800097227,0.007792261311411857
1733851394038025500,9.366025390625,-0.13345569976568222,-0.2347486670732498,-0.03207797678411007
1733851394047994400,9.375994384765624,-0.05526186849474907,-0.24455928246974942,-0.06559270837306976
1733851394057962500,9.38596240234375,0.003974164327979088,-0.2780994407609105,-0.07157587443590163
1733851394067931400,9.395931396484375,-0.01790039834976196,-0.23781857603788376,-0.20444003804922103
1733851394077899500,9.4058994140625,-0.1478977743551135,-0.3435951185002923,-0.33244039501845835
1733851394087868400,9.415868408203124,-0.4814958149760961,-0.3284861044347286,-0.14507482588887213
1733851394097836500,9.42583642578125,-0.7502592721149325,-0.1471045781508088,0.14281564878523348
1733851394107805400,9.435805419921875,-0.9033744888573885,0.12491115878224372,0.3498801901191473
1733851394117773300,9.445773193359376,-0.8325342352196574,0.35283290244489907,0.3365817326068878
1733851394127742200,9.4557421875,-0.6893865780010819,0.4698880870297551,0.34182957013249393
1733851394137710300,9.46571044921875,-0.5783049148678779,0.38146249234080315,0.4431500099688768
1733851394147679200,9.47567919921875,-0.3422904656425118,0.12422113069146871,0.49741293055415153
1733851394157648400,9.4856484375,0.007837561757862568,-0.3054351914539933,0.353588396987319
1733851394167616300,9.4956162109375,0.04571721055805683,-0.7120066983491182,0.13923720577657223
1733851394177585400,9.50558544921875,-0.19119915594309567,-0.8513450264126062,-0.015262451061606406
1733851394187553300,9.51555322265625,-0.5122942733436823,-0.8471832305580377,-0.08521218560039996
1733851394197522400,9.5255224609375,-0.5779144542455673,-0.6744213563203811,-0.18183774561882018
1733851394207490600,9.535490478515625,-0.7085743858128786,-0.4020522759050131,-0.253183902952075
1733851394217459500,9.54545947265625,-0.825898304336518,-0.18723229813873768,-0.3013292174398899
1733851394227427600,9.555427490234376,-0.913430457317084,-0.19314707514047622,-0.2560200031608343
1733851394237396500,9.565396484375,-0.9092610626779496,-0.3496042957872152,-0.15858721841275691
1733851394247365400,9.575365478515625,-0.8487725455760955,-0.5715022491157055,-0.015248422536253928
1733851394257333200,9.585333251953125,-0.7466460500538349,-0.7457797886133194,0.059282210052013395
1733851394267302400,9.595302490234374,-0.6775412419065833,-0.8529191438615321,0.09020867871344089
1733851394277270300,9.605270263671875,-0.5165554379194974,-0.8822352547168731,0.11422902124822139
1733851394287239400,9.615239501953125,-0.36836452583670615,-1.0421329712063074,0.10813830315768717
1733851394297207300,9.625207275390625,-0.25521628556251524,-1.1593500683546065,0.155106975081563
1733851394307176400,9.635176513671874,-0.32220468607768415,-1.1909148349195717,0.23178806370198726
1733851394317144300,9.645144287109375,-0.21940905912220476,-1.1481897919148205,0.18024901512265204
1733851394327113500,9.655113525390625,0.04440978122130036,-1.059401501393318,-0.10992051039934157
1733851394337081300,9.665081298828126,0.06755377931296826,-0.8947416850686073,-0.25486440338492394
1733851394347050500,9.675050537109374,-0.1570107628762722,-0.6462865642040968,-0.21521979073882103
1733851394357019400,9.685019287109375,-0.060392947772890324,-0.2549175948768854,-0.11118190863728522
1733851394366987500,9.694987548828125,0.05284954665601253,-0.07260054130852223,-0.012814473387598991
1733851394376956400,9.704956298828124,0.0022620997130870816,-0.05603811356425285,0.10475333689451218
1733851394386924500,9.714924560546875,-0.06690028384029865,-0.08713993879258632,0.22850889590084553
1733851394396893400,9.7248935546875,0.048891602810472244,-0.04522270503938198,0.33332886829078195
1733851394406861300,9.734861328125,0.13073007419407368,-0.11179507209956645,0.2973112139701843
1733851394416830200,9.744830322265624,0.04490297156572342,-0.22190964376628397,0.2979039191663265
1733851394426798300,9.75479833984375,0.19376769125685095,-0.3127934452623129,0.2372498362392187
1733851394436767200,9.764767333984375,0.3413483624868095,-0.28436463863551614,0.13685761716365813
1733851394446735400,9.7747353515625,0.32044724795110524,-0.10481997238993644,0.013288520640134811
1733851394456704300,9.784704345703124,0.2766941040076315,-0.04766776010394096,-0.12152151634395122
1733851394466673400,9.79467333984375,0.22557116194851695,0.0707891079723835,-0.16603987250626087
1733851394476641500,9.8046416015625,0.20588563374765217,0.165123926705122,-0.05781389106512069
1733851394486610400,9.8146103515625,0.0651210722733289,0.21239070479273794,0.007287234398722648
1733851394496578600,9.82457861328125,0.049435427363589406,0.2561848383337259,-0.04157704201340675
1733851394506547500,9.83454736328125,0.19594810403585433,0.2723334245800972,-0.06593991437554358
1733851394516515600,9.844515625,0.24206162043511867,0.1929687959641218,-0.01603694256544113
1733851394526484500,9.854484375,0.16858422322683037,0.06985679555833339,-0.008510054191946982
1733851394536452400,9.864452392578125,0.24932905415482817,-0.009084639209508895,-0.07241232526004314
1733851394546421200,9.874421142578125,0.1571119582284242,-0.1281283672630787,-0.1609066012710333
1733851394556390400,9.884390380859376,0.23205405769441276,-0.07015139459073542,-0.21953999202549457
1733851394566358300,9.894358154296874,0.18874854792058468,-0.09688859486877918,-0.3139443688631058
1733851394576327400,9.904327392578125,0.17774024717211723,-0.06600245821774005,-0.2521680039077997
1733851394586295300,9.91429541015625,0.18696637721154838,-0.04866027827262878,-0.1753536442965269
1733851394596264400,9.924264404296874,0.07019757182002068,-0.006485270366072654,-0.09349076912403106
1733851394606232300,9.934232421875,0.04192183686308563,0.10253098466992377,0.0714338356167078
1733851394616201500,9.944201416015625,0.05470189652442932,0.23829613042175768,0.2793482717782259
1733851394626169300,9.95416943359375,0.13035309410784393,0.4214344372451305,0.3942740431189537
1733851394636138500,9.964138427734374,0.18758476483821868,0.4676631044566631,0.39962534101903435
1733851394646106400,9.9741064453125,0.15025135174393653,0.5380056377053261,0.3187789494127035
1733851394656075500,9.984075439453125,0.22560382210910318,0.645523178616166,0.16167933920919894
1733851394666044400,9.99404443359375,0.21639179366026073,0.6260170986354351,-0.05360124180614948
1733851394676012300,10.00401220703125,0.20074293709695337,0.5460603493452072,-0.25098025542795654
1733851394685981400,10.0139814453125,0.08472527886629104,0.4295826723873615,-0.28940087923705576
1733851394695949300,10.02394921875,-0.08861172837819904,0.3272533477693796,-0.2337771916925907
1733851394705918200,10.033918212890624,-0.0701478509267792,0.2893938649743795,-0.20354922668933867
1733851394715886300,10.04388623046875,-0.0027244199952110647,0.29270050530433656,-0.3003571575373411
1733851394725855200,10.053855224609375,0.04550568669922649,0.2597527599483728,-0.43323125802278517
1733851394735823400,10.0638232421875,0.1252777270723134,0.2771896324396133,-0.42921091646552084
1733851394745792500,10.07379248046875,0.07212126989159733,0.2786772406488657,-0.3636088557422161
1733851394755760400,10.083760498046875,-0.05524024118483066,0.2828852137327194,-0.2676169174522161
1733851394765729500,10.0937294921875,0.014498554017022252,0.26173487367630005,-0.1713800644904375
1733851394775698400,10.103698486328126,0.010440729993581772,0.21857202377617357,-0.14216449140012263
1733851394785666600,10.11366650390625,-0.026525018832087514,0.12238251708745956,-0.05827215622663497
1733851394795635500,10.123635498046875,0.07668284218609332,0.10790975509881973,-0.10246785630583763
1733851394805603600,10.133603515625,0.2623638192296028,0.0602928483992815,-0.22306933519542216
1733851394815572500,10.143572509765624,0.25874391169939187,-0.060735915991663926,-0.24837445684373377
1733851394825540400,10.153540283203125,0.13683602638635783,-0.10869476799666881,-0.10315350048243999
1733851394835509200,10.16350927734375,0.043244682964682576,-0.10826339084208011,0.02946633298099041
1733851394845477400,10.173477294921875,0.09207918529305606,-0.1409726512670517,0.025219196930527685
1733851394855446300,10.1834462890625,0.19820435853004453,-0.1416992119759321,-0.09350888930261135
1733851394865414400,10.193414306640625,0.226854187496379,-0.22868600603342054,-0.22025018612146377
1733851394875383300,10.20338330078125,0.29759357457552105,-0.29658640682697296,-0.2408651041269302
1733851394885352400,10.2133525390625,0.2634347363967448,-0.3539256661176681,-0.16325930187702178
1733851394895320300,10.2233203125,-0.03952244757115841,-0.3573299216032028,0.08848609270453453
1733851394905289500,10.23328955078125,-0.2202834673365578,-0.2898340099573135,0.25380875685214993
1733851394915257300,10.24325732421875,-0.19391579449065027,-0.18177812438607216,0.15837971314191818
1733851394925226500,10.2532265625,0.043412513812258836,-0.2367360414981842,-0.021250877821445465
1733851394935194400,10.2631943359375,0.15403963811099528,-0.42283612073659893,-0.014015665870904921
1733851394945163500,10.27316357421875,0.06321954950094223,-0.5067284559100866,0.11396306378841399
1733851394955131400,10.28313134765625,-0.03982398780100047,-0.5654150381565094,0.1623252358973026
1733851394965101000,10.29310107421875,-0.25825631084553896,-0.5748346084088086,0.07711305029690266
1733851394975069000,10.30306884765625,0.0024690204620361326,-0.3760813838243484,-0.11042378374636172
1733851394985037800,10.313037841796875,0.190133207212016,-0.2569499774873257,-0.30094869368970395
1733851394995006700,10.3230068359375,0.11982464929819106,-0.23255086476802825,-0.1008265188395977
1733851395004974800,10.332974853515625,0.0691635525971651,-0.12718085727989673,0.23594576790332794
1733851395014943700,10.34294384765625,0.13287483113780618,0.035030396848917005,0.3808405610501766
1733851395024912000,10.352911865234375,0.1492601487495005,0.07842764002680779,0.29338673400282855
1733851395034880800,10.362880859375,0.31700792115218934,0.12721943572461605,0.13904898972809313
1733851395044849000,10.372848876953125,0.21366846964359282,-0.0311398191511631,0.0076326868355274195
1733851395054817800,10.38281787109375,-0.24480931170806286,-0.06967676281630993,0.15134791480898857
1733851395064786000,10.392785888671876,-0.3024472616843879,0.07082651737332343,0.2521516372948885
1733851395074755000,10.402755126953124,0.09699278589561582,0.2624807236075401,0.17892741113007068
1733851395084724000,10.412723876953125,0.2687589270941913,0.130749947938323,-0.08811784391403198
1733851395094692000,10.422692138671875,0.2967934737063944,-0.06254384219646454,-0.2732885333478451
1733851395104661000,10.432660888671874,0.298926832473278,-0.029288053804636,-0.2607119603693485
1733851395114628900,10.44262890625,0.1666222024388611,0.07255553312301635,-0.2814034507423639
1733851395124597800,10.45259765625,-0.00726253834888339,0.39832302624881266,-0.4242629386693239
1733851395134566000,10.46256591796875,-0.2031860924653709,0.6460889958053827,-0.3538450020968914
1733851395144534800,10.47253466796875,-0.31191637016683815,0.9651075991928577,-0.05346680177152156
1733851395154503000,10.4825029296875,-0.439427190053463,1.0469961933284997,0.21452128708064555
1733851395164471800,10.492471923828125,-0.24698650961667298,0.9054185619056224,0.36163258723318575
1733851395174440000,10.50243994140625,0.022578619293868542,0.6070739132344722,0.38273207388520236
1733851395184408800,10.512408935546874,0.17256898201406,0.2054302181303501,0.40696225977838035
1733851395194378000,10.5223779296875,0.14407017889097332,-0.13851707480847836,0.3937193318456411
1733851395204345900,10.532345947265625,0.19454203663021324,-0.2812304322630167,0.22857202426493167
1733851395214315000,10.54231494140625,0.372635627284646,-0.02964052050411701,-0.1316308224260807
1733851395224283000,10.552282958984375,0.39806379079073667,0.1416653097063303,-0.43356268193423747
1733851395234252000,10.562251953125,0.33179712867885824,0.13877426443994045,-0.5520926152467728
1733851395244220000,10.572219970703125,0.08190671431422233,0.0807446847975254,-0.5179448464512825
1733851395254189000,10.58218896484375,-0.13193009763360022,0.02914601498544216,-0.5844751279354096
1733851395264157000,10.592156982421875,-0.11881576451659202,-0.08909165738224983,-0.5020388367891311
1733851395274125800,10.602125732421875,0.04149170181751251,0.026804420295357703,-0.445786788213253
1733851395284094000,10.612093994140626,0.28788258362859487,0.20333178454637527,-0.5219657725304365
1733851395294062800,10.622062744140624,0.36676468942463397,0.10940671565830706,-0.43344227042496203
1733851395304031700,10.63203173828125,0.23113252240270374,-0.14172317737340925,-0.24797113673985002
1733851395314000000,10.641999755859375,0.07001987716555595,-0.31962066093385216,-0.11995032150447368
1733851395323968800,10.65196875,0.07668342670798302,-0.49111879884600634,-0.0815986712783575
1733851395333937000,10.66193701171875,0.07528466582596302,-0.4896525256857276,-0.05243979681134223
1733851395343906000,10.671906005859375,0.1851128217667341,-0.20786358275711536,-0.2007978821545839
1733851395353874000,10.6818740234375,0.33618367320001125,-0.06257832898795604,-0.4433253665357828
1733851395363843000,10.691843017578124,0.46044250555336474,-0.04811111995726824,-0.5444850628525019
1733851395373811000,10.70181103515625,0.50914662296772,-0.10468319426774977,-0.5566501324206591
1733851395383780000,10.711780029296875,0.419624465213716,-0.20970307314395903,-0.48341713842749595
1733851395393747700,10.721747802734376,0.30327859794199463,-0.3926867739275098,-0.46238837892413137
1733851395403716900,10.731716796875,0.20277970362156628,-0.4302902361348271,-0.4424181885629892
1733851395413685800,10.741685791015625,0.29100831443369385,-0.3380579426392913,-0.3883732946425676
1733851395423654000,10.75165380859375,0.1631947122082114,-0.2805865814015269,-0.29520518160164355
1733851395433622800,10.761622802734376,0.04520721520930528,-0.251253519411385,-0.14523381584286688
1733851395443591000,10.7715908203125,0.05451484951972961,-0.1593696009621024,-0.028863106390833854
1733851395453559800,10.781559814453125,0.13599603189826012,-0.21499358076751232,-0.013632219511270522
1733851395463528000,10.79152783203125,0.17175357397794722,-0.18503215774595735,0.05988835925161838
1733851395473496800,10.801496826171874,0.13022533954232932,-0.14743950919359922,0.09365794238448143
1733851395483465000,10.81146484375,0.12095745272040366,-0.18682517864257095,0.13472118965685367
1733851395493433900,10.821433837890625,0.1012052890241146,-0.31519846057742834,0.1454986042588949
1733851395503402000,10.831402099609376,0.07410948456674814,-0.3596206628888845,0.12738427089750767
1733851395513371000,10.841370849609374,0.005420856004953384,-0.41444472448825836,0.08938625641465187
1733851395523340000,10.851340087890625,0.041705052307248115,-0.4645183766901493,0.10482289499938488
1733851395533308000,10.861307861328125,0.09820552268624305,-0.35602965265959496,0.07924246354103089
1733851395543276800,10.87127685546875,0.08710720556676388,-0.2929088873580098,0.050934652945399284
1733851395553245000,10.881244873046874,0.05291588989049196,-0.2921428714215755,-0.0067681789606809616
1733851395563213800,10.8912138671875,-0.008637479963898659,-0.2690069105058908,0.005416179829835891
1733851395573182000,10.901181884765625,-0.13054887240827082,-0.2764487509444356,0.03846446295082569
1733851395583150800,10.91115087890625,-0.24749445913881063,-0.25213264033347366,0.050175359010696405
1733851395593119000,10.921118896484375,-0.18299860609173774,-0.14009966782480476,0.039566871234774585
1733851395603088000,10.931087890625,0.0010585691422224045,0.048505672232806676,-0.007331658062338829
1733851395613056000,10.941055908203126,0.09209142372012138,0.06877718362808227,-0.06714870564341545
1733851395623025000,10.95102490234375,0.08742986164987086,-0.07944120098352432,-0.14818448234200476
1733851395632994000,10.960994140625,0.04459609757363796,-0.24248072263002393,-0.1814537147372961
1733851395642962000,10.9709619140625,0.0300461786955595,-0.2470122285798192,-0.1747919187605381
1733851395652931000,10.98093115234375,0.0028635727375745774,-0.20959902824759483,-0.12839490924477576
1733851395662898700,10.990898681640624,-0.008019055804610252,-0.14733108038306236,-0.03599018179178238
1733851395672868000,11.0008681640625,0.060545361855626104,0.15049568189382553,0.0298544555157423
1733851395682835700,11.010835693359375,0.0547767153263092,0.2614059339828789,0.07649754874706267
1733851395692804900,11.020804931640624,0.022460253611207008,0.20065686624869702,0.18127777364850042
1733851395702772700,11.030772705078125,0.04977846864759922,0.14338468084484338,0.29311902297735215
1733851395712742000,11.040741943359375,0.020355390286445618,0.1262760173946619,0.25962533417642114
1733851395722710000,11.0507099609375,-0.04847323126792907,0.1807495119906962,0.1999316207140684
1733851395732679000,11.060678955078124,-0.1317909814238548,0.2636079740718007,0.24774434224665162
1733851395742647800,11.070647705078125,-0.11545651721656322,0.2725049817547202,0.19782091217041015
1733851395752616000,11.080615966796875,-0.08661737622320652,0.31669483661502595,0.0513870728880167
1733851395762584800,11.090584716796876,-0.08398352058827876,0.3122220751151442,-0.09782382989227771
1733851395772553000,11.100552978515625,0.00905658215880394,0.23845658168047665,-0.13435177182257174
1733851395782521900,11.11052197265625,0.08902560640871525,0.042813013549149036,-0.11418342854082583
1733851395792490000,11.120489990234375,0.04611819257438182,-0.06359846581593155,-0.011359598404169082
1733851395802459000,11.130458984375,0.17357611322999,-0.05195099038109183,-0.12229425428211688
1733851395812426800,11.1404267578125,0.24022446813583373,0.06183890879750251,-0.2509691495120525
1733851395822396000,11.15039599609375,0.19395956056714056,0.21849399010390042,-0.24170798469185828
1733851395832363800,11.16036376953125,0.13451076177656648,0.458046404197067,-0.09613046997785568
1733851395842333000,11.1703330078125,0.044559272694587704,0.5025730897963047,0.012022446227073668
1733851395852301800,11.1803017578125,0.002063362270593643,0.5776031232740729,0.005436053574085236
1733851395862270000,11.19027001953125,-0.10243629212379456,0.5936534367777406,-0.04932487966120243
1733851395872238800,11.20023876953125,-0.1084510223686695,0.4631258994184434,0.040217444097995755
1733851395882207000,11.21020703125,-0.0029459903240203855,0.4154417727015912,0.11237024163901806
1733851395892176000,11.22017578125,0.057955929884314535,0.2806242099981755,0.10657996779978275
1733851395902144000,11.23014404296875,0.19142273556590078,0.33720110661424696,0.01595160236954689
1733851395912113000,11.24011279296875,0.27831249898970123,0.35003406550660726,-0.1547369727253914
1733851395922081000,11.2500810546875,0.35899639351069923,0.3688145346265286,-0.25107670153975487
1733851395932050000,11.2600498046875,0.3237193284243345,0.4723764697793871,-0.3082663232266903
1733851395942017800,11.270017822265626,0.1855576429247856,0.6003671821374446,-0.22887772921323776
1733851395951986700,11.279986572265624,0.13806816199719904,0.6873933583572507,-0.09188684105873107
1733851395961955800,11.289955810546875,0.14205109415352343,0.7271860011719167,0.12749708362221718
1733851395971923700,11.299923828125,0.09074234719872475,0.6986229006409644,0.21580723523795603
1733851395981892900,11.309892822265626,0.07047872684895992,0.6422291055068373,0.14285773436129093
1733851395991861000,11.319861083984375,0.09659925653338432,0.6174333216201514,0.13218202656805514
1733851396001830000,11.329829833984375,0.18593992024064063,0.6435339044950902,0.0703530546426773
1733851396011798000,11.339798095703125,0.26350597500205036,0.5873758178129792,-0.060245502126216884
1733851396021767000,11.349766845703124,0.22285364661812782,0.47675347928721457,-0.1418126092225313
1733851396031735000,11.359735107421875,0.20151801312267778,0.39512287850063293,-0.116868722102046
1733851396041704000,11.369703857421875,0.10353753136396407,0.3543977406088263,-0.10007540821135044
1733851396051672000,11.379672119140626,0.052885202491283416,0.37967034822702406,-0.008653262054920195
1733851396061641000,11.389640869140624,0.034166473495960234,0.3957243515251204,-0.007310615274310111
1733851396071608800,11.39960888671875,0.010904840373992919,0.45224794705137605,0.02204875020086765
1733851396081577700,11.40957763671875,0.008755553385615348,0.47649639925360676,0.041862873217463493
1733851396091547100,11.419547119140624,0.00519055438041687,0.5113041297951713,0.09142273067831992
1733851396101514800,11.4295146484375,0.04537643429636955,0.48716132992450145,0.0658785395771265
1733851396111484000,11.43948388671875,0.02846972315907478,0.3879574438506737,0.010759878945350645
1733851396121451800,11.44945166015625,-0.008915712383389472,0.29434184277057646,-0.014745149189233779
1733851396131421000,11.4594208984375,0.0008060556858777999,0.27765359668955203,0.07351122641265392
1733851396141388800,11.469388916015625,0.0428472080796957,0.25757468525692817,0.16610241634845732
1733851396151358000,11.47935791015625,0.0806575910359621,0.24389135661292818,0.2204886710524559
1733851396161325800,11.489325927734376,0.014297405421733855,0.23113292426150292,0.2596750185370445
1733851396171295000,11.499294921875,-0.12386778720915317,0.25740890023596585,0.2721568989694118
1733851396181262800,11.509262939453125,-0.2048813520759344,0.2869959004545584,0.2997346417248249
1733851396191232000,11.51923193359375,-0.3344967430263758,0.2732529505778104,0.24512919131219385
1733851396201201000,11.529200927734376,-0.22814707685112953,0.19218608462121337,0.010315057787299155
1733851396211169000,11.5391689453125,-0.22918752581477164,0.14772862833328546,-0.13961480691730976
1733851396221138000,11.549137939453125,-0.40331192057728765,0.14559256615266203,-0.20116554642319678
1733851396231105800,11.559105712890625,-0.3619166648715734,0.11236330044157802,-0.30150106687545775
1733851396241074700,11.56907470703125,-0.260022809061408,0.07754793458282946,-0.38767537550628184
1733851396251042800,11.579042724609375,-0.16089900248646735,0.09596786329466848,-0.33031799603700635
1733851396261011700,11.58901171875,-0.14975976883471012,0.1628814084753394,-0.17142507267594337
1733851396270979800,11.598979736328126,-0.08053834857046603,0.2138411958619952,-0.016385317611694334
1733851396280949000,11.608948974609374,-0.022054010897874832,0.20302224367316812,-0.003878887259960174
1733851396290916900,11.618916748046875,-0.059821139234304425,0.11280052281506359,-0.05491583153605461
1733851396300886000,11.628885986328125,-0.05051905788183212,0.029042079686932263,-0.07990881849527358
1733851396310854000,11.63885400390625,-0.020312720188498497,-0.018320742653682828,-0.05994681144058704
1733851396320823000,11.648822998046874,-0.01452770704627037,-0.01981229638569057,-0.022872926065325736
1733851396330792000,11.6587919921875,0.0320984350502491,-0.04404390705097466,-0.03834931213855743
1733851396340760000,11.668760009765625,-0.03617430618703365,-0.027891411814466117,-0.024314357045292855
1733851396350729000,11.67872900390625,-0.009530044889450072,-0.0069639207284897565,0.02040098299384117
1733851396360696800,11.68869677734375,0.011865209838747977,0.05872527028899639,0.10627893902659416
1733851396370665700,11.698665771484375,-0.01729658723771572,0.07346358787864446,0.09413725033402442
1733851396380633900,11.7086337890625,-0.02958206831514835,0.1345370652616024,0.0482715712159872
1733851396390602800,11.718602783203124,-0.0955453635662794,0.18304591583218424,-0.024924597898125646
1733851396400571000,11.72857080078125,-0.08066285173296928,0.16086794976107774,-0.06500234126448631
1733851396410539800,11.738539794921875,-0.05021978267431259,0.14946706949844957,-0.05946165827214717
1733851396420508000,11.7485078125,-0.03860825533568859,0.08517945237457751,-0.03207914582788944
1733851396430476800,11.758476806640624,0.04835165071487427,0.05400423311647028,0.0049824645876884455
1733851396440446000,11.768446044921875,0.06314356165528297,0.007274228786677122,-0.01689092904627323
1733851396450413800,11.778413818359375,0.07291676765084266,-0.0245516363998875,-0.042642625418305394
1733851396460383000,11.788383056640624,0.08584756089448928,-0.05177019045408815,-0.03175181356966495
1733851396470351000,11.79835107421875,0.03747311382591724,-0.02502473380435258,0.0012426935374736784
1733851396480320000,11.808320068359375,-0.00767886406481266,0.007230572308041155,-0.00004793079495429992
1733851396490287900,11.818287841796876,0.03458265308141708,0.04453106951341033,0.037381343889236446
1733851396500257000,11.828257080078124,0.08626900117695331,0.11505714263543486,0.0037549686193466183
1733851396510225000,11.838224853515625,0.052825581258535384,0.14907397852763532,-0.08344400688409805
1733851396520193800,11.84819384765625,0.1129173541277647,0.15315098217558115,-0.023016718450188635
1733851396530162000,11.858161865234376,0.10412497586309909,0.1483750730106607,0.028251111972332
1733851396540130800,11.868130859375,0.06466741022169589,0.07162954085189849,-0.03849485808908939
1733851396550099000,11.878098876953125,0.040049686315655704,-0.03496452853847295,-0.09074936146140097
1733851396560067800,11.88806787109375,-0.002854220387339592,-0.14943974310010671,-0.09557283609509468
1733851396570037000,11.898037109375,0.00831540840268135,-0.19254647889882326,-0.09361118063330649
1733851396580004900,11.9080048828125,0.014551087921857834,-0.19496523047834632,-0.08424889352619648
1733851396589974000,11.91797412109375,-0.011446692165732382,-0.148963650020957,-0.004737549915909767
1733851396599942000,11.92794189453125,-0.018515899899601937,-0.04153192423004657,0.024186931273341178
1733851396609911000,11.9379111328125,-0.020923545563220975,0.023978110828250646,0.01856441521644592
1733851396619879000,11.94787890625,-0.022691724279522894,0.050852125761099154,-0.01998304984271526
1733851396629848000,11.95784814453125,-0.0548725769162178,0.03396813791226595,-0.034922260299324985
1733851396639815700,11.967815673828126,-0.09229249925017356,0.02774360084161162,-0.048151159706711764
1733851396649784800,11.977784912109374,-0.11849077034592628,-0.0032696327878162265,-0.01350070208609104
1733851396659753000,11.9877529296875,-0.08953647854030132,-0.07173928483668714,-0.007456161224842071
1733851396669721900,11.997721923828125,-0.05671966608762741,-0.12121369250379502,-0.034785482177138324
1733851396679690000,12.00768994140625,-0.07617898431718349,-0.16853161625675855,-0.05879705688357353
1733851396689659000,12.017658935546875,-0.07346972535848617,-0.1550853843042627,-0.10282909083366393
1733851396699627800,12.027627685546875,-0.03556815698742866,-0.16020627098195253,-0.17624504017829895
1733851396709596000,12.037595947265626,-0.023271569994091985,-0.15383414213415234,-0.16744272504150867
1733851396719564800,12.047564697265624,-0.06615969460606574,-0.10974760151784867,-0.1308943248450756
1733851396729533000,12.057532958984375,-0.10851415073275565,-0.08138448053840547,-0.13950257871448993
1733851396739502000,12.067502197265625,-0.10488543884158134,-0.024015922087989746,-0.09233341578245162
1733851396749470000,12.077469970703126,-0.08014496533870696,-0.003944645972549915,-0.027774142110347746
1733851396759439000,12.087439208984375,-0.03978723598718643,-0.004227846828103066,0.01680558885037899
1733851396769406700,12.09740673828125,-0.08576338974237442,-0.029648594212718305,-0.004278700232505798
1733851396779375900,12.1073759765625,-0.08906067772209644,-0.0600538520116359,-0.005031564426422119
1733851396789343700,12.11734375,-0.09134791187644005,-0.1231450258925557,-0.025782676032185554
1733851396799313000,12.12731298828125,-0.008857260194420813,-0.17063775822315363,-0.046617374268174167
1733851396809281800,12.13728173828125,-0.07211831074953079,-0.13286200818885116,-0.015604980888962745
1733851396819250000,12.14725,-0.11944354102611542,-0.07386741943918168,-0.021282442003488538
1733851396829218800,12.15721875,-0.10192600451409817,0.0020821400362998244,-0.04469079011976718
1733851396839187000,12.16718701171875,-0.07022445982694625,0.045908970270492136,-0.07763444382250309
1733851396849155800,12.17715576171875,-0.07737140897214412,0.0938697950368747,-0.05045768308341503
1733851396859124000,12.1871240234375,-0.07042378179132938,0.11613715642448515,-0.0008487257838249206
1733851396869092900,12.1970927734375,-0.04692249469459057,0.11507716251015662,-0.0026999066084623337
