time,seconds_elapsed,z,y,x
1733851384687512600,0.0155126953125,0.12696027755737305,-0.005540083162486553,0.33148372173309326
1733851384697480400,0.02548046875,0.122195303440094,0.00513680512085557,0.348385214805603
1733851384707449300,0.035449462890625,0.12795491516590118,0.0011258183512836695,0.403493732213974
1733851384717418500,0.04541845703125,0.12995967268943787,0.014467479661107063,0.4859042167663574
1733851384727386400,0.055386474609375,0.1034092977643013,0.05907835438847542,0.5413352847099304
1733851384737355500,0.06535546875,0.08039826899766922,0.0982811376452446,0.5686049461364746
1733851384747323400,0.075323486328125,0.12784434854984283,0.07734842598438263,0.5903898477554321
1733851384757292500,0.08529248046875,0.2597355842590332,0.053179576992988586,0.6506467461585999
1733851384767260700,0.0952607421875,0.2647087872028351,0.02340436913073063,0.6748594045639038
1733851384777229600,0.1052294921875,0.24855974316596985,0.1127108484506607,0.6916179060935974
1733851384787198500,0.115198486328125,0.269621878862381,0.29356852173805237,0.7270928025245667
1733851384797166600,0.12516650390625,0.2961580753326416,0.40665367245674133,0.7602769732475281
1733851384807135500,0.135135498046875,0.31480419635772705,0.4704616665840149,0.7845341563224792
1733851384817103600,0.145103515625,0.32268649339675903,0.47139841318130493,0.8120790123939514
1733851384827072500,0.155072509765625,0.2908260226249695,0.3249029815196991,0.8698083162307739
1733851384837040400,0.165040283203125,0.18969221413135529,0.02064209245145321,0.9929131865501404
1733851384847009500,0.175009521484375,0.022817205637693405,-0.39853015542030334,1.182666301727295
1733851384856978400,0.184978515625,-0.13175392150878906,-0.8017503619194031,1.3652526140213013
1733851384866946600,0.194946533203125,-0.19520479440689087,-1.127488374710083,1.497443675994873
1733851384876915500,0.20491552734375,-0.17052523791790009,-1.294745683670044,1.581184983253479
1733851384886883600,0.214883544921875,-0.08739732950925827,-1.2635812759399414,1.647104263305664
1733851384896852500,0.2248525390625,0.04321550577878952,-1.0409152507781982,1.6693973541259766
1733851384906821400,0.2348212890625,0.20879781246185303,-0.7511792182922363,1.6095372438430786
1733851384916789500,0.24478955078125,0.3625381886959076,-0.48750120401382446,1.4602123498916626
1733851384926758400,0.25475830078125,0.45157936215400696,-0.3206366002559662,1.2775654792785645
1733851384936726500,0.2647265625,0.470892995595932,-0.310069739818573,1.13285493850708
1733851384946696000,0.274696044921875,0.5048914551734924,-0.47249725461006165,1.087870478630066
1733851384956664000,0.2846640625,0.5792534351348877,-0.807402491569519,1.1113808155059814
1733851384966633000,0.294633056640625,0.6676775813102722,-1.2495577335357666,1.1407957077026367
1733851384976602000,0.30460205078125,0.7142844796180725,-1.6599076986312866,1.153552532196045
1733851384986570200,0.3145703125,0.689522922039032,-2.044311761856079,1.1625548601150513
1733851384996539100,0.3245390625,0.6133476495742798,-2.396479606628418,1.1646461486816406
1733851385006507000,0.334507080078125,0.5259764790534973,-2.600506544113159,1.1556646823883057
1733851385016476000,0.344475830078125,0.44995883107185364,-2.66257905960083,1.1599642038345337
1733851385026444800,0.35444482421875,0.33901551365852356,-2.556957960128784,1.2074658870697021
1733851385036413000,0.364412841796875,0.12948599457740784,-2.325961112976074,1.3394399881362915
1733851385046381800,0.3743818359375,-0.04364077374339104,-2.1433963775634766,1.5092731714248657
1733851385056350000,0.384349853515625,-0.13870151340961456,-2.0264816284179688,1.6459881067276
1733851385066319000,0.394319091796875,-0.12499208748340607,-1.79938542842865,1.7472673654556274
1733851385076287000,0.404286865234375,-0.08782711625099182,-1.5680497884750366,1.7664350271224976
1733851385086256000,0.414256103515625,-0.057703834027051926,-1.3029422760009766,1.7493537664413452
1733851385096225000,0.42422509765625,-0.05610767751932144,-1.1364153623580933,1.7063045501708984
1733851385106193200,0.434193115234375,-0.08829118311405182,-1.1670856475830078,1.5846127271652222
1733851385116162000,0.444162109375,-0.06612065434455872,-1.2932116985321045,1.422035813331604
1733851385126130200,0.454130126953125,0.010188229382038116,-1.399339199066162,1.286676287651062
1733851385136099000,0.46409912109375,0.06995934993028641,-1.461864948272705,1.213331699371338
1733851385146067000,0.47406689453125,0.119069904088974,-1.4495164155960083,1.2119508981704712
1733851385156036000,0.4840361328125,0.15781241655349731,-1.4342397451400757,1.2388447523117065
1733851385166005200,0.494005126953125,0.1913522630929947,-1.494821548461914,1.25986909866333
1733851385175972900,0.503972900390625,0.19238707423210144,-1.5742851495742798,1.280710220336914
1733851385185942000,0.51394189453125,0.1481567621231079,-1.6382313966751099,1.3203471899032593
1733851385195910000,0.523909912109375,0.05514458566904068,-1.6794078350067139,1.3876469135284424
1733851385205879000,0.533879150390625,-0.058134302496910095,-1.663731336593628,1.4383138418197632
1733851385215848000,0.543847900390625,-0.1631949543952942,-1.6127349138259888,1.3857964277267456
1733851385225816000,0.553816162109375,-0.23233860731124878,-1.5609440803527832,1.1875823736190796
1733851385235785000,0.563784912109375,-0.2725439965724945,-1.5057971477508545,0.9042158126831055
1733851385245753000,0.573753173828125,-0.27397170662879944,-1.343474268913269,0.6430124044418335
1733851385255722000,0.583721923828125,-0.23072229325771332,-1.123775601387024,0.45568791031837463
1733851385265690000,0.593690185546875,-0.161467045545578,-0.9171865582466125,0.32134661078453064
1733851385275659000,0.603658935546875,-0.04278361797332764,-0.6573233008384705,0.21781720221042633
1733851385285628200,0.613628173828125,0.0915859043598175,-0.26195812225341797,0.12425077706575394
1733851385295596000,0.623595947265625,0.15766923129558563,0.2404239922761917,0.015247566625475883
1733851385305565200,0.633565185546875,0.14297497272491455,0.7139476537704468,-0.08546625822782516
1733851385315532800,0.64353271484375,0.0890861451625824,1.038923978805542,-0.13209402561187744
1733851385325502000,0.653501953125,0.041412897408008575,1.1547192335128784,-0.13316994905471802
1733851385335470000,0.663469970703125,0.0216619111597538,1.0584990978240967,-0.12277693301439285
1733851385345439000,0.67343896484375,0.0035372364800423384,0.6892584562301636,-0.13386128842830658
1733851385355408000,0.683407958984375,-0.013604087755084038,-0.10863776504993439,-0.24483823776245117
1733851385365376000,0.6933759765625,-0.013119658455252647,-1.2748799324035645,-0.49671149253845215
1733851385375345000,0.703344970703125,0.04153672233223915,-1.9179198741912842,-0.628228485584259
1733851385385313000,0.71331298828125,0.1173100471496582,-1.9101109504699707,-0.5681723356246948
1733851385395282000,0.723281982421875,0.15754523873329163,-1.6883952617645264,-0.4575898051261902
1733851385405251000,0.7332509765625,0.16246622800827026,-1.38065767288208,-0.2920224368572235
1733851385415219000,0.743218994140625,0.16968713700771332,-1.1120398044586182,-0.10994400829076767
1733851385425188000,0.75318798828125,0.17200487852096558,-0.935554027557373,0.034849125891923904
1733851385435156200,0.76315625,0.16274555027484894,-0.8235357403755188,0.10509198158979416
1733851385445125000,0.773125,0.14172469079494476,-0.8049631714820862,0.07014624774456024
1733851385455093000,0.783093017578125,0.10593878477811813,-0.8569033741950989,-0.0048306407406926155
1733851385465062000,0.793061767578125,0.04127349704504013,-0.9671958088874817,-0.053773947060108185
1733851385475031000,0.803031005859375,-0.023065725341439247,-1.0299181938171387,-0.04347029700875282
1733851385484999000,0.8129990234375,-0.06981804966926575,-0.9679639935493469,0.01672060415148735
1733851385494968000,0.822968017578125,-0.08602713793516159,-0.8258044123649597,0.08778094500303268
1733851385504936000,0.83293603515625,-0.04210416227579117,-0.6876726746559143,0.11552975326776505
1733851385514905000,0.842905029296875,0.023192429915070534,-0.6213262677192688,0.08030400425195694
1733851385524873000,0.852873046875,0.08592452108860016,-0.6170686483383179,0.08800986409187317
1733851385534842000,0.862842041015625,0.144291952252388,-0.5353310108184814,0.15976223349571228
1733851385544811000,0.87281103515625,0.21514640748500824,-0.3556933104991913,0.20958252251148224
1733851385554779100,0.882779052734375,0.2635442316532135,-0.2503024935722351,0.20291393995285034
1733851385564748000,0.892748046875,0.25616276264190674,-0.2603127956390381,0.16491834819316864
1733851385574716200,0.902716064453125,0.23089973628520966,-0.33049747347831726,0.10697834193706512
1733851385584685000,0.91268505859375,0.19988642632961273,-0.4060351252555847,0.03801232948899269
1733851385594653200,0.922653076171875,0.1357896476984024,-0.47814688086509705,-0.04076879471540451
1733851385604622000,0.9326220703125,0.07674683630466461,-0.5279709100723267,-0.09584909677505493
1733851385614591200,0.94259130859375,0.06097085401415825,-0.5230119228363037,-0.09343478083610535
1733851385624558800,0.952558837890625,0.06293759495019913,-0.47927695512771606,-0.018345622345805168
1733851385634528000,0.962528076171875,0.07715796679258347,-0.47901320457458496,0.10723371058702469
1733851385644496000,0.972495849609375,0.11377989500761032,-0.4778374135494232,0.2561989426612854
1733851385654465000,0.982465087890625,0.16688834130764008,-0.41923901438713074,0.39057445526123047
1733851385664434000,0.992433837890625,0.19620148837566376,-0.34883061051368713,0.479632169008255
1733851385674402000,1.002402099609375,0.19622460007667542,-0.34834930300712585,0.5225086212158203
1733851385684371000,1.012370849609375,0.18380016088485718,-0.43310627341270447,0.5202009677886963
1733851385694339000,1.022339111328125,0.1804019808769226,-0.48807084560394287,0.46248000860214233
1733851385704308000,1.032307861328125,0.16356228291988373,-0.444458931684494,0.38489386439323425
1733851385714276000,1.042276123046875,0.14097020030021667,-0.3587420582771301,0.34277263283729553
1733851385724245000,1.052244873046875,0.12565036118030548,-0.30282071232795715,0.3470699191093445
1733851385734214100,1.062214111328125,0.115097276866436,-0.2716240882873535,0.3658372759819031
1733851385744182000,1.07218212890625,0.12617255747318268,-0.21943575143814087,0.35314464569091797
1733851385754151200,1.082151123046875,0.15317972004413605,-0.12623564898967743,0.3124830424785614
1733851385764118800,1.092118896484375,0.15303297340869904,-0.05072357505559921,0.24715572595596313
1733851385774088000,1.102087890625,0.13402356207370758,-0.030329735949635506,0.16768024861812592
1733851385784056000,1.11205615234375,0.0996277779340744,-0.04908691346645355,0.10176701098680496
1733851385794025000,1.12202490234375,0.05958455055952072,-0.05939363315701485,0.04431699216365814
1733851385803993900,1.131993896484375,0.02761783078312874,-0.021762633696198463,0.009256742894649506
1733851385813962000,1.1419619140625,0.00467050913721323,0.010237695649266243,0.002414093818515539
1733851385823931000,1.151930908203125,-0.013575340621173382,0.028581814840435982,0.010609439574182034
1733851385833899000,1.16189892578125,-0.021840812638401985,0.032580699771642685,0.011737143620848656
1733851385843868000,1.171867919921875,-0.009595864452421665,0.06969797611236572,0.014707899652421474
1733851385853836000,1.1818359375,0.0009332665358670056,0.10708634555339813,0.028237298130989075
1733851385863805000,1.191804931640625,0.012252233922481537,0.1094650849699974,0.04393157362937927
1733851385873774000,1.201774169921875,0.024667775258421898,0.10907521843910217,0.07660482078790665
1733851385883742200,1.2117421875,0.02478974685072899,0.1124688908457756,0.09665655344724655
1733851385893711000,1.221711181640625,0.026415808126330376,0.11640539765357971,0.10326242446899414
1733851385903679200,1.23167919921875,0.025698885321617126,0.11731380224227905,0.10130579769611359
1733851385913648000,1.241648193359375,0.01613527722656727,0.12872223556041718,0.07476042956113815
1733851385923616000,1.251615966796875,0.008453655987977982,0.14036716520786285,0.03671956807374954
1733851385933585000,1.2615849609375,0.008051827549934387,0.16362661123275757,-0.009432006627321243
1733851385943554000,1.271553955078125,0.01375285629183054,0.20455726981163025,-0.06687292456626892
1733851385953522200,1.281522216796875,0.04171939194202423,0.2497129887342453,-0.09711111336946487
1733851385963491300,1.2914912109375,0.08770978450775146,0.2881011366844177,-0.10276634246110916
1733851385973459200,1.301459228515625,0.11865787953138351,0.30162671208381653,-0.10012450814247131
1733851385983428400,1.311428466796875,0.12124354392290115,0.3083714246749878,-0.09248816221952438
1733851385993397200,1.321397216796875,0.08682956546545029,0.33049318194389343,-0.09510238468647003
1733851386003365400,1.331365478515625,0.027810461819171906,0.3688613474369049,-0.11571313440799713
1733851386013334300,1.341334228515625,-0.034429095685482025,0.41029906272888184,-0.15402162075042725
1733851386023302400,1.351302490234375,-0.0596281923353672,0.4619835615158081,-0.20785076916217804
1733851386033271300,1.361271240234375,-0.0321400985121727,0.527441680431366,-0.271112322807312
1733851386043239400,1.371239501953125,0.0790221095085144,0.6060739159584045,-0.3045065104961395
1733851386053208300,1.381208251953125,0.23971420526504517,0.7538347244262695,-0.30273211002349854
1733851386063177500,1.391177490234375,0.3963424265384674,0.8893826603889465,-0.2704196870326996
1733851386073145300,1.401145263671875,0.48716670274734497,0.9526398181915283,-0.205050989985466
1733851386083114500,1.411114501953125,0.49941059947013855,0.9478253722190857,-0.13100606203079224
1733851386093082000,1.42108203125,0.441402405500412,0.8940989971160889,-0.06521212309598923
1733851386103051300,1.43105126953125,0.3268073797225952,0.8382368087768555,-0.01841718517243862
1733851386113019100,1.44101904296875,0.2112286388874054,0.7938916087150574,-0.018825309351086617
1733851386122988300,1.45098828125,0.14936260879039764,0.7878850698471069,-0.0267277080565691
1733851386132957200,1.460957275390625,0.15538878738880157,0.8073764443397522,-0.04453287646174431
1733851386142925300,1.47092529296875,0.19907714426517487,0.8245463967323303,-0.09129638224840164
1733851386152894200,1.480894287109375,0.2525913417339325,0.8665304183959961,-0.14535579085350037
1733851386162862300,1.4908623046875,0.3093971014022827,0.9342548251152039,-0.18198703229427338
1733851386172831200,1.500831298828125,0.3452743887901306,0.9933373332023621,-0.1993342936038971
1733851386182799400,1.51079931640625,0.362426221370697,1.0289121866226196,-0.20888331532478333
1733851386192768300,1.520768310546875,0.365083247423172,1.06637442111969,-0.2108766883611679
1733851386202737400,1.5307373046875,0.34650638699531555,1.1021333932876587,-0.19596244394779205
1733851386212705300,1.540705322265625,0.3148607313632965,1.1290054321289062,-0.1710757613182068
1733851386222674400,1.55067431640625,0.28979000449180603,1.1424832344055176,-0.15716500580310822
1733851386232642000,1.56064208984375,0.2790384292602539,1.1496421098709106,-0.15352755784988403
1733851386242611200,1.570611083984375,0.27732521295547485,1.1604689359664917,-0.173216313123703
1733851386252579300,1.580579345703125,0.2879483699798584,1.146973967552185,-0.20944172143936157
1733851386262548200,1.59054833984375,0.2922866642475128,1.111570954322815,-0.24174240231513977
1733851386272517000,1.60051708984375,0.28278976678848267,1.0739176273345947,-0.2879306375980377
1733851386282485200,1.6104853515625,0.27285802364349365,1.0063982009887695,-0.3457563817501068
1733851386292454100,1.6204541015625,0.2657696604728699,0.9669225215911865,-0.375560998916626
1733851386302422300,1.63042236328125,0.26347801089286804,0.9360786080360413,-0.36016473174095154
1733851386312391200,1.64039111328125,0.257575124502182,0.9180880784988403,-0.3043268322944641
1733851386322359300,1.650359375,0.24776193499565125,0.9305679202079773,-0.21362914144992828
1733851386332328200,1.660328125,0.24633757770061493,0.9285836219787598,-0.15104971826076508
1733851386342297300,1.67029736328125,0.24594715237617493,0.915037214756012,-0.11909177899360657
1733851386352265500,1.680265380859375,0.25134631991386414,0.9082939028739929,-0.12642651796340942
1733851386362234400,1.690234375,0.25580310821533203,0.883402407169342,-0.14608436822891235
1733851386372202200,1.7002021484375,0.24602928757667542,0.8326706886291504,-0.15713569521903992
1733851386382171100,1.710171142578125,0.22255966067314148,0.762003481388092,-0.16930794715881348
1733851386392139300,1.72013916015625,0.20829853415489197,0.7054287791252136,-0.17508365213871002
1733851386402108200,1.730108154296875,0.22456006705760956,0.6645796298980713,-0.1691514551639557
1733851386412077300,1.740077392578125,0.2603336274623871,0.6349337100982666,-0.16644850373268127
1733851386422045200,1.750045166015625,0.2962130606174469,0.6296489834785461,-0.15938232839107513
1733851386432014300,1.760014404296875,0.32473844289779663,0.6229633688926697,-0.1476055234670639
1733851386441982200,1.769982177734375,0.33589309453964233,0.6265215873718262,-0.15290041267871857
1733851386451951400,1.779951416015625,0.3347265124320984,0.6676987409591675,-0.1808411329984665
1733851386461919200,1.789919189453125,0.3247721493244171,0.710326075553894,-0.190569669008255
1733851386471888400,1.799888427734375,0.31874457001686096,0.7295825481414795,-0.17619052529335022
1733851386481857300,1.809857177734375,0.3026401698589325,0.7356471419334412,-0.15240690112113953
1733851386491825400,1.819825439453125,0.28066545724868774,0.7522161602973938,-0.11462441086769104
1733851386501794300,1.829794189453125,0.2665027678012848,0.7636030912399292,-0.0957266241312027
1733851386511762400,1.839762451171875,0.2839694321155548,0.7658694982528687,-0.08776002377271652
1733851386521731300,1.8497314453125,0.3066079020500183,0.7658601403236389,-0.08564813435077667
1733851386531699200,1.85969921875,0.3326917588710785,0.7610787749290466,-0.09732675552368164
1733851386541668000,1.869668212890625,0.3402263820171356,0.7489537000656128,-0.10176091641187668
1733851386551637200,1.87963720703125,0.3270956575870514,0.7341227531433105,-0.09917909651994705
1733851386561605000,1.889605224609375,0.2936133146286011,0.7463898062705994,-0.08749368041753769
1733851386571574300,1.89957421875,0.2641081213951111,0.7504317760467529,-0.05991653725504875
1733851386581542100,1.909542236328125,0.25030869245529175,0.7583197951316833,-0.03582398220896721
1733851386591511300,1.91951123046875,0.23433151841163635,0.7598466277122498,-0.029079798609018326
1733851386601479200,1.929479248046875,0.21872779726982117,0.7520749568939209,-0.009739924222230911
1733851386611448300,1.9394482421875,0.21985222399234772,0.7504999041557312,0.008725356310606003
1733851386621417200,1.949417236328125,0.23355577886104584,0.7371808886528015,0.028857523575425148
1733851386631385300,1.95938525390625,0.2671751379966736,0.7027808427810669,0.04995160922408104
1733851386641354200,1.969354248046875,0.3004566729068756,0.7043539881706238,0.06435957551002502
1733851386651322400,1.979322265625,0.32330265641212463,0.7393697500228882,0.05026213824748993
1733851386661291300,1.989291259765625,0.3225542902946472,0.7653973698616028,0.028616497293114662
1733851386671259100,1.999259033203125,0.3061531186103821,0.7849162220954895,0.020239245146512985
1733851386681228300,2.009228271484375,0.2892420291900635,0.7917546629905701,0.018563318997621536
1733851386691197200,2.019197265625,0.26557961106300354,0.7769966721534729,0.0203558299690485
1733851386701165300,2.029165283203125,0.2458922117948532,0.749115526676178,0.02156410738825798
1733851386711134200,2.03913427734375,0.2294863611459732,0.7275426983833313,0.007768535055220127
1733851386721102300,2.049102294921875,0.2186070829629898,0.7254377603530884,-0.019126994535326958
1733851386731071200,2.0590712890625,0.21163207292556763,0.7146133780479431,-0.07042377442121506
1733851386741039400,2.069039306640625,0.22668398916721344,0.7319403886795044,-0.12160094082355499
1733851386751008300,2.07900830078125,0.2613191604614258,0.7961835265159607,-0.1501987874507904
1733851386760977200,2.08897705078125,0.28931406140327454,0.8451249599456787,-0.1926780790090561
1733851386770945300,2.0989453125,0.31638696789741516,0.8809438347816467,-0.2227759212255478
1733851386780914400,2.10891455078125,0.31943708658218384,0.9187540411949158,-0.257782906293869
1733851386790882300,2.11888232421875,0.29548004269599915,0.9265207052230835,-0.3016515374183655
1733851386800851500,2.1288515625,0.24214494228363037,0.8939478397369385,-0.32389986515045166
1733851386810819300,2.1388193359375,0.19397008419036865,0.860133171081543,-0.31391265988349915
1733851386820788500,2.14878857421875,0.15267138183116913,0.8316128253936768,-0.2832067012786865
1733851386830757400,2.15875732421875,0.13432496786117554,0.8158775568008423,-0.25052064657211304
1733851386840725200,2.168725341796875,0.13549888134002686,0.8184552192687988,-0.21786470711231232
1733851386850694100,2.178694091796875,0.16497819125652313,0.8254275321960449,-0.19631822407245636
1733851386860662300,2.188662353515625,0.1864912062883377,0.8386874198913574,-0.1716054230928421
1733851386870631200,2.198631103515625,0.21038134396076202,0.8236589431762695,-0.15282240509986877
1733851386880599300,2.208599365234375,0.23102936148643494,0.785660982131958,-0.14190131425857544
1733851386890568200,2.218568115234375,0.23277391493320465,0.7694612145423889,-0.12029539048671722
1733851386900537300,2.228537353515625,0.2340514361858368,0.7591358423233032,-0.10452547669410706
1733851386910505200,2.238505126953125,0.21449483931064606,0.7661513090133667,-0.09048167616128922
1733851386920474400,2.248474365234375,0.1766100376844406,0.7745605111122131,-0.093561090528965
1733851386930442200,2.258442138671875,0.12454685568809509,0.7766922116279602,-0.09860844910144806
1733851386940411400,2.268411376953125,0.078761525452137,0.7730770111083984,-0.10470815002918243
1733851386950379300,2.278379150390625,0.05001587048172951,0.753256618976593,-0.09657114744186401
1733851386960348400,2.288348388671875,0.04822595790028572,0.7276449799537659,-0.0726730078458786
1733851386970317300,2.2983173828125,0.06099453940987587,0.699053168296814,-0.05094236135482788
1733851386980285200,2.30828515625,0.08549056202173233,0.666259229183197,-0.03379879519343376
1733851386990254000,2.318254150390625,0.10932236164808273,0.6451219320297241,-0.0266378466039896
1733851387000222200,2.32822216796875,0.12462541460990906,0.6101674437522888,-0.029060523957014084
1733851387010191000,2.338191162109375,0.14549468457698822,0.5804724097251892,-0.03132843226194382
1733851387020159200,2.3481591796875,0.16265583038330078,0.5347803235054016,-0.03381582349538803
1733851387030128000,2.358128173828125,0.18176110088825226,0.49246087670326233,-0.036385972052812576
1733851387040097300,2.36809716796875,0.19834406673908234,0.47224321961402893,-0.03843793645501137
1733851387050065200,2.378065185546875,0.19574964046478271,0.451811283826828,-0.018714962527155876
1733851387060034300,2.388034423828125,0.1811685711145401,0.4040517508983612,0.003701663576066494
1733851387070002400,2.39800244140625,0.16729728877544403,0.37918102741241455,0.030832575634121895
1733851387079971300,2.407971435546875,0.1586180478334427,0.3872746527194977,0.042086295783519745
1733851387089939500,2.417939453125,0.16082678735256195,0.4066109359264374,0.043060604482889175
1733851387099908400,2.427908447265625,0.16444575786590576,0.4489615857601166,0.06106517091393471
1733851387109876200,2.437876220703125,0.16277439892292023,0.4852074086666107,0.08520324528217316
1733851387119845400,2.447845458984375,0.1618068665266037,0.5113186240196228,0.10547016561031342
1733851387129814300,2.457814208984375,0.15865977108478546,0.5481720566749573,0.12925252318382263
1733851387139782100,2.4677822265625,0.1602478176355362,0.5873594284057617,0.16558310389518738
1733851387149751300,2.477751220703125,0.16265356540679932,0.6336041688919067,0.20940032601356506
1733851387159719200,2.48771923828125,0.16571088135242462,0.680884599685669,0.25360238552093506
1733851387169688300,2.497688232421875,0.16845783591270447,0.6984045505523682,0.2760591506958008
1733851387179656200,2.50765625,0.1679811328649521,0.7143316268920898,0.2737768292427063
1733851387189625300,2.517625244140625,0.16425821185112,0.7255114912986755,0.24872171878814697
1733851387199594200,2.52759423828125,0.15439440310001373,0.7388859391212463,0.22716929018497467
1733851387209562400,2.537562255859375,0.14278802275657654,0.746225118637085,0.20437726378440857
1733851387219531300,2.54753125,0.1364467740058899,0.7362028956413269,0.15804971754550934
1733851387229499400,2.55749951171875,0.13271662592887878,0.7497004866600037,0.11825056374073029
1733851387239468300,2.56746826171875,0.12812800705432892,0.7966142296791077,0.06831122934818268
1733851387249436400,2.5774365234375,0.12459851801395416,0.8220890164375305,0.03414907306432724
1733851387259405300,2.5874052734375,0.12348371744155884,0.8366450667381287,0.019066259264945984
1733851387269374500,2.59737451171875,0.11878963559865952,0.8367058038711548,0.02559005655348301
1733851387279342000,2.607342041015625,0.11870548129081726,0.8345414996147156,0.046736352145671844
1733851387289311200,2.617311279296875,0.09863527864217758,0.8092312216758728,0.042289528995752335
1733851387299279000,2.627279052734375,0.09232332557439804,0.7561792135238647,0.02054668217897415
1733851387309248300,2.637248291015625,0.08858559280633926,0.7110897898674011,-0.0007121989037841558
1733851387319216000,2.647216064453125,0.11122885346412659,0.6855295896530151,-0.03291993588209152
1733851387329185300,2.657185302734375,0.14849969744682312,0.6872867345809937,-0.04489646479487419
1733851387339154200,2.667154296875,0.199205219745636,0.7187021970748901,-0.04893248528242111
1733851387349122300,2.677122314453125,0.25182199478149414,0.7660918235778809,-0.052117038518190384
1733851387359091200,2.68709130859375,0.29350391030311584,0.8075540661811829,-0.03788856789469719
1733851387369059300,2.697059326171875,0.3076554238796234,0.8043989539146423,0.006304923444986343
1733851387379028200,2.7070283203125,0.30191951990127563,0.7642108201980591,0.06714697182178497
1733851387388996400,2.716996337890625,0.2808065116405487,0.7199141383171082,0.13062283396720886
1733851387398965200,2.72696533203125,0.2562961280345917,0.6615155935287476,0.19597414135932922
1733851387408934400,2.736934326171875,0.21839313209056854,0.6098998188972473,0.24200479686260223
1733851387418902300,2.74690234375,0.17646218836307526,0.5726549625396729,0.25615498423576355
1733851387428871200,2.75687109375,0.137125164270401,0.549477219581604,0.2471548169851303
1733851387438839300,2.76683935546875,0.10208463668823242,0.5344609618186951,0.22598642110824585
1733851387448808200,2.77680810546875,0.07269879430532455,0.5379404425621033,0.19998204708099365
1733851387458776300,2.7867763671875,0.05545642599463463,0.5467989444732666,0.16874369978904724
1733851387468745200,2.7967451171875,0.045201126486063004,0.5642349720001221,0.14758926630020142
1733851387478714000,2.806714111328125,0.037812188267707825,0.5642480254173279,0.13064570724964142
1733851387488682200,2.81668212890625,0.033668991178274155,0.5705562233924866,0.12351549416780472
1733851387498651400,2.8266513671875,0.02804732322692871,0.5645138025283813,0.1291363686323166
1733851387508619300,2.836619384765625,0.017639359459280968,0.5605177879333496,0.13437093794345856
1733851387518588400,2.84658837890625,0.0028614781331270933,0.5570892095565796,0.12764140963554382
1733851387528556300,2.856556396484375,-0.009610051289200783,0.553546130657196,0.10916721820831299
1733851387538525400,2.866525390625,-0.03340566158294678,0.5531240105628967,0.09281061589717865
1733851387548493300,2.876493408203125,-0.06148003041744232,0.5271452069282532,0.06068612262606621
1733851387558462500,2.88646240234375,-0.08808314055204391,0.4806773066520691,0.021539783105254173
1733851387568431400,2.896431396484375,-0.1044556200504303,0.41019558906555176,-0.003374458057805896
1733851387578399200,2.906399169921875,-0.10697869956493378,0.330342561006546,-0.013788482174277306
1733851387588368100,2.9163681640625,-0.10155413299798965,0.2820318937301636,-0.01987234689295292
1733851387598336300,2.926336181640625,-0.10432727634906769,0.2697741687297821,-0.03462705761194229
1733851387608305200,2.93630517578125,-0.10504486411809921,0.2743883430957794,-0.054395779967308044
1733851387618273300,2.946273193359375,-0.10537722706794739,0.29369863867759705,-0.08142287284135818
1733851387628242200,2.9562421875,-0.09626512974500656,0.32734355330467224,-0.10021612048149109
1733851387638211300,2.96621142578125,-0.09224748611450195,0.34949812293052673,-0.10478077828884125
1733851387648179200,2.97617919921875,-0.09017938375473022,0.3419702351093292,-0.12491635233163834
1733851387658148400,2.9861484375,-0.08429459482431412,0.32601818442344666,-0.13869048655033112
1733851387668116200,2.9961162109375,-0.07769418507814407,0.2926419675350189,-0.13897743821144104
1733851387678085400,3.00608544921875,-0.07133481651544571,0.24727927148342133,-0.13128435611724854
1733851387688053200,3.01605322265625,-0.07493487000465393,0.19556580483913422,-0.10022598505020142
1733851387698022400,3.0260224609375,-0.07582303136587143,0.13531658053398132,-0.07485964149236679
1733851387707991300,3.0359912109375,-0.08131004869937897,0.08210119605064392,-0.05240870639681816
1733851387717959200,3.045959228515625,-0.07423216849565506,0.03927437216043472,-0.040230073034763336
1733851387727928000,3.055927978515625,-0.06117603927850723,0.024205347523093224,-0.05579685419797897
1733851387737896200,3.065896240234375,-0.04579867795109749,0.043164391070604324,-0.08104468137025833
1733851387747865000,3.075864990234375,-0.04662219062447548,0.07552653551101685,-0.11560197919607162
1733851387757833200,3.085833251953125,-0.05636296793818474,0.09120110422372818,-0.13820156455039978
1733851387767802000,3.095802001953125,-0.06625588983297348,0.08673953264951706,-0.1343843638896942
1733851387777771300,3.105771240234375,-0.08317548036575317,0.07681978493928909,-0.13054807484149933
1733851387787739400,3.115739501953125,-0.10214420408010483,0.06430394947528839,-0.12043342739343643
1733851387797708300,3.125708251953125,-0.11661981046199799,0.04655531793832779,-0.11767972260713577
1733851387807676400,3.135676513671875,-0.12296613305807114,0.026730407029390335,-0.10991112887859344
1733851387817645300,3.145645263671875,-0.1188635304570198,-0.0005078702233731747,-0.10214695334434509
1733851387827613400,3.155613525390625,-0.10499926656484604,-0.022380508482456207,-0.10681051760911942
1733851387837582300,3.165582275390625,-0.0799889862537384,-0.023459885269403458,-0.11065691709518433
1733851387847551200,3.17555126953125,-0.046599436551332474,-0.0228959359228611,-0.11463524401187897
1733851387857519400,3.185519287109375,-0.012171954847872257,-0.025877609848976135,-0.12444419413805008
1733851387867488500,3.195488525390625,0.014873680658638477,-0.04290597140789032,-0.13265535235404968
1733851387877456100,3.2054560546875,0.03530891239643097,-0.06305384635925293,-0.13400425016880035
1733851387887425300,3.21542529296875,0.04763435944914818,-0.07268305867910385,-0.1263522356748581
1733851387897393200,3.22539306640625,0.04896008223295212,-0.08313357084989548,-0.10394784808158875
1733851387907362300,3.2353623046875,0.03978888317942619,-0.09651707112789154,-0.07025759667158127
1733851387917330200,3.245330078125,0.028916791081428528,-0.09027302265167236,-0.03062816709280014
1733851387927299300,3.25529931640625,0.02237480878829956,-0.07867730408906937,-0.005304362159222364
1733851387937268200,3.265268310546875,0.021732719615101814,-0.06671731173992157,0.007837273180484772
1733851387947236400,3.275236328125,0.02455379255115986,-0.055298808962106705,0.018587056547403336
1733851387957204500,3.28520458984375,0.030122993513941765,-0.05029446259140968,0.02118576690554619
1733851387967172600,3.295172607421875,0.028880100697278976,-0.04040234535932541,0.011300761252641678
1733851387977141500,3.3051416015625,0.021931380033493042,-0.0431150421500206,0.001331218401901424
1733851387987109600,3.315109619140625,0.01685003750026226,-0.048761408776044846,-0.0010648125316947699
1733851387997078800,3.325078857421875,0.007966797798871994,-0.048990171402692795,0.006456486880779266
1733851388007047700,3.335047607421875,-0.009419185109436512,-0.07571630924940109,0.0103332893922925
1733851388017015600,3.345015625,-0.025357406586408615,-0.1106623113155365,0.03003988228738308
1733851388026984400,3.354984375,-0.037499893456697464,-0.1413068175315857,0.0612826831638813
1733851388036952600,3.36495263671875,-0.04065707325935364,-0.16718235611915588,0.09678048640489578
1733851388046921500,3.37492138671875,-0.04072551429271698,-0.1823173612356186,0.12083549052476883
1733851388056889600,3.3848896484375,-0.03502129018306732,-0.18170350790023804,0.12927372753620148
1733851388066858500,3.3948583984375,-0.020179059356451035,-0.16536058485507965,0.11805665493011475
1733851388076827600,3.40482763671875,0.0006386060849763453,-0.14568088948726654,0.10371260344982147
1733851388086795500,3.41479541015625,0.01568504050374031,-0.12942485511302948,0.08375493437051773
1733851388096764700,3.4247646484375,0.020456627011299133,-0.11868833005428314,0.0589611679315567
1733851388106732500,3.434732666015625,0.02212684415280819,-0.10995298624038696,0.04117470234632492
1733851388116701700,3.44470166015625,0.02399185486137867,-0.11408727616071701,0.03498018905520439
1733851388126669600,3.454669677734375,0.024835947901010513,-0.11145425587892532,0.046773653477430344
1733851388136638700,3.464638671875,0.020696328952908516,-0.10891253501176834,0.05795493349432945
1733851388146606300,3.4746064453125,0.005654993932694197,-0.0977858304977417,0.07312247157096863
1733851388156575700,3.48457568359375,-0.01217753253877163,-0.09807318449020386,0.08941728621721268
1733851388166544600,3.494544677734375,-0.02745327167212963,-0.09106684476137161,0.08212219178676605
1733851388176512500,3.504512451171875,-0.044394705444574356,-0.07738378643989563,0.0718889981508255
1733851388186481400,3.5144814453125,-0.047875385731458664,-0.07457443326711655,0.05279729142785072
1733851388196449500,3.524449462890625,-0.039270445704460144,-0.06458545476198196,0.050221215933561325
1733851388206418400,3.53441845703125,-0.02979838103055954,-0.06615618616342545,0.05213309824466705
1733851388216386600,3.544386474609375,-0.017857832834124565,-0.07458774745464325,0.059178225696086884
1733851388226355500,3.55435546875,-0.011244433000683784,-0.07539534568786621,0.06213419884443283
1733851388236324600,3.56432470703125,-0.003253618022426963,-0.0734187513589859,0.04943305253982544
1733851388246292500,3.57429248046875,0.0018477675039321184,-0.06429111957550049,0.0529094822704792
1733851388256261600,3.58426171875,0.0056273252703249454,-0.05830540508031845,0.05913781747221947
1733851388266229500,3.5942294921875,-0.0012749435845762491,-0.053974930197000504,0.06131058931350708
1733851388276198700,3.60419873046875,-0.00704894308000803,-0.053443629294633865,0.06108475476503372
1733851388286166800,3.614166748046875,-0.017962606623768806,-0.06015785038471222,0.057868048548698425
1733851388296135700,3.6241357421875,-0.025476714596152306,-0.06262820214033127,0.053409118205308914
1733851388306104600,3.6341044921875,-0.02910963073372841,-0.06342805176973343,0.053838592022657394
1733851388316072400,3.644072509765625,-0.023538030683994293,-0.0595526248216629,0.04910615459084511
1733851388326041300,3.654041259765625,-0.010720336809754372,-0.04651316627860069,0.04374260455369949
1733851388336009500,3.664009521484375,0.0026625797618180513,-0.04716723784804344,0.03842879831790924
1733851388345978600,3.673978515625,0.013362865895032883,-0.058154501020908356,0.034446172416210175
1733851388355946500,3.683946533203125,0.018439382314682007,-0.07178349792957306,0.04825626313686371
1733851388365915600,3.69391552734375,0.017213907092809677,-0.08109372854232788,0.057127684354782104
1733851388375884500,3.703884521484375,0.01904642954468727,-0.07994910329580307,0.04807320237159729
1733851388385852700,3.713852783203125,0.013649803586304188,-0.055513206869363785,0.04650231450796127
1733851388395821600,3.723821533203125,-0.001389067154377699,-0.045514900237321854,0.0429893396794796
1733851388405789700,3.733789794921875,-0.02329135313630104,-0.03855548053979874,0.046756673604249954
1733851388415758600,3.743758544921875,-0.04688962548971176,-0.041078027337789536,0.036772217601537704
1733851388425726700,3.753726806640625,-0.057010408490896225,-0.04133889079093933,0.018456730991601944
1733851388435695600,3.763695556640625,-0.047791607677936554,-0.036970239132642746,0.003759009763598442
1733851388445663500,3.77366357421875,-0.02516058273613453,-0.02630767971277237,-0.0005669610109180212
1733851388455632400,3.78363232421875,0.004721415229141712,-0.011493580415844917,0.002367309993132949
1733851388465601500,3.7936015625,0.022547507658600807,-0.0037255962379276752,0.006019897758960724
1733851388475569400,3.8035693359375,0.029158804565668106,-0.0020358203910291195,0.004297631327062845
1733851388485538600,3.81353857421875,0.026404254138469696,-0.0001345132477581501,0.004383182153105736
1733851388495506400,3.82350634765625,0.015038681216537952,-0.008408421650528908,0.004421265330165625
1733851388505475600,3.8334755859375,-0.00014519091928377748,-0.02321236953139305,0.0007229674374684691
1733851388515443500,3.843443359375,-0.01739475131034851,-0.038409434258937836,0.00993297714740038
1733851388525412600,3.85341259765625,-0.03236869350075722,-0.05067427083849907,0.02173355035483837
1733851388535381500,3.863381591796875,-0.040186136960983276,-0.05217496305704117,0.02611285261809826
1733851388545349600,3.873349609375,-0.03666166961193085,-0.03600333258509636,0.034439582377672195
1733851388555318500,3.883318603515625,-0.02855607494711876,-0.0140953678637743,0.03893952816724777
1733851388565286700,3.89328662109375,-0.017228400334715843,-0.002331963973119855,0.03115800768136978
1733851388575255600,3.903255615234375,-0.008040761575102806,0.0052553815767169,0.023363735526800156
1733851388585223700,3.9132236328125,-0.002045608125627041,0.01954580843448639,0.012763186357915401
1733851388595192600,3.923192626953125,-0.0006951193208806217,0.010674819350242615,0.0033782063983380795
1733851388605160400,3.933160400390625,0.0018314216285943985,-0.013493632897734642,0.008460050448775291
1733851388615129300,3.94312939453125,0.0066027408465743065,-0.039198730140924454,0.021889306604862213
1733851388625098500,3.953098388671875,0.009323595091700554,-0.060600534081459045,0.04660360887646675
1733851388635066600,3.963066650390625,0.011186210438609123,-0.07728257030248642,0.061325300484895706
1733851388645035500,3.973035400390625,0.015131798572838306,-0.07800085097551346,0.0712336078286171
1733851388655003600,3.983003662109375,0.015567491762340069,-0.07471904158592224,0.0889124646782875
1733851388664972500,3.99297265625,0.020586006343364716,-0.07907765358686447,0.11341849714517593
1733851388674941400,4.00294140625,0.021912792697548866,-0.08680401742458344,0.13900241255760193
1733851388684909600,4.01290966796875,0.021379023790359497,-0.09069547057151794,0.16763505339622498
1733851388694878500,4.02287841796875,0.023490112274885178,-0.09094048291444778,0.19096700847148895
1733851388704846600,4.0328466796875,0.025988228619098663,-0.07796924561262131,0.19689661264419556
1733851388714815700,4.042815673828125,0.029950212687253952,-0.04217609390616417,0.20735403895378113
1733851388724783600,4.05278369140625,0.02993326634168625,-0.013490012846887112,0.2279888540506363
1733851388734752800,4.062752685546875,0.022803984582424164,-0.005502127576619387,0.24824298918247223
1733851388744720400,4.072720458984375,0.015311756171286106,-0.011625077575445175,0.28420838713645935
1733851388754689500,4.082689453125,0.00781549047678709,-0.020048389211297035,0.3299303352832794
1733851388764658400,4.092658447265625,0.01244612317532301,-0.03944237530231476,0.37570279836654663
1733851388774626600,4.10262646484375,0.0196441151201725,-0.04294177144765854,0.4247867166996002
1733851388784595500,4.112595458984375,0.027492141351103783,-0.03663639351725578,0.47157561779022217
1733851388794563600,4.1225634765625,0.04458830505609512,-0.05606308951973915,0.5037058591842651
1733851388804532500,4.132532470703125,0.06471054255962372,-0.08588940650224686,0.5407888293266296
1733851388814500600,4.14250048828125,0.10200385749340057,-0.09392043203115463,0.6075640916824341
1733851388824469500,4.152469482421875,0.14589574933052063,-0.11170130968093872,0.6854527592658997
1733851388834438700,4.162438720703125,0.1797884702682495,-0.14595195651054382,0.7569224238395691
1733851388844406500,4.172406494140625,0.20432129502296448,-0.19323541224002838,0.8014061450958252
1733851388854375700,4.182375732421875,0.21441707015037537,-0.2135220319032669,0.8403778076171875
1733851388864343600,4.192343505859375,0.21865449845790863,-0.19795933365821838,0.8552581667900085
1733851388874312700,4.202312744140625,0.19870688021183014,-0.17700666189193726,0.8340104222297668
1733851388884280600,4.212280517578125,0.1810104101896286,-0.15273545682430267,0.803742527961731
1733851388894249700,4.222249755859375,0.16708634793758392,-0.14489644765853882,0.7871744632720947
1733851388904217600,4.232217529296875,0.16313283145427704,-0.12935493886470795,0.7919416427612305
1733851388914186500,4.2421865234375,0.16861121356487274,-0.12171860039234161,0.8037218451499939
1733851388924155400,4.2521552734375,0.19058847427368164,-0.13690802454948425,0.8256411552429199
1733851388934123500,4.26212353515625,0.22083613276481628,-0.15754033625125885,0.8610164523124695
1733851388944092400,4.272092529296875,0.2530965507030487,-0.16801394522190094,0.9056692123413086
1733851388954061000,4.28206103515625,0.28133299946784973,-0.18103919923305511,0.9462853074073792
1733851388964030000,4.292030029296875,0.30315977334976196,-0.1989290565252304,0.9834278225898743
1733851388973998000,4.301998046875,0.31745320558547974,-0.21557781100273132,1.015487790107727
1733851388983967000,4.311967041015625,0.32798588275909424,-0.23459167778491974,1.0454232692718506
1733851388993936100,4.32193603515625,0.3302362561225891,-0.2547621726989746,1.065929889678955
1733851389003904000,4.331904052734375,0.32526007294654846,-0.2543965280056,1.077571988105774
1733851389013873200,4.341873046875,0.3110790252685547,-0.25036317110061646,1.0785146951675415
1733851389023841000,4.351841064453125,0.2799934446811676,-0.25991106033325195,1.0642852783203125
1733851389033810200,4.36181005859375,0.2450450360774994,-0.2840707302093506,1.055662751197815
1733851389043778000,4.371778076171875,0.21860666573047638,-0.29435911774635315,1.0728312730789185
1733851389053747000,4.381746826171875,0.21008054912090302,-0.2953684628009796,1.1027984619140625
1733851389063715800,4.3917158203125,0.1983412802219391,-0.2898216247558594,1.1617398262023926
1733851389073684000,4.40168408203125,0.19066499173641205,-0.3025912344455719,1.2202776670455933
1733851389083652900,4.41165283203125,0.18517959117889404,-0.3387812077999115,1.2444181442260742
1733851389093621000,4.42162109375,0.1871468722820282,-0.3637624680995941,1.2600141763687134
1733851389103590000,4.43158984375,0.20223018527030945,-0.366626113653183,1.2681748867034912
1733851389113558000,4.44155810546875,0.23111136257648468,-0.35601314902305603,1.2735058069229126
1733851389123527200,4.451527099609375,0.25829190015792847,-0.31716394424438477,1.2859745025634766
1733851389133496000,4.46149609375,0.2730865776538849,-0.2833103835582733,1.297149419784546
1733851389143464200,4.471464111328125,0.2779693603515625,-0.24458973109722137,1.3029121160507202
1733851389153433000,4.48143310546875,0.264853835105896,-0.19289244711399078,1.314969778060913
1733851389163401200,4.491401123046875,0.23478738963603973,-0.16686339676380157,1.3414617776870728
1733851389173370000,4.5013701171875,0.20237351953983307,-0.1718861162662506,1.3682228326797485
1733851389183338000,4.511337890625,0.17811429500579834,-0.1926077902317047,1.374149203300476
1733851389193307000,4.521306884765625,0.1632527858018875,-0.22255396842956543,1.3649282455444336
1733851389203275000,4.53127490234375,0.1456691175699234,-0.24642370641231537,1.3595397472381592
1733851389213244000,4.541243896484375,0.1356779932975769,-0.2618303596973419,1.3365564346313477
1733851389223213000,4.551213134765625,0.13345035910606384,-0.26052501797676086,1.304800271987915
1733851389233181000,4.561180908203125,0.14253492653369904,-0.2575111389160156,1.26610267162323
1733851389243150000,4.571150146484375,0.1604561060667038,-0.2556542456150055,1.2349809408187866
1733851389253118000,4.581117919921875,0.17836028337478638,-0.25202861428260803,1.210606575012207
1733851389263087000,4.591087158203125,0.19611546397209167,-0.25353553891181946,1.200947880744934
1733851389273055000,4.601054931640625,0.20605064928531647,-0.24618256092071533,1.2033019065856934
1733851389283024100,4.611024169921875,0.2068450152873993,-0.24073955416679382,1.20891535282135
1733851389292993000,4.620992919921875,0.1895914524793625,-0.23236790299415588,1.2108951807022095
1733851389302961200,4.630961181640625,0.16303715109825134,-0.24479611217975616,1.2008975744247437
1733851389312930000,4.640929931640625,0.13201932609081268,-0.25381729006767273,1.1842889785766602
1733851389322898000,4.65089794921875,0.09961247444152832,-0.2604582607746124,1.1519408226013184
1733851389332866800,4.66086669921875,0.07613538205623627,-0.27799758315086365,1.1076250076293945
1733851389342835000,4.6708349609375,0.07583168894052505,-0.29664966464042664,1.0760072469711304
1733851389352803800,4.680803955078125,0.10162413120269775,-0.331887811422348,1.0583258867263794
1733851389362773000,4.69077294921875,0.1512640416622162,-0.3422801196575165,1.062360405921936
1733851389372740900,4.700740966796875,0.2047664076089859,-0.3426353633403778,1.079245924949646
1733851389382710000,4.7107099609375,0.2482980191707611,-0.33533334732055664,1.0814673900604248
1733851389392678100,4.72067822265625,0.2835470736026764,-0.3332049548625946,1.0684444904327393
1733851389402647000,4.73064697265625,0.3196938931941986,-0.3351246118545532,1.0633955001831055
1733851389412615200,4.740615234375,0.3456820845603943,-0.33010056614875793,1.0542455911636353
1733851389422584000,4.750583984375,0.3550889790058136,-0.3498065769672394,1.0458319187164307
1733851389432552200,4.76055224609375,0.3482217490673065,-0.3849307596683502,1.0461440086364746
1733851389442521000,4.77052099609375,0.33463093638420105,-0.4106447994709015,1.0418998003005981
1733851389452490000,4.780489990234375,0.3288990259170532,-0.41967183351516724,1.0487502813339233
1733851389462458000,4.7904580078125,0.33143943548202515,-0.4053206741809845,1.0631377696990967
1733851389472427000,4.800427001953125,0.35348349809646606,-0.38785406947135925,1.0800615549087524
1733851389482395000,4.810394775390625,0.3935207724571228,-0.3565540313720703,1.1054579019546509
1733851389492364000,4.820364013671875,0.43738651275634766,-0.3184109032154083,1.138329029083252
1733851389502332000,4.830331787109375,0.46403148770332336,-0.2968224585056305,1.1641753911972046
1733851389512301000,4.840301025390625,0.46427810192108154,-0.306494802236557,1.1839940547943115
1733851389522270000,4.85027001953125,0.44915345311164856,-0.31166020035743713,1.1835932731628418
1733851389532238000,4.860238037109375,0.41872018575668335,-0.3057312071323395,1.1706795692443848
1733851389542207000,4.87020703125,0.37448012828826904,-0.32273685932159424,1.1431843042373657
1733851389552175000,4.880175048828125,0.327444463968277,-0.32345589995384216,1.1190028190612793
1733851389562144000,4.89014404296875,0.2744462788105011,-0.28798791766166687,1.1072843074798584
1733851389572112100,4.900112060546875,0.21913880109786987,-0.2502528131008148,1.0929685831069946
1733851389582081000,4.9100810546875,0.1728285551071167,-0.2204725295305252,1.0718477964401245
1733851389592049200,4.920049072265625,0.1432134062051773,-0.234176367521286,1.0438356399536133
1733851389602018000,4.93001806640625,0.13770319521427155,-0.2553977966308594,1.0114837884902954
1733851389611987200,4.9399873046875,0.14558401703834534,-0.26690956950187683,0.9844516515731812
1733851389621954800,4.949954833984375,0.16624806821346283,-0.28681865334510803,0.9696928858757019
1733851389631924000,4.959924072265625,0.20086543262004852,-0.30116137862205505,0.9660161733627319
1733851389641891800,4.969891845703125,0.22787244617938995,-0.301766037940979,0.9693340063095093
1733851389651861000,4.979861083984375,0.2243805080652237,-0.30313941836357117,0.9646668434143066
1733851389661829000,4.9898291015625,0.19493085145950317,-0.3108288645744324,0.9549222588539124
1733851389671798000,4.999798095703125,0.1571698933839798,-0.3363637626171112,0.9249510765075684
1733851389681767000,5.009766845703125,0.12462291866540909,-0.3475182056427002,0.8952960968017578
1733851389691735000,5.019735107421875,0.09633908420801163,-0.3437679708003998,0.882813572883606
1733851389701704000,5.029703857421875,0.06616615504026413,-0.35158771276474,0.8817476630210876
1733851389711672000,5.039672119140625,0.04501373693346977,-0.3508678674697876,0.8940421342849731
1733851389721641000,5.049640869140625,0.03171765059232712,-0.33423927426338196,0.8842223286628723
1733851389731609000,5.059609130859375,0.028775392100214958,-0.32148221135139465,0.8624637722969055
1733851389741578000,5.069577880859375,0.03906085342168808,-0.3214593529701233,0.8131792545318604
1733851389751545900,5.0795458984375,0.07540954649448395,-0.3345474302768707,0.7544150352478027
1733851389761515300,5.089515380859375,0.1192307397723198,-0.3427107334136963,0.7157161831855774
1733851389771484200,5.099484130859375,0.1541421115398407,-0.3420651853084564,0.6889620423316956
1733851389781452000,5.1094521484375,0.16804198920726776,-0.3330427408218384,0.6831092238426208
1733851389791421000,5.1194208984375,0.15583060681819916,-0.33307763934135437,0.6806836128234863
1733851389801389000,5.12938916015625,0.11947521567344666,-0.3199761211872101,0.6717929244041443
1733851389811358000,5.13935791015625,0.07551281899213791,-0.2848255932331085,0.6453293561935425
1733851389821326000,5.149326171875,0.027241552248597145,-0.2540051341056824,0.6095466017723083
1733851389831295000,5.159294921875,-0.008306322619318962,-0.2495528608560562,0.5858271718025208
1733851389841264000,5.16926416015625,-0.024468358606100082,-0.24608533084392548,0.5759202837944031
1733851389851232000,5.17923193359375,-0.01692202500998974,-0.23030291497707367,0.5629531145095825
1733851389861201200,5.189201171875,0.0009056635317392647,-0.21518991887569427,0.5458327531814575
1733851389871169000,5.1991689453125,0.022021600976586342,-0.22540819644927979,0.5301720499992371
1733851389881138200,5.20913818359375,0.04587845504283905,-0.24341276288032532,0.5103238224983215
1733851389891106000,5.21910595703125,0.07491729408502579,-0.2508174180984497,0.4912302792072296
1733851389901075200,5.2290751953125,0.09204614162445068,-0.2452583909034729,0.4812164306640625
1733851389911044000,5.239044189453125,0.09617191553115845,-0.2389882504940033,0.48396962881088257
1733851389921012000,5.249011962890625,0.07588675618171692,-0.23511330783367157,0.4836103916168213
1733851389930980900,5.25898095703125,0.03935058042407036,-0.22638213634490967,0.4701385200023651
1733851389940949000,5.268948974609375,0.0034620030783116817,-0.225820854306221,0.46020373702049255
1733851389950917000,5.278917236328125,-0.02565220557153225,-0.21687637269496918,0.44020339846611023
1733851389960885200,5.28888525390625,-0.039806053042411804,-0.19136755168437958,0.41804537177085876
1733851389970854400,5.2988544921875,-0.042406629770994186,-0.17419815063476562,0.38571831583976746
1733851389980822300,5.308822265625,-0.030190985649824142,-0.16311487555503845,0.3683428168296814
1733851389990791400,5.31879150390625,-0.007460372988134623,-0.14157070219516754,0.36067745089530945
1733851390000760300,5.32876025390625,0.027697373181581497,-0.12067068368196487,0.3429986238479614
1733851390010728400,5.338728515625,0.06517550349235535,-0.11965655535459518,0.33522137999534607
1733851390020697300,5.348697265625,0.08621152490377426,-0.11441610753536224,0.32538673281669617
1733851390030665200,5.358665283203125,0.08736653625965118,-0.10560930520296097,0.29211241006851196
1733851390040634000,5.368634033203125,0.08116887509822845,-0.10502775013446808,0.24582630395889282
1733851390050602200,5.378602294921875,0.06889649480581284,-0.11404308676719666,0.18935823440551758
1733851390060571100,5.388571044921875,0.05091440677642822,-0.11648575961589813,0.13591529428958893
1733851390070540300,5.398540283203125,0.03755759075284004,-0.10385411977767944,0.08712990581989288
1733851390080508200,5.408508056640625,0.03189751133322716,-0.08117149770259857,0.08146391808986664
1733851390090477300,5.418477294921875,0.034779585897922516,-0.06619095057249069,0.10815757513046265
1733851390100445200,5.428445068359375,0.03968251869082451,-0.046603210270404816,0.13302260637283325
1733851390110414300,5.438414306640625,0.04893939942121506,-0.021026480942964554,0.15855246782302856
1733851390120382200,5.44838232421875,0.06410197168588638,-0.012742951512336731,0.1740526705980301
1733851390130351400,5.458351318359375,0.08524268120527267,-0.008012644946575165,0.18182697892189026
1733851390140320300,5.4683203125,0.10380819439888,-0.0017058992525562644,0.17174971103668213
1733851390150288400,5.478288330078125,0.11270555108785629,0.013784642331302166,0.1523009091615677
1733851390160257300,5.48825732421875,0.10974529385566711,0.03696843236684799,0.12164410203695297
1733851390170225400,5.498225341796875,0.08432115614414215,0.047802701592445374,0.09980778396129608
1733851390180194300,5.5081943359375,0.047558821737766266,0.01580057293176651,0.0963006541132927
1733851390190162200,5.518162109375,0.014353198930621147,-0.019410409033298492,0.08489593118429184
1733851390200131000,5.528131103515625,0.010889912024140358,-0.022636469453573227,0.08302756398916245
1733851390210099200,5.53809912109375,0.01505855843424797,-0.019251326099038124,0.08098811656236649
1733851390220068000,5.548068115234375,0.022316230461001396,-0.01912982389330864,0.06355535984039307
1733851390230037200,5.558037353515625,0.03750636801123619,-0.002459501149132848,0.03641321510076523
1733851390240005400,5.56800537109375,0.04904985800385475,0.01916629448533058,-0.003899674629792571
1733851390249974300,5.577974365234375,0.05915548652410507,0.029785383492708206,-0.04779283329844475
1733851390259942400,5.5879423828125,0.06142454221844673,0.033277176320552826,-0.07953362166881561
1733851390269911300,5.597911376953125,0.059215184301137924,0.008659981191158295,-0.10221097618341446
1733851390279879400,5.60787939453125,0.05286930501461029,-0.020727045834064484,-0.10521192103624344
1733851390289848300,5.617848388671875,0.04812515154480934,-0.026993997395038605,-0.11295212805271149
1733851390299817200,5.627817138671875,0.03807482868432999,-0.014553151093423367,-0.12499188631772995
1733851390309785300,5.637785400390625,0.023516124114394188,-0.01454542763531208,-0.1319374144077301
1733851390319754200,5.647754150390625,0.00864726398140192,-0.014898920431733131,-0.14519815146923065
1733851390329722000,5.65772216796875,0.0008953348151408136,-0.009410145692527294,-0.15748357772827148
1733851390339691300,5.667691162109375,0.007012431975454092,-0.024206357076764107,-0.153492271900177
1733851390349659100,5.6776591796875,0.01880357787013054,-0.03621721267700195,-0.14745035767555237
1733851390359628300,5.687628173828125,0.027949420735239983,-0.035168662667274475,-0.13649563491344452
1733851390369596200,5.69759619140625,0.02985437959432602,-0.03639744594693184,-0.12600943446159363
1733851390379565300,5.7075654296875,0.02241133525967598,-0.02816919796168804,-0.11337869614362717
1733851390389534200,5.7175341796875,0.008262494578957558,-0.016222523525357246,-0.09629851579666138
1733851390399502300,5.72750244140625,-0.008010840974748135,-0.02577865682542324,-0.08103778213262558
1733851390409471200,5.73747119140625,-0.02558237873017788,-0.017901292070746422,-0.07202591001987457
1733851390419439400,5.747439453125,-0.035705383867025375,-0.0007043796358630061,-0.060728903859853745
1733851390429408300,5.757408203125,-0.04848376289010048,0.00006500771269202232,-0.05169173330068588
1733851390439376400,5.76737646484375,-0.059959858655929565,-0.012127543799579144,-0.05749699845910072
1733851390449345300,5.77734521484375,-0.05723730847239494,-0.011164544150233269,-0.049089133739471436
1733851390459314400,5.787314453125,-0.05782986059784889,-0.01617494970560074,-0.03361233323812485
1733851390469282300,5.7972822265625,-0.06047677621245384,-0.022062133997678757,-0.025514455512166023
1733851390479251500,5.80725146484375,-0.057870831340551376,-0.02261621505022049,-0.020289774984121323
1733851390489219000,5.817218994140625,-0.0480664037168026,-0.025846362113952637,-0.02304241806268692
1733851390499188200,5.827188232421875,-0.04329521209001541,-0.016731858253479004,-0.026213031262159348
1733851390509156400,5.83715625,-0.03809086233377457,-0.00931175984442234,-0.029455428943037987
1733851390519125200,5.847125244140625,-0.03836953267455101,-0.003372887149453163,-0.039561644196510315
1733851390529094100,5.85709423828125,-0.0387738011777401,0.008097080513834953,-0.045208875089883804
1733851390539062300,5.867062255859375,-0.037342894822359085,0.015632763504981995,-0.056008756160736084
1733851390549031200,5.87703125,-0.03868486359715462,0.012474254705011845,-0.08034045994281769
1733851390558999300,5.886999267578125,-0.039627887308597565,0.01299223955720663,-0.08664682507514954
1733851390568968200,5.89696826171875,-0.033303678035736084,0.0020149555057287216,-0.08391841500997543
1733851390578936300,5.906936279296875,-0.024545395746827126,-0.0073790643364191055,-0.06632104516029358
1733851390588905200,5.9169052734375,-0.019232124090194702,-0.017107324674725533,-0.04718517139554024
1733851390598873300,5.926873291015625,-0.017792008817195892,-0.01368772704154253,-0.04527128115296364
1733851390608842500,5.936842529296875,-0.022884506732225418,0.0015567394439131021,-0.05285915732383728
1733851390618811400,5.946811279296875,-0.03129472956061363,0.00885072536766529,-0.07233583182096481
1733851390628779300,5.956779296875,-0.03765382617712021,0.010132770985364914,-0.06682255864143372
1733851390638748200,5.966748046875,-0.02816959284245968,0.004815192893147469,-0.059354547411203384
1733851390648716300,5.97671630859375,-0.014561105519533157,0.0050857700407505035,-0.04823931306600571
1733851390658685200,5.986685302734375,-0.001907041296362877,0.011441056616604328,-0.030901972204446793
1733851390668653300,5.9966533203125,-0.003719855099916458,0.008193864487111568,-0.025276577100157738
1733851390678622200,6.006622314453125,-0.007095091976225376,-0.003220523241907358,-0.025769365951418877
1733851390688590300,6.01659033203125,-0.013019293546676636,-0.011871268972754478,-0.02681758627295494
1733851390698559200,6.026559326171875,-0.01934630610048771,-0.017836248502135277,-0.04420806095004082
1733851390708528400,6.0365283203125,-0.015458622016012669,-0.018958237022161484,-0.06635037809610367
1733851390718496300,6.046496337890625,-0.008161809295415878,-0.01778365671634674,-0.08333398401737213
1733851390728465400,6.05646533203125,-0.0049353898502886295,-0.00332056125625968,-0.09620770066976547
1733851390738433300,6.066433349609375,-0.007119578309357166,0.010637031868100166,-0.10198017209768295
1733851390748402400,6.07640234375,-0.014229153282940388,0.012245846912264824,-0.10430032014846802
1733851390758370000,6.0863701171875,-0.022754179313778877,0.011483513750135899,-0.10312862694263458
1733851390768339200,6.096339111328125,-0.02655664086341858,0.006302866153419018,-0.10693641006946564
1733851390778308000,6.10630810546875,-0.028127038851380348,0.012109603732824326,-0.12205041944980621
1733851390788276200,6.116276123046875,-0.02411711774766445,0.030811386182904243,-0.14665403962135315
1733851390798245000,6.1262451171875,-0.02334555611014366,0.03967457637190819,-0.1706683486700058
1733851390808213200,6.136213134765625,-0.027928590774536133,0.05309850350022316,-0.19032461941242218
1733851390818182100,6.14618212890625,-0.04027716442942619,0.04443937540054321,-0.21833880245685577
1733851390828150300,6.156150390625,-0.05236099287867546,0.04005102068185806,-0.23946326971054077
1733851390838119200,6.166119140625,-0.0735497698187828,0.021085022017359734,-0.25727877020835876
1733851390848087300,6.17608740234375,-0.08058691024780273,0.005969451740384102,-0.27234429121017456
1733851390858056200,6.18605615234375,-0.08277127891778946,-0.00922220665961504,-0.2667936682701111
1733851390868025300,6.196025390625,-0.07650246471166611,-0.017640192061662674,-0.24900588393211365
1733851390877993500,6.205993408203125,-0.06318773329257965,-0.0031161741353571415,-0.23543766140937805
1733851390887962400,6.21596240234375,-0.04514988139271736,0.020698610693216324,-0.2189071625471115
1733851390897930500,6.225930419921875,-0.027144866064190865,0.040925804525613785,-0.20124591886997223
1733851390907899400,6.2358994140625,-0.019160175696015358,0.06032880023121834,-0.18850162625312805
1733851390917867300,6.2458671875,-0.021708499640226364,0.07496172189712524,-0.17824427783489227
1733851390927836200,6.255836181640625,-0.024600960314273834,0.08118978887796402,-0.16531836986541748
1733851390937805000,6.26580517578125,-0.04354933649301529,0.08193793892860413,-0.15217453241348267
1733851390947773200,6.275773193359375,-0.05714557319879532,0.06719308346509933,-0.15393728017807007
1733851390957742300,6.285742431640625,-0.06680256873369217,0.04826156049966812,-0.1575087457895279
1733851390967710500,6.29571044921875,-0.06329438835382462,0.029741937294602394,-0.15718916058540344
1733851390977679600,6.3056796875,-0.04657542705535889,0.017202869057655334,-0.15250423550605774
1733851390987647500,6.3156474609375,-0.02120642177760601,0.009215781465172768,-0.14534352719783783
1733851390997616600,6.32561669921875,-0.0008467687293887138,0.01848669908940792,-0.13893607258796692
1733851391007584500,6.33558447265625,0.012124690227210522,0.027277793735265732,-0.13753950595855713
1733851391017553700,6.3455537109375,0.0226700771600008,0.03139875456690788,-0.13135887682437897
1733851391027522600,6.3555224609375,0.026783328503370285,0.03161846846342087,-0.1281771957874298
1733851391037490700,6.36549072265625,0.024051452055573463,0.023585641756653786,-0.12693628668785095
1733851391047459600,6.37545947265625,0.009774245321750641,0.030262719839811325,-0.12963593006134033
1733851391057427700,6.385427734375,-0.007952305488288403,0.03549889475107193,-0.1441466063261032
1733851391067396600,6.395396728515625,-0.02470571920275688,0.02942821942269802,-0.1543947160243988
1733851391077364500,6.405364501953125,-0.04150870814919472,0.01986115612089634,-0.1696377843618393
1733851391087333600,6.415333740234375,-0.049615904688835144,0.0037903108168393373,-0.1971849948167801
1733851391097302800,6.425302734375,-0.043318115174770355,-0.010825570672750473,-0.2301441729068756
1733851391107270400,6.4352705078125,-0.03226999193429947,-0.02392539195716381,-0.2702159285545349
1733851391117239600,6.445239501953125,-0.018307669088244438,-0.03236053138971329,-0.3199785649776459
1733851391127207400,6.45520751953125,-0.01362236961722374,-0.0311202984303236,-0.391288161277771
1733851391137176600,6.465176513671875,-0.0323517806828022,-0.029136793687939644,-0.47136783599853516
1733851391147144400,6.47514453125,-0.06829726696014404,-0.053861845284700394,-0.5295495986938477
1733851391157113600,6.485113525390625,-0.10083558410406113,-0.08397478610277176,-0.5872894525527954
1733851391167081500,6.49508154296875,-0.12988214194774628,-0.0895455852150917,-0.6539307832717896
1733851391177050600,6.505050537109375,-0.14492085576057434,-0.08528203517198563,-0.7152049541473389
1733851391187019500,6.51501953125,-0.14608065783977509,-0.08687327802181244,-0.7743500471115112
1733851391196987600,6.524987548828125,-0.13346952199935913,-0.07239148020744324,-0.8428770899772644
1733851391206956500,6.53495654296875,-0.11271283030509949,-0.04692792892456055,-0.9118306040763855
1733851391216924700,6.544924560546875,-0.09427771717309952,-0.0397089459002018,-0.9767528772354126
1733851391226893600,6.5548935546875,-0.08275555074214935,-0.045839276164770126,-1.0245110988616943
1733851391236861400,6.564861328125,-0.0785178616642952,-0.04191485792398453,-1.0453757047653198
1733851391246830300,6.574830322265625,-0.07924596965312958,-0.03288887441158295,-1.0572144985198975
1733851391256798500,6.584798583984375,-0.07983959466218948,-0.00979527272284031,-1.056280255317688
1733851391266767600,6.594767578125,-0.08025850355625153,-0.0013157677603885531,-1.0438950061798096
1733851391276736500,6.604736572265625,-0.08414380252361298,-0.0012928618816658854,-1.0215758085250854
1733851391286704600,6.61470458984375,-0.07797085493803024,-0.013619569130241871,-1.00554621219635
1733851391296673500,6.624673583984375,-0.07141526788473129,-0.011160925030708313,-0.9785282015800476
1733851391306641700,6.6346416015625,-0.058189477771520615,-0.012062937952578068,-0.9630706906318665
1733851391316610600,6.644610595703125,-0.05151253566145897,-0.021397018805146217,-0.9368637800216675
1733851391326578700,6.65457861328125,-0.05854008346796036,-0.030718348920345306,-0.9200296998023987
1733851391336547600,6.664547607421875,-0.0709979310631752,-0.02026907540857792,-0.9152380228042603
1733851391346515700,6.674515625,-0.09270242601633072,-0.013683611527085304,-0.9210376143455505
1733851391356484600,6.684484619140625,-0.10340014100074768,0.013640702702105045,-0.9273825883865356
1733851391366453800,6.694453857421875,-0.10614718496799469,0.05339876562356949,-0.9263186454772949
1733851391376421400,6.70442138671875,-0.10066032409667969,0.08598368614912033,-0.9198098182678223
1733851391386390500,6.714390625,-0.07747990638017654,0.10137435793876648,-0.9067251682281494
1733851391396358400,6.7243583984375,-0.04684429615736008,0.09488452225923538,-0.8718805909156799
1733851391406327600,6.73432763671875,-0.008884130977094173,0.07313581556081772,-0.8429821133613586
1733851391416295400,6.74429541015625,0.01915339007973671,0.04276391863822937,-0.819229245185852
1733851391426264600,6.7542646484375,0.03582983836531639,0.014002312906086445,-0.8144864439964294
1733851391436233500,6.7642333984375,0.038604892790317535,-0.011481883004307747,-0.8362512588500977
1733851391446201600,6.77420166015625,0.03290306776762009,-0.03408226743340492,-0.8659657835960388
1733851391456170500,6.78417041015625,0.015990465879440308,-0.04171403869986534,-0.8982330560684204
1733851391466138600,6.794138671875,-0.005566224455833435,-0.05328041687607765,-0.9362496733665466
1733851391476107500,6.804107421875,-0.02749851904809475,-0.05180113762617111,-0.9686439633369446
1733851391486075600,6.81407568359375,-0.040582895278930664,-0.07058893889188766,-0.9897404909133911
1733851391496044500,6.82404443359375,-0.05366531014442444,-0.08678697794675827,-0.9906995892524719
1733851391506012700,6.8340126953125,-0.05331616848707199,-0.11386866122484207,-0.9787481427192688
1733851391515981600,6.843981689453125,-0.049223776906728745,-0.13351038098335266,-0.9745415449142456
1733851391525950700,6.85395068359375,-0.039479270577430725,-0.13454794883728027,-1.0052558183670044
1733851391535918600,6.863918701171875,-0.03561188280582428,-0.11431929469108582,-1.056814432144165
1733851391545887500,6.873887451171875,-0.04444851726293564,-0.09290668368339539,-1.1238791942596436
1733851391555855600,6.883855712890625,-0.06219957768917084,-0.0878814235329628,-1.1992487907409668
1733851391565824500,6.893824462890625,-0.07716840505599976,-0.07610652595758438,-1.2632261514663696
1733851391575792600,6.903792724609375,-0.07546556740999222,-0.04505400359630585,-1.3128466606140137
1733851391585761500,6.913761474609375,-0.06400678306818008,-0.007717552129179239,-1.34982430934906
1733851391595729700,6.923729736328125,-0.036073166877031326,0.026356730610132217,-1.3771559000015259
1733851391605698600,6.933698486328125,-0.004254520870745182,0.06841284036636353,-1.3963892459869385
1733851391615667500,6.94366748046875,0.027460910379886627,0.10886802524328232,-1.386946201324463
1733851391625635600,6.953635498046875,0.048437297344207764,0.11048536002635956,-1.3637809753417969
1733851391635604700,6.963604736328125,0.06064695492386818,0.08838888257741928,-1.3273561000823975
1733851391645572600,6.973572509765625,0.07208709418773651,0.07211802899837494,-1.2891300916671753
1733851391655541800,6.983541748046875,0.08562292158603668,0.07508677989244461,-1.2554965019226074
1733851391665509400,6.99350927734375,0.09408857673406601,0.08941804617643356,-1.2431703805923462
1733851391675478500,7.003478515625,0.09194544702768326,0.10833417624235153,-1.2411775588989258
1733851391685446400,7.0134462890625,0.07715371996164322,0.12467080354690552,-1.2510607242584229
1733851391695415600,7.02341552734375,0.05762055143713951,0.13407035171985626,-1.2338565587997437
1733851391705384400,7.033384521484375,0.039164576679468155,0.12525954842567444,-1.2108924388885498
1733851391715352600,7.0433525390625,0.0258236862719059,0.11574575304985046,-1.1977118253707886
1733851391725321500,7.053321533203125,0.024998638778924942,0.1105043813586235,-1.1958446502685547
1733851391735289600,7.06328955078125,0.034466397017240524,0.10780854523181915,-1.1786946058273315
1733851391745258500,7.073258544921875,0.048981692641973495,0.09816364198923111,-1.1654459238052368
1733851391755226600,7.0832265625,0.06284128874540329,0.08289673924446106,-1.1517308950424194
1733851391765195500,7.093195556640625,0.08027167618274689,0.06971542537212372,-1.1299675703048706
1733851391775163600,7.10316357421875,0.0966494232416153,0.04150546342134476,-1.1099581718444824
1733851391785132500,7.113132568359375,0.11752967536449432,0.03374927490949631,-1.0781831741333008
1733851391795101700,7.123101806640625,0.12692299485206604,0.022384880110621452,-1.0334144830703735
1733851391805069600,7.133069580078125,0.12804898619651794,-0.014705765061080456,-0.9831864833831787
1733851391815038700,7.143038818359375,0.11965683847665787,-0.04334140568971634,-0.9695847034454346
1733851391825006600,7.153006591796875,0.10406643152236938,-0.04984777420759201,-0.9680187702178955
1733851391834975500,7.1629755859375,0.08140969276428223,-0.056311290711164474,-0.9762018322944641
1733851391844943600,7.172943603515625,0.04014720395207405,-0.06533940136432648,-0.980396568775177
1733851391854912500,7.18291259765625,0.010175086557865143,-0.06524670124053955,-0.9788034558296204
1733851391864880600,7.192880615234375,-0.018280791118741035,-0.08461800217628479,-0.9645044207572937
1733851391874849500,7.202849609375,-0.028160076588392258,-0.12935863435268402,-0.9431374073028564
1733851391884818400,7.212818359375,-0.027002668008208275,-0.21546129882335663,-0.9300495982170105
1733851391894786600,7.22278662109375,-0.009459402412176132,-0.3213767409324646,-0.9167187809944153
1733851391904755700,7.232755615234375,0.009283658117055893,-0.4284776449203491,-0.8783002495765686
1733851391914723600,7.2427236328125,0.032630134373903275,-0.4929678738117218,-0.8343685269355774
1733851391924692700,7.252692626953125,0.05335725098848343,-0.48595020174980164,-0.7859777808189392
1733851391934660600,7.26266064453125,0.061876147985458374,-0.43835294246673584,-0.7392134666442871
1733851391944629800,7.272629638671875,0.035579293966293335,-0.3888285160064697,-0.7229247689247131
1733851391954598400,7.282598388671875,-0.0010720721911638975,-0.3295937776565552,-0.7446038722991943
1733851391964567300,7.2925673828125,-0.01950008049607277,-0.2693869173526764,-0.7771327495574951
1733851391974536400,7.302536376953125,-0.02318485639989376,-0.2223166525363922,-0.8086521029472351
1733851391984504600,7.312504638671875,-0.02534468099474907,-0.1963827908039093,-0.81485915184021
1733851391994473500,7.322473388671875,-0.02314024604856968,-0.18935367465019226,-0.804814338684082
1733851392004441600,7.332441650390625,-0.008975423872470856,-0.19049164652824402,-0.773807942867279
1733851392014410500,7.342410400390625,0.012661107815802097,-0.20117004215717316,-0.73177570104599
1733851392024378600,7.352378662109375,0.03702982887625694,-0.21718230843544006,-0.6772597432136536
1733851392034347500,7.362347412109375,0.06289605796337128,-0.22169362008571625,-0.6457933783531189
1733851392044315600,7.372315673828125,0.090878427028656,-0.23800814151763916,-0.6344354748725891
1733851392054284500,7.382284423828125,0.11216099560260773,-0.28032562136650085,-0.6382234692573547
1733851392064253700,7.392253662109375,0.13154374063014984,-0.3041939437389374,-0.6740350127220154
1733851392074221600,7.4022216796875,0.14228813350200653,-0.30178701877593994,-0.7101485133171082
1733851392084190700,7.412190673828125,0.14616011083126068,-0.28585943579673767,-0.7251889705657959
1733851392094158300,7.422158447265625,0.15337064862251282,-0.257996529340744,-0.7269686460494995
1733851392104127500,7.43212744140625,0.14627598226070404,-0.24043989181518555,-0.7291370034217834
1733851392114095400,7.442095458984375,0.13102519512176514,-0.2382826954126358,-0.7170443534851074
1733851392124064500,7.452064453125,0.1172710433602333,-0.24361887574195862,-0.7052643895149231
1733851392134032400,7.462032470703125,0.11494632810354233,-0.23766204714775085,-0.6873648166656494
1733851392144001500,7.47200146484375,0.1078745648264885,-0.21758925914764404,-0.6667677164077759
1733851392153970400,7.481970458984375,0.09435244649648666,-0.20064084231853485,-0.6674656271934509
1733851392163938600,7.4919384765625,0.0809764564037323,-0.17735949158668518,-0.6815282106399536
1733851392173907500,7.501907470703125,0.06719718128442764,-0.13966304063796997,-0.6978886127471924
1733851392183875600,7.51187548828125,0.07079724222421646,-0.11610231548547745,-0.7070705890655518
1733851392193844500,7.521844482421875,0.07839976996183395,-0.11956335604190826,-0.6821885108947754
1733851392203812600,7.5318125,0.08647100627422333,-0.10776954889297485,-0.6453374624252319
1733851392213781500,7.541781494140625,0.11560681462287903,-0.07593613117933273,-0.6299040913581848
1733851392223749600,7.55174951171875,0.15442772209644318,-0.055056147277355194,-0.6188596487045288
1733851392233718500,7.561718505859375,0.18803471326828003,-0.035023462027311325,-0.5937625169754028
1733851392243687700,7.571687744140625,0.20530425012111664,-0.012539722956717014,-0.584035336971283
1733851392253655600,7.581655517578125,0.1867828518152237,0.005391121841967106,-0.5951887965202332
1733851392263624400,7.59162451171875,0.15204857289791107,0.020766882225871086,-0.6135920882225037
1733851392273592600,7.601592529296875,0.1085369735956192,0.028209101408720016,-0.6146519780158997
1733851392283561500,7.6115615234375,0.06227441132068634,0.014156399294734001,-0.5927634835243225
1733851392293529600,7.621529541015625,0.029749572277069092,0.004001281224191189,-0.5683606266975403
1733851392303498500,7.63149853515625,0.027365511283278465,0.021085459738969803,-0.5534764528274536
1733851392313466600,7.641466552734375,0.04784512147307396,0.05498792231082916,-0.5362709760665894
1733851392323435500,7.651435546875,0.08364865928888321,0.06311243027448654,-0.5191865563392639
1733851392333404400,7.661404296875,0.11143805831670761,0.04366779699921608,-0.49201011657714844
1733851392343372500,7.67137255859375,0.1312439739704132,-0.01813644915819168,-0.4656411111354828
1733851392353341700,7.681341796875,0.14121758937835693,-0.09413695335388184,-0.43747764825820923
1733851392363309600,7.6913095703125,0.152755469083786,-0.17739829421043396,-0.387999564409256
1733851392373278700,7.70127880859375,0.1571180373430252,-0.24711725115776062,-0.3289653956890106
1733851392383246300,7.711246337890625,0.14254789054393768,-0.28216978907585144,-0.27666330337524414
1733851392393215500,7.721215576171875,0.11223509907722473,-0.27234354615211487,-0.2563425898551941
1733851392403183400,7.731183349609375,0.08229131996631622,-0.23473893105983734,-0.2593679428100586
1733851392413152500,7.741152587890625,0.05130598321557045,-0.19130009412765503,-0.2691287398338318
1733851392423121400,7.751121337890625,0.03883440047502518,-0.17146140336990356,-0.27686575055122375
1733851392433089500,7.761089599609375,0.025688352063298225,-0.1350131630897522,-0.2517755627632141
1733851392443058400,7.771058349609375,0.024377278983592987,-0.1094428151845932,-0.2031172215938568
1733851392453026600,7.781026611328125,0.03046070970594883,-0.10843200236558914,-0.1521279364824295
1733851392462995500,7.790995361328125,0.04428358003497124,-0.1102227121591568,-0.0949741005897522
1733851392472963600,7.800963623046875,0.05450311303138733,-0.11125127971172333,-0.04355621710419655
1733851392482932500,7.810932373046875,0.06390459835529327,-0.11541140079498291,-0.0005717300809919834
1733851392492900600,7.820900634765625,0.060377318412065506,-0.11115268617868423,0.024955805391073227
1733851392502869500,7.830869384765625,0.036294884979724884,-0.11476685851812363,0.03753045201301575
1733851392512838700,7.840838623046875,0.008742334321141243,-0.11190755665302277,0.03928237035870552
1733851392522806500,7.850806640625,-0.018446942791342735,-0.11192832887172699,0.05024793744087219
1733851392532775700,7.860775634765625,-0.03161168843507767,-0.11325299739837646,0.05852344632148743
1733851392542743600,7.87074365234375,-0.024859776720404625,-0.09514456987380981,0.05572366714477539
1733851392552712400,7.88071240234375,-0.012998831458389759,-0.0790153443813324,0.05292418226599693
1733851392562680600,7.8906806640625,0.007056636270135641,-0.06567477434873581,0.05616578459739685
1733851392572649500,7.9006494140625,0.02368677407503128,-0.05498391389846802,0.05287984013557434
1733851392582617600,7.91061767578125,0.03362356126308441,-0.03225063905119896,0.04799799993634224
1733851392592586500,7.92058642578125,0.040652722120285034,-0.008517283946275711,0.04503156989812851
1733851392602555400,7.930555419921875,0.05127846822142601,0.011510219424962997,0.050834331661462784
1733851392612523500,7.9405234375,0.0594576895236969,0.021341722458600998,0.06011159345507622
1733851392622492700,7.95049267578125,0.06294376403093338,0.02724595181643963,0.05995713174343109
1733851392632460500,7.96046044921875,0.057320695370435715,0.02907901629805565,0.040982436388731
1733851392642429700,7.9704296875,0.04876129329204559,0.03275018185377121,0.018368469551205635
1733851392652397600,7.9803974609375,0.03882156312465668,0.04119127616286278,-0.00418431032449007
1733851392662366700,7.99036669921875,0.030846459791064262,0.053506530821323395,-0.022551333531737328
1733851392672334300,8.000334228515625,0.029242845252156258,0.0710434839129448,-0.02686695195734501
1733851392682303500,8.010303466796875,0.03503521904349327,0.07987425476312637,-0.015196714550256729
1733851392692272400,8.0202724609375,0.042425576597452164,0.07852860540151596,-0.009330270811915398
1733851392702240500,8.030240478515625,0.04973462224006653,0.08012516796588898,0.003065412864089012
1733851392712209400,8.04020947265625,0.053398966789245605,0.07287382334470749,0.024212976917624474
1733851392722177500,8.050177490234375,0.04794241487979889,0.053455647081136703,0.02804872952401638
1733851392732146400,8.060146484375,0.033489685505628586,0.03224610909819603,0.020211143419146538
1733851392742114600,8.070114501953125,0.02027667872607708,0.008506692945957184,0.005907039623707533
1733851392752083500,8.08008349609375,0.001492885872721672,0.0036603338085114956,-0.017417391762137413
1733851392762051600,8.090051513671876,-0.015866130590438843,0.008195431903004646,-0.034694649279117584
1733851392772020500,8.1000205078125,-0.029171714559197426,-0.003738288301974535,-0.04483629763126373
1733851392781989600,8.10998974609375,-0.03516063094139099,-0.018641071394085884,-0.04621262103319168
1733851392791957500,8.11995751953125,-0.032208170741796494,-0.025556720793247223,-0.041458845138549805
1733851392801926700,8.1299267578125,-0.02483520656824112,-0.040564700961112976,-0.031945500522851944
1733851392811894500,8.13989453125,-0.013316343538463116,-0.04654733091592789,-0.028237108141183853
1733851392821863400,8.149863525390625,-0.01132323406636715,-0.04609938710927963,-0.0336233526468277
1733851392831831600,8.15983154296875,-0.004412184935063124,-0.05776672810316086,-0.051077283918857574
1733851392841800400,8.169800537109374,-0.004682495724409819,-0.058528922498226166,-0.05672824755311012
1733851392851768600,8.1797685546875,-0.007793415803462267,-0.06101343780755997,-0.07211975008249283
1733851392861737500,8.189737548828125,-0.008296221494674683,-0.06546890735626221,-0.08644063025712967
1733851392871705600,8.19970556640625,-0.011392523534595966,-0.05914992839097977,-0.0895489752292633
1733851392881674500,8.209674560546874,-0.020074961706995964,-0.05729983001947403,-0.09322626888751984
1733851392891643600,8.2196435546875,-0.02919984608888626,-0.053643420338630676,-0.09823949635028839
1733851392901611500,8.229611572265625,-0.03585774824023247,-0.04746329039335251,-0.1025591492652893
1733851392911580700,8.23958056640625,-0.03805626183748245,-0.047919802367687225,-0.1159764900803566
1733851392921548500,8.249548583984375,-0.033434610813856125,-0.046478766947984695,-0.12312521040439606
1733851392931517700,8.259517578125,-0.024539576843380928,-0.051735199987888336,-0.13573084771633148
1733851392941485300,8.2694853515625,-0.012548428028821945,-0.056968577206134796,-0.1561138778924942
1733851392951454700,8.279454833984374,0.0021936073899269104,-0.06790527701377869,-0.16868366301059723
1733851392961422300,8.28942236328125,0.013405515812337399,-0.08584859222173691,-0.182578444480896
1733851392971391500,8.2993916015625,0.026061374694108963,-0.1142006665468216,-0.19339361786842346
1733851392981360400,8.3093603515625,0.038767583668231964,-0.12591376900672913,-0.18939648568630219
1733851392991328500,8.31932861328125,0.04663461819291115,-0.12833407521247864,-0.1737392246723175
1733851393001297400,8.32929736328125,0.045105963945388794,-0.14406217634677887,-0.16390496492385864
1733851393011265300,8.339265380859375,0.04268321394920349,-0.16565538942813873,-0.1660427451133728
1733851393021234400,8.349234375,0.0417013056576252,-0.18453001976013184,-0.16094838082790375
1733851393031202300,8.359202392578124,0.026933757588267326,-0.191920205950737,-0.15058061480522156
1733851393041171200,8.369171142578125,0.0067512583918869495,-0.20439445972442627,-0.14949670433998108
1733851393051139300,8.379139404296875,-0.012598794884979725,-0.20436914265155792,-0.14604471623897552
1733851393061108200,8.389108154296874,-0.02446157857775688,-0.18653422594070435,-0.14271709322929382
1733851393071077400,8.399077392578125,-0.027523651719093323,-0.15649069845676422,-0.13720448315143585
1733851393081045500,8.40904541015625,-0.021844197064638138,-0.13133607804775238,-0.13110318779945374
1733851393091014400,8.419014404296876,-0.015142516233026981,-0.11212493479251862,-0.12826989591121674
1733851393100982500,8.428982421875,-0.014572599902749062,-0.09053495526313782,-0.1184108778834343
1733851393110951400,8.438951416015625,-0.0131022147834301,-0.07778887450695038,-0.08656223863363266
1733851393120919600,8.44891943359375,-0.010684863664209843,-0.07931433618068695,-0.062365561723709106
1733851393130888400,8.458888427734376,-0.007420908194035292,-0.07860280573368073,-0.04308833181858063
1733851393140856600,8.468856689453125,-0.006517830304801464,-0.08430569618940353,-0.03575079143047333
1733851393150825500,8.478825439453125,-0.013599121943116188,-0.08345675468444824,-0.04226524755358696
1733851393160794600,8.488794677734376,-0.020735062658786774,-0.06572942435741425,-0.05062730982899666
1733851393170762200,8.49876220703125,-0.026245253160595894,-0.04957486316561699,-0.06052857264876366
1733851393180731400,8.5087314453125,-0.030386734753847122,-0.049421198666095734,-0.06952846795320511
1733851393190699300,8.51869921875,-0.02477235533297062,-0.03718088939785957,-0.07064709067344666
1733851393200668400,8.52866845703125,-0.01730591617524624,-0.032500382512807846,-0.06983508914709091
1733851393210636300,8.53863623046875,-0.0051206923089921474,-0.0352436862885952,-0.06582140922546387
1733851393220605400,8.54860546875,0.004144445527344942,-0.04727371782064438,-0.06264851987361908
1733851393230573300,8.5585732421875,0.010893229395151138,-0.04624282568693161,-0.05976727977395058
1733851393240542500,8.56854248046875,0.0146967563778162,-0.03083058074116707,-0.051323194056749344
1733851393250510300,8.57851025390625,0.01426360011100769,-0.021949704736471176,-0.04795825853943825
1733851393260479500,8.5884794921875,0.011115743778645992,-0.012961536645889282,-0.05777467042207718
1733851393270448400,8.598448486328126,-0.0004786908975802362,0.008838724344968796,-0.07797563821077347
1733851393280416500,8.60841650390625,-0.022705966606736183,0.018808800727128983,-0.10597185045480728
1733851393290385400,8.618385498046875,-0.043844349682331085,0.026906093582510948,-0.13613541424274445
1733851393300353300,8.628353271484375,-0.07202830910682678,0.031996194273233414,-0.17467056214809418
1733851393310322200,8.638322265625,-0.08697918057441711,0.03914083540439606,-0.2202962189912796
1733851393320290300,8.648290283203124,-0.09928032010793686,0.04969866946339607,-0.27829641103744507
1733851393330259200,8.65825927734375,-0.09629590064287186,0.040397949516773224,-0.33635368943214417
1733851393340227300,8.668227294921875,-0.09323060512542725,0.05235341191291809,-0.3836221396923065
1733851393350196500,8.678196533203124,-0.08324573934078217,0.0673433169722557,-0.43228551745414734
1733851393360165400,8.688165283203125,-0.07684243470430374,0.0482279434800148,-0.48216918110847473
1733851393370133500,8.698133544921875,-0.0805806964635849,0.032472480088472366,-0.537999153137207
1733851393380102400,8.708102294921876,-0.08674351871013641,0.034636031836271286,-0.6030804514884949
1733851393390070500,8.718070556640624,-0.09233372658491135,0.03858322650194168,-0.6822496056556702
1733851393400039400,8.728039306640625,-0.09311535954475403,0.046424634754657745,-0.7511062026023865
1733851393410007600,8.738007568359375,-0.10051627457141876,0.054770246148109436,-0.7954277992248535
1733851393419976400,8.7479765625,-0.10465002804994583,0.04599433392286301,-0.8362175822257996
1733851393429944600,8.757944580078124,-0.10476994514465332,0.046286433935165405,-0.8597530722618103
1733851393439913500,8.76791357421875,-0.09189063310623169,0.04656180739402771,-0.8653299808502197
1733851393449882600,8.777882568359376,-0.06439042836427689,0.0396200455725193,-0.8800899982452393
1733851393459850200,8.787850341796876,-0.036216311156749725,0.04094283655285835,-0.9031596183776855
1733851393469819400,8.7978193359375,-0.005132410209625959,0.03173800930380821,-0.9261002540588379
1733851393479787300,8.807787353515625,0.021339677274227142,0.027290264144539833,-0.9467200040817261
1733851393489756400,8.81775634765625,0.03175238147377968,0.027917969971895218,-0.9546168446540833
1733851393499724300,8.827724365234374,0.039370618760585785,0.04496779292821884,-0.9328476190567017
1733851393509693400,8.837693359375,0.031682826578617096,0.055185623466968536,-0.9051932692527771
1733851393519661300,8.847661376953125,0.0046578687615692616,0.055051665753126144,-0.8918439149856567
1733851393529630500,8.85763037109375,-0.02943294681608677,0.06480009108781815,-0.8903707265853882
1733851393539598600,8.8675986328125,-0.07093191891908646,0.0844438299536705,-0.8999615907669067
1733851393549567500,8.8775673828125,-0.11320681869983673,0.06010197475552559,-0.9349163770675659
1733851393559536400,8.887536376953125,-0.13703653216362,0.06740809231996536,-0.9489562511444092
1733851393569504500,8.89750439453125,-0.14505192637443542,0.08449029922485352,-0.9506624341011047
1733851393579473400,8.907473388671875,-0.12804017961025238,0.09036576747894287,-0.9601590037345886
1733851393589441300,8.917441162109375,-0.11240894347429276,0.11090011894702911,-0.9622650146484375
1733851393599410200,8.92741015625,-0.08756911009550095,0.11730688065290451,-0.9664565324783325
1733851393609378300,8.93737841796875,-0.06190810352563858,0.08378563821315765,-0.9816861152648926
1733851393619347500,8.947347412109375,-0.044123515486717224,0.06284040957689285,-1.0125625133514404
1733851393629315300,8.9573154296875,-0.02546772174537182,0.06100260466337204,-1.050241470336914
1733851393639284500,8.967284423828126,-0.018831923604011536,0.04736988991498947,-1.0872689485549927
1733851393649253400,8.97725341796875,-0.02249365858733654,0.028570806607604027,-1.1097016334533691
1733851393659221500,8.987221435546875,-0.03761642053723335,0.04027433320879936,-1.12576425075531
1733851393669190400,8.9971904296875,-0.04547249153256416,0.036046236753463745,-1.1418354511260986
1733851393679158500,9.007158447265626,-0.043733980506658554,0.04676732420921326,-1.1452226638793945
1733851393689127400,9.01712744140625,-0.033570557832717896,0.05900108814239502,-1.1471787691116333
1733851393699095600,9.027095458984375,-0.02054077759385109,0.05028536170721054,-1.1483899354934692
1733851393709064400,9.037064453125,-0.004838746041059494,0.06520670652389526,-1.133194088935852
1733851393719032300,9.0470322265625,0.0008518965914845467,0.07124063372612,-1.141344428062439
1733851393729001200,9.057001220703125,-0.0005412276950664818,0.09233508259057999,-1.153767704963684
1733851393738970400,9.066970458984375,-0.009065739810466766,0.09960071742534637,-1.155420184135437
1733851393748938200,9.076938232421876,-0.026943616569042206,0.08659224957227707,-1.1589508056640625
1733851393758907400,9.086907470703125,-0.04975732043385506,0.0635782778263092,-1.1655540466308594
1733851393768875300,9.096875244140625,-0.07022334635257721,0.061684876680374146,-1.1658012866973877
1733851393778844400,9.106844482421875,-0.09124447405338287,0.06756513565778732,-1.1793464422225952
1733851393788812300,9.116812255859376,-0.10581356287002563,0.04793344438076019,-1.1939809322357178
1733851393798781400,9.126781494140625,-0.11282699555158615,0.028040964156389236,-1.1976937055587769
1733851393808749300,9.136749267578125,-0.11528786271810532,-0.012009425088763237,-1.2232666015625
1733851393818718500,9.146718505859376,-0.12217187136411667,-0.05149584636092186,-1.2543891668319702
1733851393828686600,9.1566865234375,-0.1292986124753952,-0.06319082528352737,-1.2780288457870483
1733851393838655500,9.166655517578125,-0.12673504650592804,-0.08247983455657959,-1.2896449565887451
1733851393848624400,9.176624267578125,-0.1265229731798172,-0.0794546976685524,-1.2901411056518555
1733851393858592500,9.186592529296876,-0.13309618830680847,-0.07301996648311615,-1.3054745197296143
1733851393868561400,9.1965615234375,-0.15638938546180725,-0.09723685681819916,-1.3292944431304932
1733851393878529300,9.206529296875,-0.17693300545215607,-0.09342214465141296,-1.3444187641143799
1733851393888498400,9.21649853515625,-0.2004833221435547,-0.07622279226779938,-1.3636679649353027
1733851393898466300,9.22646630859375,-0.20961876213550568,-0.07131192088127136,-1.3804270029067993
1733851393908435500,9.236435546875,-0.22197061777114868,-0.08491313457489014,-1.4026559591293335
1733851393918403300,9.2464033203125,-0.22410327196121216,-0.11267472058534622,-1.4274744987487793
1733851393928372500,9.25637255859375,-0.23333752155303955,-0.1402246505022049,-1.4420969486236572
1733851393938341400,9.26634130859375,-0.21480219066143036,-0.15250687301158905,-1.4489572048187256
1733851393948309500,9.2763095703125,-0.18996140360832214,-0.13107261061668396,-1.4369165897369385
1733851393958277400,9.28627734375,-0.15572620928287506,-0.13712197542190552,-1.4054880142211914
1733851393968245500,9.29624560546875,-0.12680767476558685,-0.149916872382164,-1.3619575500488281
1733851393978214400,9.30621435546875,-0.10366027057170868,-0.1635083258152008,-1.3276536464691162
1733851393988182300,9.316182373046875,-0.0782337486743927,-0.18156860768795013,-1.2923905849456787
1733851393998151400,9.3261513671875,-0.07149461656808853,-0.2133244127035141,-1.2583413124084473
1733851394008119300,9.336119384765626,-0.0755646675825119,-0.24378858506679535,-1.2193938493728638
1733851394018088400,9.34608837890625,-0.09241501986980438,-0.27905020117759705,-1.1880643367767334
1733851394028056300,9.356056396484375,-0.11269441246986389,-0.3119034767150879,-1.17926025390625
1733851394038025500,9.366025390625,-0.13863307237625122,-0.35086846351623535,-1.2037991285324097
1733851394047994400,9.375994384765624,-0.1611505001783371,-0.3850440979003906,-1.2502999305725098
1733851394057962500,9.38596240234375,-0.1906077265739441,-0.4186137616634369,-1.3093008995056152
1733851394067931400,9.395931396484375,-0.2629096508026123,-0.42881351709365845,-1.3601458072662354
1733851394077899500,9.4058994140625,-0.35139530897140503,-0.40163302421569824,-1.3701719045639038
1733851394087868400,9.415868408203124,-0.42710041999816895,-0.3273106813430786,-1.3448368310928345
1733851394097836500,9.42583642578125,-0.46212416887283325,-0.21180672943592072,-1.3020728826522827
1733851394107805400,9.435805419921875,-0.46408265829086304,-0.08675268292427063,-1.2597397565841675
1733851394117773300,9.445773193359376,-0.44308575987815857,0.008191404864192009,-1.212322473526001
1733851394127742200,9.4557421875,-0.4064452052116394,0.07150592654943466,-1.1637144088745117
1733851394137710300,9.46571044921875,-0.3492357134819031,0.10301484912633896,-1.1512646675109863
1733851394147679200,9.47567919921875,-0.286472886800766,0.10244916379451752,-1.2142550945281982
1733851394157648400,9.4856484375,-0.23260512948036194,0.08297879248857498,-1.3045713901519775
1733851394167616300,9.4956162109375,-0.2046874761581421,0.051692184060811996,-1.3673487901687622
1733851394177585400,9.50558544921875,-0.19621782004833221,0.030928846448659897,-1.3872185945510864
1733851394187553300,9.51555322265625,-0.20552277565002441,0.012693628668785095,-1.4004197120666504
1733851394197522400,9.5255224609375,-0.22655561566352844,0.02571861632168293,-1.4075021743774414
1733851394207490600,9.535490478515625,-0.2586028277873993,0.06321839988231659,-1.3929393291473389
1733851394217459500,9.54545947265625,-0.3013603985309601,0.10583296418190002,-1.348250389099121
1733851394227427600,9.555427490234376,-0.34778907895088196,0.133823424577713,-1.2900320291519165
1733851394237396500,9.565396484375,-0.38429275155067444,0.17117692530155182,-1.22459876537323
1733851394247365400,9.575365478515625,-0.41245877742767334,0.2202359139919281,-1.1714165210723877
1733851394257333200,9.585333251953125,-0.42693862318992615,0.2671901285648346,-1.1084911823272705
1733851394267302400,9.595302490234374,-0.42741531133651733,0.2803575098514557,-1.044015884399414
1733851394277270300,9.605270263671875,-0.41645878553390503,0.2764945924282074,-0.9929793477058411
1733851394287239400,9.615239501953125,-0.40465661883354187,0.25868919491767883,-0.9502643346786499
1733851394297207300,9.625207275390625,-0.39145827293395996,0.2512081265449524,-0.8901206254959106
1733851394307176400,9.635176513671874,-0.3668045997619629,0.2507759630680084,-0.8292997479438782
1733851394317144300,9.645144287109375,-0.36775854229927063,0.21900950372219086,-0.7952384948730469
1733851394327113500,9.655113525390625,-0.3870832622051239,0.18650275468826294,-0.7557885050773621
1733851394337081300,9.665081298828126,-0.40879520773887634,0.19124770164489746,-0.6782140731811523
1733851394347050500,9.675050537109374,-0.41787010431289673,0.18223321437835693,-0.6047919988632202
1733851394357019400,9.685019287109375,-0.4200325906276703,0.15524128079414368,-0.5519809722900391
1733851394366987500,9.694987548828125,-0.4163873791694641,0.16452249884605408,-0.5082826614379883
1733851394376956400,9.704956298828124,-0.4062502980232239,0.1927860975265503,-0.46125712990760803
1733851394386924500,9.714924560546875,-0.3801337480545044,0.21670255064964294,-0.42953282594680786
1733851394396893400,9.7248935546875,-0.3599725663661957,0.21884533762931824,-0.399382621049881
1733851394406861300,9.734861328125,-0.34045499563217163,0.24174664914608002,-0.36890673637390137
1733851394416830200,9.744830322265624,-0.32340916991233826,0.254916787147522,-0.36249253153800964
1733851394426798300,9.75479833984375,-0.31067854166030884,0.2389768362045288,-0.36981630325317383
1733851394436767200,9.764767333984375,-0.2902960479259491,0.21517136693000793,-0.37045279145240784
1733851394446735400,9.7747353515625,-0.2761772871017456,0.18306677043437958,-0.36377355456352234
1733851394456704300,9.784704345703124,-0.2673398554325104,0.1582929790019989,-0.3534330427646637
1733851394466673400,9.79467333984375,-0.25164344906806946,0.15371033549308777,-0.35387709736824036
1733851394476641500,9.8046416015625,-0.23192910850048065,0.17502467334270477,-0.3382377028465271
1733851394486610400,9.8146103515625,-0.20712539553642273,0.2095547914505005,-0.3157186806201935
1733851394496578600,9.82457861328125,-0.1867721974849701,0.21729500591754913,-0.30573663115501404
1733851394506547500,9.83454736328125,-0.16982309520244598,0.20920519530773163,-0.30006614327430725
1733851394516515600,9.844515625,-0.15747427940368652,0.21347850561141968,-0.2933025062084198
1733851394526484500,9.854484375,-0.15252110362052917,0.19665886461734772,-0.3039814829826355
1733851394536452400,9.864452392578125,-0.15021267533302307,0.1990751475095749,-0.29769429564476013
1733851394546421200,9.874421142578125,-0.14048904180526733,0.1710641086101532,-0.28566306829452515
1733851394556390400,9.884390380859376,-0.13542264699935913,0.1499609649181366,-0.26340359449386597
1733851394566358300,9.894358154296874,-0.1140032410621643,0.13042883574962616,-0.24591536819934845
1733851394576327400,9.904327392578125,-0.08286183327436447,0.12865889072418213,-0.23065705597400665
1733851394586295300,9.91429541015625,-0.04193085432052612,0.1485542505979538,-0.2013741135597229
1733851394596264400,9.924264404296874,0.0018006450263783336,0.1553490310907364,-0.15985755622386932
1733851394606232300,9.934232421875,0.04562599956989288,0.15055817365646362,-0.09621822834014893
1733851394616201500,9.944201416015625,0.08560963720083237,0.1416086107492447,-0.02853638306260109
1733851394626169300,9.95416943359375,0.11268267780542374,0.13489775359630585,0.030442014336586
1733851394636138500,9.964138427734374,0.12616731226444244,0.136287122964859,0.0996924638748169
1733851394646106400,9.9741064453125,0.12801307439804077,0.12131558358669281,0.16195952892303467
1733851394656075500,9.984075439453125,0.11458887904882431,0.10904587060213089,0.2112967073917389
1733851394666044400,9.99404443359375,0.09440122544765472,0.08694924414157867,0.24211737513542175
1733851394676012300,10.00401220703125,0.07651117444038391,0.07456634193658829,0.2657390832901001
1733851394685981400,10.0139814453125,0.07116937637329102,0.08003208786249161,0.29320093989372253
1733851394695949300,10.02394921875,0.078865647315979,0.07412999123334885,0.31547799706459045
1733851394705918200,10.033918212890624,0.0886293575167656,0.06176852062344551,0.3264080286026001
1733851394715886300,10.04388623046875,0.08484340459108353,0.05162613466382027,0.32296884059906006
1733851394725855200,10.053855224609375,0.0756569430232048,0.036655083298683167,0.2954622507095337
1733851394735823400,10.0638232421875,0.06316778808832169,0.0398000106215477,0.2710477113723755
1733851394745792500,10.07379248046875,0.05396416410803795,0.061253905296325684,0.2579217851161957
1733851394755760400,10.083760498046875,0.04728149250149727,0.07362668216228485,0.23751108348369598
1733851394765729500,10.0937294921875,0.04398161917924881,0.09278618544340134,0.2115475833415985
1733851394775698400,10.103698486328126,0.045700687915086746,0.12707838416099548,0.18964387476444244
1733851394785666600,10.11366650390625,0.04496221989393234,0.14974839985370636,0.16434158384799957
1733851394795635500,10.123635498046875,0.03105599246919155,0.137819305062294,0.1270269751548767
1733851394805603600,10.133603515625,0.006214079447090626,0.1294451802968979,0.08409378677606583
1733851394815572500,10.143572509765624,-0.009594177827239037,0.14569605886936188,0.05462298169732094
1733851394825540400,10.153540283203125,-0.010619117878377438,0.160021111369133,0.04477797448635101
1733851394835509200,10.16350927734375,0.0011336784809827805,0.15513154864311218,0.045274388045072556
1733851394845477400,10.173477294921875,0.012662221677601337,0.13457268476486206,0.04900887608528137
1733851394855446300,10.1834462890625,0.018499070778489113,0.12795951962471008,0.055824704468250275
1733851394865414400,10.193414306640625,0.015871446579694748,0.10029003024101257,0.054782867431640625
1733851394875383300,10.20338330078125,0.012175778858363628,0.06251415610313416,0.0536172017455101
1733851394885352400,10.2133525390625,0.018934527412056923,0.07014746963977814,0.08019914478063583
1733851394895320300,10.2233203125,0.0341411791741848,0.08869345486164093,0.14109419286251068
1733851394905289500,10.23328955078125,0.0475660040974617,0.112099289894104,0.21893608570098877
1733851394915257300,10.24325732421875,0.03619829937815666,0.10347437858581543,0.28477850556373596
1733851394925226500,10.2532265625,0.00634223036468029,0.08015478402376175,0.3346201777458191
1733851394935194400,10.2631943359375,-0.013379276730120182,0.06563709676265717,0.38893747329711914
1733851394945163500,10.27316357421875,-0.030423086136579514,0.055739015340805054,0.4487953186035156
1733851394955131400,10.28313134765625,-0.03835291415452957,0.06851234287023544,0.5377318859100342
1733851394965101000,10.29310107421875,-0.03483780473470688,0.037426114082336426,0.6163654923439026
1733851394975069000,10.30306884765625,-0.04326963797211647,-0.025385605171322823,0.679625928401947
1733851394985037800,10.313037841796875,-0.050735119730234146,-0.0724550187587738,0.7521442174911499
1733851394995006700,10.3230068359375,-0.044719841331243515,-0.11413189768791199,0.8319876790046692
1733851395004974800,10.332974853515625,-0.02078162133693695,-0.1755836009979248,0.9121838212013245
1733851395014943700,10.34294384765625,0.0028968099504709244,-0.2405647337436676,0.996429979801178
1733851395024912000,10.352911865234375,0.0395883247256279,-0.3293866515159607,1.0608974695205688
1733851395034880800,10.362880859375,0.06509555131196976,-0.3946830928325653,1.1273151636123657
1733851395044849000,10.372848876953125,0.11484509706497192,-0.3593156635761261,1.242688775062561
1733851395054817800,10.38281787109375,0.17234832048416138,-0.2636623978614807,1.3405287265777588
1733851395064786000,10.392785888671876,0.22628723084926605,-0.1980438530445099,1.3720310926437378
1733851395074755000,10.402755126953124,0.2450910210609436,-0.17606878280639648,1.3552340269088745
1733851395084724000,10.412723876953125,0.21714024245738983,-0.18198104202747345,1.3355634212493896
1733851395094692000,10.422692138671875,0.17787300050258636,-0.2010761797428131,1.2992570400238037
1733851395104661000,10.432660888671874,0.12438628077507019,-0.19332773983478546,1.2625536918640137
1733851395114628900,10.44262890625,0.06180492788553238,-0.1624515801668167,1.2396342754364014
1733851395124597800,10.45259765625,0.009260440245270729,-0.11833998560905457,1.2294955253601074
1733851395134566000,10.46256591796875,-0.0011876733042299747,-0.06834951788187027,1.2366836071014404
1733851395144534800,10.47253466796875,0.0035584047436714172,0.01073516346514225,1.2738574743270874
1733851395154503000,10.4825029296875,0.03833955526351929,0.07619060575962067,1.2902579307556152
1733851395164471800,10.492471923828125,0.08577463030815125,0.10430202633142471,1.2761459350585938
1733851395174440000,10.50243994140625,0.15279333293437958,0.1434539556503296,1.2312994003295898
1733851395184408800,10.512408935546874,0.21435779333114624,0.19087989628314972,1.1796022653579712
1733851395194378000,10.5223779296875,0.2733798325061798,0.22674095630645752,1.116207242012024
1733851395204345900,10.532345947265625,0.3253015875816345,0.2220478057861328,1.0688008069992065
1733851395214315000,10.54231494140625,0.3563274145126343,0.1941370815038681,1.0295008420944214
1733851395224283000,10.552282958984375,0.35017162561416626,0.12835849821567535,0.9921858310699463
1733851395234252000,10.562251953125,0.3411101996898651,0.10752299427986145,0.9851497411727905
1733851395244220000,10.572219970703125,0.3279603123664856,0.131408229470253,0.9921731352806091
1733851395254189000,10.58218896484375,0.31155070662498474,0.1418134719133377,1.0055423974990845
1733851395264157000,10.592156982421875,0.3169907331466675,0.15409855544567108,1.0253584384918213
1733851395274125800,10.602125732421875,0.3232225179672241,0.12827229499816895,1.0360609292984009
1733851395284094000,10.612093994140626,0.3203560709953308,0.07254873961210251,1.0152939558029175
1733851395294062800,10.622062744140624,0.31729716062545776,0.05638334900140762,0.9954646229743958
1733851395304031700,10.63203173828125,0.31829699873924255,0.06741426885128021,1.0036954879760742
1733851395314000000,10.641999755859375,0.322517067193985,0.05488995462656021,1.0297560691833496
1733851395323968800,10.65196875,0.3424835503101349,0.04781633988022804,1.0618739128112793
1733851395333937000,10.66193701171875,0.38153907656669617,0.059405617415905,1.1040825843811035
1733851395343906000,10.671906005859375,0.4066062867641449,0.03167106956243515,1.1149392127990723
1733851395353874000,10.6818740234375,0.4046773612499237,-0.015180056914687157,1.113720178604126
1733851395363843000,10.691843017578124,0.3828209340572357,-0.09608221054077148,1.1194783449172974
1733851395373811000,10.70181103515625,0.3649204969406128,-0.15045437216758728,1.1352936029434204
1733851395383780000,10.711780029296875,0.3386938273906708,-0.1745309680700302,1.1464800834655762
1733851395393747700,10.721747802734376,0.30900517106056213,-0.1752457618713379,1.152760624885559
1733851395403716900,10.731716796875,0.27394217252731323,-0.22655591368675232,1.1519865989685059
1733851395413685800,10.741685791015625,0.2461768537759781,-0.2554994225502014,1.1629713773727417
1733851395423654000,10.75165380859375,0.2390400469303131,-0.25175741314888,1.1873023509979248
1733851395433622800,10.761622802734376,0.24670462310314178,-0.2326662838459015,1.2145898342132568
1733851395443591000,10.7715908203125,0.24325191974639893,-0.24599827826023102,1.2414617538452148
1733851395453559800,10.781559814453125,0.2447637915611267,-0.26870492100715637,1.2790626287460327
1733851395463528000,10.79152783203125,0.23792651295661926,-0.2788281738758087,1.3180265426635742
1733851395473496800,10.801496826171874,0.2235584855079651,-0.2700471878051758,1.3437204360961914
1733851395483465000,10.81146484375,0.1964154988527298,-0.25810128450393677,1.3562229871749878
1733851395493433900,10.821433837890625,0.16427594423294067,-0.25788745284080505,1.365407109260559
1733851395503402000,10.831402099609376,0.13099461793899536,-0.2227238416671753,1.391511082649231
1733851395513371000,10.841370849609374,0.09127729386091232,-0.2159367799758911,1.4140974283218384
1733851395523340000,10.851340087890625,0.05494530126452446,-0.2047441005706787,1.4392850399017334
1733851395533308000,10.861307861328125,0.03148951381444931,-0.20416539907455444,1.4666343927383423
1733851395543276800,10.87127685546875,0.011722397990524769,-0.21339163184165955,1.5055383443832397
1733851395553245000,10.881244873046874,0.010351136326789856,-0.24694213271141052,1.5444817543029785
1733851395563213800,10.8912138671875,0.02230960503220558,-0.2528679370880127,1.5862663984298706
1733851395573182000,10.901181884765625,0.04345829784870148,-0.22816872596740723,1.6133794784545898
1733851395583150800,10.91115087890625,0.07037024199962616,-0.20452450215816498,1.6294612884521484
1733851395593119000,10.921118896484375,0.09010160714387894,-0.22703327238559723,1.6337902545928955
1733851395603088000,10.931087890625,0.09063851833343506,-0.2741152048110962,1.638299822807312
1733851395613056000,10.941055908203126,0.0658295750617981,-0.31024816632270813,1.6366950273513794
1733851395623025000,10.95102490234375,0.02699907310307026,-0.3269638121128082,1.6387773752212524
1733851395632994000,10.960994140625,-0.017970798537135124,-0.3534497320652008,1.6417661905288696
1733851395642962000,10.9709619140625,-0.055119533091783524,-0.3681974411010742,1.6490098237991333
1733851395652931000,10.98093115234375,-0.07376938313245773,-0.3575708866119385,1.6359270811080933
1733851395662898700,10.990898681640624,-0.07043413817882538,-0.3409379720687866,1.6030118465423584
1733851395672868000,11.0008681640625,-0.060415592044591904,-0.32907944917678833,1.5697637796401978
1733851395682835700,11.010835693359375,-0.0586656853556633,-0.3320392668247223,1.5425891876220703
1733851395692804900,11.020804931640624,-0.05540784075856209,-0.34576067328453064,1.502242922782898
1733851395702772700,11.030772705078125,-0.04367699474096298,-0.3597285747528076,1.4665238857269287
1733851395712742000,11.040741943359375,-0.03073882684111595,-0.34523752331733704,1.4375702142715454
1733851395722710000,11.0507099609375,-0.01976005546748638,-0.3108259439468384,1.4288513660430908
1733851395732679000,11.060678955078124,-0.012869924306869507,-0.29081201553344727,1.4352741241455078
1733851395742647800,11.070647705078125,-0.011032483540475368,-0.25633716583251953,1.4448009729385376
1733851395752616000,11.080615966796875,-0.015524172224104404,-0.20381535589694977,1.4393048286437988
1733851395762584800,11.090584716796876,-0.021954217925667763,-0.16894754767417908,1.4041991233825684
1733851395772553000,11.100552978515625,-0.0523880235850811,-0.1678639054298401,1.3559268712997437
1733851395782521900,11.11052197265625,-0.07647392153739929,-0.1769695281982422,1.316139578819275
1733851395792490000,11.120489990234375,-0.10170843452215195,-0.20471486449241638,1.25905442237854
1733851395802459000,11.130458984375,-0.13477905094623566,-0.2428508847951889,1.2036032676696777
1733851395812426800,11.1404267578125,-0.16978098452091217,-0.2673482298851013,1.1568206548690796
1733851395822396000,11.15039599609375,-0.183205246925354,-0.2731856405735016,1.1258838176727295
1733851395832363800,11.16036376953125,-0.19369783997535706,-0.27856361865997314,1.115024209022522
1733851395842333000,11.1703330078125,-0.1970134824514389,-0.27516040205955505,1.113754391670227
1733851395852301800,11.1803017578125,-0.18582262098789215,-0.2378857284784317,1.109350323677063
1733851395862270000,11.19027001953125,-0.1784200370311737,-0.19245147705078125,1.0890283584594727
1733851395872238800,11.20023876953125,-0.1588154435157776,-0.1654273122549057,1.0457664728164673
1733851395882207000,11.21020703125,-0.14249029755592346,-0.1580643206834793,0.9938114881515503
1733851395892176000,11.22017578125,-0.13129755854606628,-0.17210210859775543,0.9337524175643921
1733851395902144000,11.23014404296875,-0.13800865411758423,-0.2053534984588623,0.8616753816604614
1733851395912113000,11.24011279296875,-0.15716291964054108,-0.24928127229213715,0.7846977710723877
1733851395922081000,11.2500810546875,-0.18634842336177826,-0.292188823223114,0.7139559388160706
1733851395932050000,11.2600498046875,-0.20341609418392181,-0.289169579744339,0.6639857292175293
1733851395942017800,11.270017822265626,-0.20440861582756042,-0.252405047416687,0.6143413186073303
1733851395951986700,11.279986572265624,-0.1907266229391098,-0.20183749496936798,0.5656291842460632
1733851395961955800,11.289955810546875,-0.16014176607131958,-0.16563640534877777,0.5432990193367004
1733851395971923700,11.299923828125,-0.12640243768692017,-0.15440532565116882,0.5368314981460571
1733851395981892900,11.309892822265626,-0.09713227301836014,-0.17169441282749176,0.5294091701507568
1733851395991861000,11.319861083984375,-0.06723828613758087,-0.21526212990283966,0.509360134601593
1733851396001830000,11.329829833984375,-0.048135802149772644,-0.26311951875686646,0.46752387285232544
1733851396011798000,11.339798095703125,-0.03744747117161751,-0.30031296610832214,0.4142119288444519
1733851396021767000,11.349766845703124,-0.023056965321302414,-0.3130999505519867,0.350911945104599
1733851396031735000,11.359735107421875,-0.013422449119389057,-0.28344884514808655,0.2881353795528412
1733851396041704000,11.369703857421875,-0.008228923194110394,-0.24732428789138794,0.23044343292713165
1733851396051672000,11.379672119140626,-0.013627416454255581,-0.21736851334571838,0.17716875672340393
1733851396061641000,11.389640869140624,-0.01912587322294712,-0.18756119906902313,0.13912750780582428
1733851396071608800,11.39960888671875,-0.02858036197721958,-0.1766558289527893,0.12149632722139359
1733851396081577700,11.40957763671875,-0.03183305636048317,-0.17333023250102997,0.11999443173408508
1733851396091547100,11.419547119140624,-0.03473803400993347,-0.190719872713089,0.11327767372131348
1733851396101514800,11.4295146484375,-0.029222644865512848,-0.21260498464107513,0.10676298290491104
1733851396111484000,11.43948388671875,-0.0214744433760643,-0.21883758902549744,0.09476730972528458
1733851396121451800,11.44945166015625,-0.0015471329679712653,-0.20820437371730804,0.06596922129392624
1733851396131421000,11.4594208984375,0.024437062442302704,-0.18140578269958496,0.022428933531045914
1733851396141388800,11.469388916015625,0.04810166358947754,-0.1497953236103058,-0.029799051582813263
1733851396151358000,11.47935791015625,0.06960801780223846,-0.10844282805919647,-0.06155378744006157
1733851396161325800,11.489325927734376,0.08881139010190964,-0.04781466722488403,-0.0725712925195694
1733851396171295000,11.499294921875,0.09797453135251999,-0.00030866824090480804,-0.07470262050628662
1733851396181262800,11.509262939453125,0.09631256759166718,0.052331291139125824,-0.04961976036429405
1733851396191232000,11.51923193359375,0.07227328419685364,0.03586443141102791,-0.043677181005477905
1733851396201201000,11.529200927734376,0.04390225559473038,0.00920442957431078,-0.03093280829489231
1733851396211169000,11.5391689453125,0.021428639069199562,0.015900680795311928,-0.010989196598529816
1733851396221138000,11.549137939453125,-0.001084091025404632,0.01074204407632351,0.004691976588219404
1733851396231105800,11.559105712890625,-0.015773020684719086,-0.026773108169436455,0.007262193597853184
1733851396241074700,11.56907470703125,-0.0145263085141778,-0.05517268553376198,-0.0062713297083973885
1733851396251042800,11.579042724609375,0.004357634112238884,-0.0626218169927597,-0.021190358325839043
1733851396261011700,11.58901171875,0.035686805844306946,-0.06920221447944641,-0.03244809806346893
1733851396270979800,11.598979736328126,0.06165049225091934,-0.0796431377530098,-0.03750011324882507
1733851396280949000,11.608948974609374,0.07667913287878036,-0.08541783690452576,-0.03152921050786972
1733851396290916900,11.618916748046875,0.0727352574467659,-0.08391714841127396,-0.022532787173986435
1733851396300886000,11.628885986328125,0.05453759804368019,-0.07774773240089417,-0.024672435596585274
1733851396310854000,11.63885400390625,0.036273639649152756,-0.0831531509757042,-0.03150929883122444
1733851396320823000,11.648822998046874,0.022122666239738464,-0.08880092203617096,-0.042370472103357315
1733851396330792000,11.6587919921875,0.013077238574624062,-0.06898912787437439,-0.05021720752120018
1733851396340760000,11.668760009765625,0.005830245092511177,-0.048016466200351715,-0.06135214865207672
1733851396350729000,11.67872900390625,0.01429909747093916,-0.03842349350452423,-0.07381654530763626
1733851396360696800,11.68869677734375,0.019526926800608635,-0.03652181103825569,-0.07537642866373062
1733851396370665700,11.698665771484375,0.031025391072034836,-0.04063000530004501,-0.07927130162715912
1733851396380633900,11.7086337890625,0.038638073951005936,-0.031347692012786865,-0.08022993057966232
1733851396390602800,11.718602783203124,0.04250045493245125,-0.018694479018449783,-0.07999157905578613
1733851396400571000,11.72857080078125,0.053356558084487915,-0.01112258993089199,-0.08393169939517975
1733851396410539800,11.738539794921875,0.06496182084083557,-0.003149883821606636,-0.0829324796795845
1733851396420508000,11.7485078125,0.06997120380401611,-0.010631297715008259,-0.0912003293633461
1733851396430476800,11.758476806640624,0.07006867229938507,-0.014961064793169498,-0.10357018560171127
1733851396440446000,11.768446044921875,0.06445686519145966,-0.019620798528194427,-0.11795072257518768
1733851396450413800,11.778413818359375,0.05559519678354263,-0.018095873296260834,-0.12934212386608124
1733851396460383000,11.788383056640624,0.05020594969391823,-0.0003480762243270874,-0.13575215637683868
1733851396470351000,11.79835107421875,0.03915968909859657,0.008150070905685425,-0.12376579642295837
1733851396480320000,11.808320068359375,0.03192799538373947,0.016309691593050957,-0.12701113522052765
1733851396490287900,11.818287841796876,0.03636562079191208,0.018653806298971176,-0.14419305324554443
1733851396500257000,11.828257080078124,0.0449664331972599,0.01760556362569332,-0.14716412127017975
1733851396510225000,11.838224853515625,0.05530136078596115,0.007204853929579258,-0.15930281579494476
1733851396520193800,11.84819384765625,0.07864504307508469,-0.007368168793618679,-0.16542589664459229
1733851396530162000,11.858161865234376,0.0958850234746933,-0.019847474992275238,-0.16546157002449036
1733851396540130800,11.868130859375,0.10638930648565292,-0.03589708358049393,-0.16680864989757538
1733851396550099000,11.878098876953125,0.10117829591035843,-0.03976133093237877,-0.16208791732788086
1733851396560067800,11.88806787109375,0.08704333752393723,-0.03969355672597885,-0.16095837950706482
1733851396570037000,11.898037109375,0.06241655722260475,-0.02746698446571827,-0.16735555231571198
1733851396580004900,11.9080048828125,0.03991258144378662,-0.0046937610022723675,-0.17041952908039093
1733851396589974000,11.91797412109375,0.02180361934006214,0.011885748244822025,-0.16321353614330292
1733851396599942000,11.92794189453125,0.011503916233778,0.020078474655747414,-0.1499919444322586
1733851396609911000,11.9379111328125,0.007255375385284424,0.02421249821782112,-0.13706417381763458
1733851396619879000,11.94787890625,0.009436838328838348,0.021674228832125664,-0.12197232246398926
1733851396629848000,11.95784814453125,0.01660127379000187,0.011355011723935604,-0.09988193958997726
1733851396639815700,11.967815673828126,0.030895140022039413,0.009923871606588364,-0.07546872645616531
1733851396649784800,11.977784912109374,0.03592052310705185,0.013336710631847382,-0.06249913200736046
1733851396659753000,11.9877529296875,0.040620751678943634,0.007665304467082024,-0.047816261649131775
1733851396669721900,11.997721923828125,0.041352856904268265,0.003377615474164486,-0.03303145617246628
1733851396679690000,12.00768994140625,0.03888383135199547,0.0013200463727116585,-0.02437962219119072
1733851396689659000,12.017658935546875,0.03293033689260483,0.0013077959883958101,-0.02824040688574314
1733851396699627800,12.027627685546875,0.020836425945162773,-0.007039216347038746,-0.034441202878952026
1733851396709596000,12.037595947265626,0.011418954469263554,-0.0018860000418499112,-0.0344686321914196
1733851396719564800,12.047564697265624,0.005479579791426659,0.00380576029419899,-0.02142731100320816
1733851396729533000,12.057532958984375,0.0016837762668728828,0.0073440358974039555,-0.006211340427398682
1733851396739502000,12.067502197265625,0.0019220083486288786,0.007851991802453995,0.013934539631009102
1733851396749470000,12.077469970703126,0.007505325600504875,-0.0002741110511124134,0.026333417743444443
1733851396759439000,12.087439208984375,0.0163742545992136,0.004380500875413418,0.04423077777028084
1733851396769406700,12.09740673828125,0.021840127184987068,0.0036989981308579445,0.058299992233514786
1733851396779375900,12.1073759765625,0.017620110884308815,0.011653183028101921,0.06517373770475388
1733851396789343700,12.11734375,0.006950422655791044,0.014241775497794151,0.04988107085227966
1733851396799313000,12.12731298828125,0.002211339073255658,0.025210382416844368,0.04322175309062004
1733851396809281800,12.13728173828125,-0.001632667612284422,0.03407178446650505,0.04237992689013481
1733851396819250000,12.14725,-0.007656986825168133,0.03433198481798172,0.04615863040089607
1733851396829218800,12.15721875,-0.00995476171374321,0.03876881301403046,0.041062939912080765
1733851396839187000,12.16718701171875,-0.009706511162221432,0.054454218596220016,0.03622550517320633
1733851396849155800,12.17715576171875,-0.001370816957205534,0.06421496719121933,0.03485850244760513
1733851396859124000,12.1871240234375,0.010374241508543491,0.062117934226989746,0.036170843988657
1733851396869092900,12.1970927734375,0.01923937350511551,0.05839962884783745,0.039820972830057144
