time,seconds_elapsed,z,y,x
1733902086480766000,0.024765869140625,0.5735290787681937,-0.006747136172652244,-0.18070421154424546
1733902086490793000,0.03479296875,0.734648153746128,0.07768588174879551,-0.06453194727376103
1733902086500819000,0.04481884765625,0.6834320535108447,0.18277882586121558,0.09631211015507578
1733902086510846000,0.054845947265625,0.5295287551306188,0.326726693546772,0.16184695086106657
1733902086520873000,0.064873046875,0.41116044212058184,0.45863282578289505,0.2160465969517827
1733902086530900000,0.07489990234375,0.3237108528569341,0.5749164414733648,0.2639686240777373
1733902086540927000,0.084927001953125,0.3939972720041871,0.5504126993358135,0.16399653011038898
1733902086550953000,0.094952880859375,0.43061464578360314,0.3631599429309368,0.05361629324480891
1733902086560980000,0.10497998046875,0.3294501271612942,0.1638736343830824,-0.0519751019090414
1733902086571007000,0.115007080078125,0.4392014184735715,0.053344052174687386,-0.20776056077405808
1733902086581034000,0.125033935546875,0.5575964733600616,-0.031843583506345745,-0.20144757823497056
1733902086591061000,0.13506103515625,0.6227585352309047,-0.06295768369436264,-0.17994681730568407
1733902086601087000,0.1450869140625,0.6230103180348873,0.02075871039032936,-0.37345994927957654
1733902086611114000,0.155114013671875,0.3774266609534621,0.04581774832308292,-0.5692366422712802
1733902086621141000,0.16514111328125,0.22322803288847207,0.19820903470516205,-0.4370994777582586
1733902086631168000,0.17516796875,0.07196545827537774,0.36141572961211205,-0.2756219447314739
1733902086641194000,0.185194091796875,-0.07922025170922278,0.14947627571821212,0.036153117268532514
1733902086651221000,0.195220947265625,0.04575958839505911,0.1936363199621439,0.12772723911628125
1733902086661248000,0.205248046875,-0.006906710648536682,0.14968436551094055,0.2693116656061262
1733902086671275000,0.21527490234375,0.061117901046574115,-0.1412900466531515,0.326967224304378
1733902086681302000,0.225302001953125,0.31061551670134063,-0.3419949898272753,0.15373641738072036
1733902086691328000,0.235327880859375,0.5602274063855409,-0.2653478034764528,-0.011754954397305846
1733902086701355000,0.24535498046875,0.5171133640632033,-0.1275964523434639,0.011531959296390414
1733902086711382000,0.255382080078125,0.3368272318005562,0.07360884156823158,0.11647869987115263
1733902086721409000,0.265408935546875,0.19260332365259528,0.0951665933817625,-0.04389693632833659
1733902086731435500,0.275435546875,-0.019273001877218483,-0.05358604423701763,-0.015275383608415722
1733902086741461500,0.28546142578125,-0.11560878516882657,-0.07337561733424663,0.058707259708270426
1733902086751488800,0.29548876953125,-0.23231588696837424,-0.0015939911931753157,-0.017861819905042646
1733902086761515500,0.305515625,-0.3823378138706088,0.10440729993581771,0.1450198077660054
1733902086771542500,0.31554248046875,-0.3845335703492164,0.16094108806252477,0.2803792953263968
1733902086781568500,0.325568603515625,-0.5088058467060327,0.09747779293358326,0.28735271453559397
1733902086791595800,0.335595703125,-0.4886179219409823,0.14654080678820608,0.5233041449947282
1733902086801622500,0.34562255859375,-0.485697942841053,0.2969429651796818,0.6088942239968106
1733902086811649500,0.3556494140625,-0.41433015819787977,0.38596623350083825,0.43129017042499035
1733902086821676500,0.365676513671875,-0.4464329771623015,0.21263035876750944,0.44060306543242184
1733902086831702500,0.37570263671875,-0.39871611721962685,-0.06812251911163329,0.6134579151831567
1733902086841729500,0.3857294921875,-0.15660393564105032,-0.13311784611344338,0.9137327281992882
1733902086851756500,0.395756591796875,0.12933408979102967,-0.07406067698895931,1.0662409189593047
1733902086861783600,0.405783447265625,0.1618248851597309,0.037675942921638485,0.9247624370619654
1733902086871810600,0.415810546875,0.05351736291497945,-0.025516718572378156,0.7712577095452695
1733902086881836500,0.42583642578125,0.02717529943436384,-0.06125789403915405,0.5258711824711412
1733902086891863600,0.435863525390625,-0.14564999542832374,0.004561608827114105,0.5934126137591899
1733902086901890600,0.445890625,-0.28001974129900337,0.0367646732956171,0.6470083026073873
1733902086911917600,0.45591748046875,-0.23412089056372642,0.10044190343618392,0.6240768512878566
1733902086921944600,0.465944580078125,-0.22274726363420486,0.18566811756193638,0.795585437528789
1733902086931970600,0.475970458984375,-0.23167992715239524,0.14235212292671204,1.167802401009947
1733902086941997600,0.48599755859375,-0.20458850660920141,0.17818740641772746,1.006597547444701
1733902086952024600,0.496024658203125,-0.26756036495938895,0.10922434482872485,0.39229792074039577
1733902086962051600,0.506051513671875,-0.5003590670086443,0.012070377022027968,0.3975457582660019
1733902086972077600,0.51607763671875,-0.7380373577930033,0.38148762678205966,0.7698382712014019
1733902086982104600,0.5261044921875,-0.9211177969492972,0.3741039462715387,0.6828571031671017
1733902086992131600,0.536131591796875,-0.5708068141974508,0.11347615705430507,0.14974776786966248
1733902087002158600,0.54615869140625,-0.5414309359788895,0.2581330497920513,0.8354906738724559
1733902087012185600,0.556185546875,-0.2821076534889638,0.00954758054614067,1.433513777101785
1733902087022211600,0.566211669921875,-0.09343582406640052,0.05037409645318985,1.0134850419361143
1733902087032238600,0.576238525390625,-0.01290054423585534,-0.25181729077398773,0.7630189465753734
1733902087042265600,0.586265625,-0.005812485671043395,0.043700610038638114,1.5069482850164173
1733902087052292600,0.596292724609375,0.2999392243862152,0.12586743659377098,2.3099514514558015
1733902087062319600,0.606319580078125,0.37887773654460905,0.3230260854631662,1.9556354708462953
1733902087072345600,0.616345703125,-0.4712815872147679,0.42033027539551254,1.4253323703423142
1733902087082372600,0.62637255859375,-1.3077017239570616,0.4451765473604202,0.93186876193583
1733902087092399600,0.636399658203125,-1.852223757819086,0.3461532785505056,0.9922266383953392
1733902087102426600,0.646426513671875,-2.0932700637318193,0.5436480275064707,1.107424504675716
1733902087112452600,0.65645263671875,-0.6144448803938924,1.2640367697536945,1.523051570816338
1733902087122479600,0.666479736328125,-0.5522587655939162,1.1303285565316676,2.716497385518253
1733902087132506600,0.676506591796875,-1.201376169309765,1.635961033898592,2.7062194448709485
1733902087142533600,0.68653369140625,-0.9491584810413419,2.261470767533779,2.4711489984974264
1733902087152560400,0.696560302734375,-1.4590660053789615,2.549973821148276,2.4620506230235097
1733902087162586600,0.706586669921875,-2.297962615237385,2.675297067862749,2.7965847754508255
1733902087172613600,0.716613525390625,-2.8758664019584654,2.9000626855820415,2.2562089014828204
1733902087182640600,0.726640625,-2.765397610026598,2.8566099128246307,1.3458593129158019
1733902087192667400,0.73666748046875,-2.180842987114191,2.9510914465516804,0.4755880522370338
1733902087202694700,0.746694580078125,-1.5717152100898324,3.055538493975997,-0.46577582940533757
1733902087212720600,0.756720703125,-1.442714590036869,2.8056442802190777,-0.692463793489337
1733902087222747600,0.76674755859375,-1.6856734515726566,2.497694767856598,-0.33180662715956566
1733902087232774400,0.7767744140625,-1.6224068480595946,2.205772845709324,-0.1365919519647956
1733902087242801700,0.7868017578125,-1.488502235482633,2.092359817019105,-0.26840368391573427
1733902087252828700,0.79682861328125,-1.7311945550367236,2.1599469140797853,-0.1811849807985127
1733902087262854700,0.806854736328125,-1.8321403163418173,2.424889643886685,-0.3175841866701841
1733902087272881400,0.81688134765625,-1.566937182033062,2.632635153222084,-0.8603706289112567
1733902087282908700,0.82690869140625,-1.239113633160293,2.8176030135601757,-1.4589301040396094
1733902087292935700,0.836935791015625,-1.0424585498988628,2.9114895040035247,-1.8903259633287786
1733902087302962400,0.84696240234375,-1.0707108309149742,2.887804677033424,-1.718526212121546
1733902087312988400,0.856988525390625,-0.6845698253691196,2.668765620267391,-1.4266729712963104
1733902087323015700,0.867015625,0.32854660245031114,2.056862971702218,-1.6378788502186536
1733902087333042700,0.877042724609375,1.2514987752199171,1.2020973231911658,-1.603873120242357
1733902087343069400,0.8870693359375,1.5306310661599039,0.6842495073735714,-1.1692977541342378
1733902087353095400,0.897095458984375,1.5534186520293354,0.45847149774134155,-0.9808002583652734
1733902087363122400,0.907122314453125,1.6063304502665996,0.6998147407740354,-1.5457012095198035
1733902087373149700,0.917149658203125,1.5183850403100252,1.235113457608223,-1.7971461598500609
1733902087383176400,0.927176513671875,1.2716080817908049,-0.4324970985293388,-1.0471285875365137
1733902087393203500,0.937203369140625,1.5485001925885677,-0.46332010681629177,-0.9538023613244294
1733902087403229400,0.9472294921875,2.1615578564077613,0.369220850405097,-1.2895002968341112
1733902087413256700,0.957256591796875,3.0664731449663636,-0.08270166408419609,-1.4148063001528381
1733902087423283500,0.967283447265625,4.428579243806004,-1.5129741211771963,-1.1325891949400304
1733902087433310500,0.977310546875,5.810786465910077,-2.3313737403213977,-0.861696032296121
1733902087443337700,0.987337646484375,5.823290558174252,-2.281601701414585,-0.7432038006454705
1733902087453363700,0.99736376953125,5.407743425402045,-2.251121807476878,-0.5379559533447027
1733902087463390500,1.007390380859375,5.0267111411720515,-1.8333558296114205,-0.9434998707577585
1733902087473417500,1.01741748046875,4.3428526789426805,-1.5852815247580407,-1.571519249126315
1733902087483444700,1.02744482421875,2.9631448724389076,-1.8793994956448674,-2.3494831052467227
1733902087493470700,1.037470703125,1.7920289629667996,-1.5027002721831202,-2.3976214054718614
1733902087503497700,1.047497802734375,1.5512246491163968,-1.8799515765696764,-1.4032538095250724
1733902087513524500,1.0575244140625,1.5859212839663028,-1.3562515275925398,-0.671569035629183
1733902087523551500,1.067551513671875,1.4399381110608578,0.47245530716925854,-0.649255350881815
1733902087533578800,1.077578857421875,0.9238894536197185,1.5404177161589263,-0.08082520268782972
1733902087543604700,1.087604736328125,0.3019990795254707,1.962016111794114,0.1682550643377006
1733902087553631500,1.097631591796875,-0.3839829507291317,2.016619516380131,-0.7924833798602223
1733902087563658500,1.107658447265625,-1.104354157319665,1.9055881221294402,-1.077583639293909
1733902087573685800,1.117685791015625,-1.4937562104880808,2.409542437151074,-0.8078171425923705
1733902087583712500,1.12771240234375,-1.7132020944893358,2.6175202939376234,-0.7840441989473999
1733902087593738500,1.137738525390625,-1.9847475835621355,2.4630919487699865,-0.6567393499616533
1733902087603765500,1.147765625,-1.1077157427072524,2.0656138489127156,-0.45017062932066615
1733902087613792800,1.157792724609375,-0.04630816218852996,1.5118153065308928,-0.4896840168025344
1733902087623819500,1.167819580078125,0.19151625906825065,0.9465808856382966,-0.7261509590357541
1733902087633845500,1.177845458984375,0.6326058293759822,0.8813871134549379,-0.6975899773966521
1733902087643872500,1.18787255859375,1.6213269438683986,2.113871245472878,0.5932351383004337
1733902087653899800,1.197899658203125,2.0053648396551607,1.606601230031997,-0.19057430204302073
1733902087663926500,1.207926513671875,2.1227543707609176,-0.23995441902279852,-0.8413871114999055
1733902087673953500,1.21795361328125,1.7520231157928705,-2.040870745061338,0.9932518167246133
1733902087683979500,1.2279794921875,0.9955781407803297,-1.8590537499696016,2.9371508917436002
1733902087694006800,1.2380068359375,2.7474305761814115,-1.8505419422119855,2.961321164143085
1733902087704033500,1.248033447265625,2.3959353520810605,-1.5327575567945837,1.2626651891395448
1733902087714060500,1.258060546875,0.7695335891664028,-0.7424956523761153,-1.4667102365218103
1733902087724086500,1.26808642578125,0.46430561072230336,-0.8469320322759449,-2.907027848419547
1733902087734114000,1.278114013671875,-0.26186229944825173,-0.9505667404040694,-3.838250713667273
1733902087744141000,1.28814111328125,-1.7893302254021166,-0.32780016799718137,-4.850227031540871
1733902087754168000,1.29816796875,-2.5815268972754475,0.02492306352816522,-5.614999105393887
1733902087764195000,1.308195068359375,-1.8748492849946021,-0.056403293614834545,-3.660123220743239
1733902087774221000,1.318220947265625,-1.591238095074892,0.29100904508605596,-1.8322044676192104
1733902087784248000,1.328248046875,-1.9909972916066645,0.13571195425987242,0.011882891625910996
1733902087794275000,1.338275146484375,-0.5652244840204715,0.8348881048694252,1.5526245790421962
1733902087804302000,1.348302001953125,0.8948223490893841,1.1595941062435506,2.045822522249818
1733902087814328800,1.358328857421875,1.7902257129371164,1.1381602730706333,2.0594632173284886
1733902087824354800,1.368354736328125,1.5953256566494702,1.2374679117798804,2.618072667123377
1733902087834382000,1.378382080078125,2.1816554725408555,0.9987985641315579,4.107253240258991
1733902087844409000,1.3884091796875,3.2870904108345504,0.6020008477538824,4.585039387062191
1733902087854435800,1.398435791015625,3.411429907208681,0.2518237205147743,4.607857952591776
1733902087864461800,1.4084619140625,2.714779183423519,0.12749094614237547,4.225587650999427
1733902087874489000,1.418489013671875,1.1264344717025756,0.8081523658961057,2.127432299444079
1733902087884516000,1.42851611328125,-1.131885138323903,2.123755072236061,-0.28397578544840213
1733902087894542800,1.43854296875,-5.072209156021476,7.919764824774861,-2.614089442706108
1733902087904570000,1.448570068359375,-3.223931067088246,10.356728352814912,3.726725690680742
1733902087914596000,1.45859619140625,2.822622887548804,6.874928439828753,5.586711168542504
1733902087924623000,1.468623046875,4.352567432749271,3.0737101104825735,3.602130758240819
1733902087934649900,1.47864990234375,3.214548321714997,-1.2780758165001869,2.378533258642256
1733902087944676900,1.4886767578125,3.9959792694240805,-3.413605497682094,1.214922610233724
1733902087954704100,1.4987041015625,6.0303586066395045,-5.05937013271451,-0.42726942700892684
1733902087964730000,1.508730224609375,5.552555800962447,-6.910262788060307,-1.5123077662229536
1733902087974756900,1.5187568359375,5.482363489839434,-7.065211942231655,-2.9321979455113407
1733902087984784000,1.528783935546875,4.51006977853477,-6.318504517379402,-4.093883178815245
1733902087994811100,1.53881103515625,2.0961177082479,-5.484305856078863,-4.180309708641469
1733902088004837000,1.548837158203125,0.49989597954154014,-3.9513124447017907,-3.275329830414057
1733902088014864000,1.55886376953125,-0.8260042489290237,-3.278859758105874,-1.9703835426449774
1733902088024891000,1.568890869140625,-1.5741963593810795,-3.7159435999035835,-1.3793493484549224
1733902088034918100,1.578918212890625,-1.4850211153686046,-3.364353683257103,-0.9790169551450758
1733902088044945000,1.58894482421875,-0.9051625413179397,-1.800575257515907,-0.49961120778340845
1733902088054971000,1.598970947265625,-0.26247604743242264,-0.0704752197176218,-1.5389464745625852
1733902088064998000,1.608997802734375,-1.397794082814455,0.4127858513653278,-1.9051805642418562
1733902088075025200,1.619025146484375,-2.9464123488247393,-0.3827414262354374,-0.32148046345636244
1733902088085052000,1.629052001953125,-2.0694576648592946,-0.9588087913095951,1.986610893215984
1733902088095079000,1.639078857421875,1.3937895233482123,-1.1118225935041903,2.718350904430449
1733902088105105000,1.64910498046875,6.195820386996865,-0.3800140470981598,0.6765069304227829
1733902088115132200,1.659132080078125,6.841002204829454,-0.11230126805603503,-0.40638241406381126
1733902088125159000,1.669158935546875,4.062718809744715,-0.016259060883522032,-0.8856979623913764
1733902088135186000,1.67918603515625,1.069410854232311,-0.47046091848164795,-1.4609496271684765
1733902088145213000,1.689212890625,-1.6883949854910372,2.594443954254687,-1.3100158461183309
1733902088155239200,1.6992392578125,-0.3614566461443901,2.8617680262401697,-0.3139791479155421
1733902088165266000,1.709265869140625,-1.231545535993576,0.5962073590442538,-0.7463403451055288
1733902088175293000,1.71929296875,-3.8752503647625445,0.22588234678953883,-1.3746610445082186
1733902088185320000,1.72931982421875,-1.7396762599170208,1.4377324177101254,1.5640154493674634
1733902088195347000,1.739346923828125,0.11506371850669384,1.3854875589489937,0.6374450861006975
1733902088205373000,1.749373046875,2.0655898835152384,1.7618840000718832,1.4049503843098878
1733902088215400000,1.75939990234375,4.173238455080986,3.778431327998638,2.0029180310249326
1733902088225427000,1.769427001953125,2.839320924371481,4.679406354498863,0.5830260981708765
1733902088235454200,1.7794541015625,-0.039026773008704184,3.0387913573145866,-1.581927830415964
1733902088245481000,1.78948095703125,-0.9191519037038087,-0.2609972070515156,-0.46624037817716596
1733902088255507000,1.7995068359375,-1.6266162824481725,-2.3768524659484624,2.98484933924675
1733902088265534000,1.809533935546875,-1.9053636657238004,-3.327364261294901,3.4536651208698745
1733902088275561200,1.819561279296875,-0.7707242602556943,-3.3791192907124756,1.9573785151213405
1733902088285588000,1.829587890625,0.9527350243538617,-2.2290908851936457,0.5563192930310964
1733902088295615000,1.839614990234375,1.2454168249577282,-0.34988749664276836,0.4236848465204239
1733902088305641000,1.849640869140625,-0.13451076177656648,0.4165630318164825,0.5808195280373096
1733902088315668200,1.859668212890625,0.16932488552629946,0.05999006606042385,0.23882979890704154
1733902088325695000,1.869695068359375,-0.5395657266288996,-1.8079861182942984,0.07341711838841437
1733902088335722000,1.879721923828125,-1.8012807754367588,-3.2577149710074065,0.058602995616197584
1733902088345749000,1.8897490234375,-2.681919700872898,-0.581674975822866,-1.8059388303756714
1733902088355775000,1.89977490234375,-3.9363942770332097,11.15299914225936,-3.0292198113709685
1733902088365802000,1.909802001953125,-0.706132253357768,-0.6081316055938601,0.7580150008082389
1733902088375829000,1.9198291015625,3.415249757757783,-1.3847367405816913,-0.21490531796216963
1733902088385856000,1.92985595703125,2.2307009507387874,1.4519149645805358,-0.7101771448343992
1733902088395883000,1.939883056640625,2.0285738658070565,-0.5254843020454049,-0.8413473640114069
1733902088405910000,1.949909912109375,0.3514870407938957,-0.9157192989066243,-0.18396423625349997
1733902088415936000,1.95993603515625,-2.3246266041487456,-0.6355795844897627,-0.018577274698019026
1733902088425963000,1.969962890625,-2.968886046439409,-0.9610928105935453,-0.5525444506675005
1733902088435990000,1.979989990234375,-1.95212015620172,-1.2048439915508031,-0.4288683866381645
1733902088446017000,1.99001708984375,0.8460270462602376,-1.9932757579326628,1.6770774726629256
1733902088456044000,2.0000439453125,3.188574507024884,-3.472970709842443,3.9474148527413604
1733902088466070000,2.010070068359375,-0.27572540510594845,3.977567706681788,-2.410249124115705
1733902088476097000,2.020096923828125,-0.33948505283296104,-0.5896873096257448,-0.4994827225655317
1733902088486124000,2.0301240234375,1.8199504045933483,-3.539333525805175,-0.5814069725364446
1733902088496151000,2.040151123046875,-0.9298141674935817,-1.4386705753430724,-0.32624387846589087
1733902088506177800,2.050177734375,-1.7252379847198724,-1.0770081774935125,-0.5253431400090456
1733902088516203800,2.060203857421875,3.074009385690093,-1.0405398567959665,-2.385262566897273
1733902088526231000,2.07023095703125,3.047542234525084,0.8916670999288558,-0.7682885575413704
1733902088536258000,2.080258056640625,1.7644231631606817,0.7411109200194478,0.9448013087451458
1733902088546284800,2.090284912109375,0.6442348923712968,-0.6592375234529375,-0.19233809684515
1733902088556312000,2.10031201171875,2.5712656155019995,-2.3589143659368155,-1.4901520485162734
1733902088566338000,2.110338134765625,-0.31313422152400017,-1.1228688881754874,0.45577100661098957
1733902088576365000,2.120364990234375,-0.34958208395540713,0.18748539611697196,2.6653333077311516
1733902088586391800,2.130391845703125,-1.0156406856000424,0.3497200311213732,2.317638644957542
1733902088596419000,2.140419189453125,0.22771745326220988,-3.5180735878944396,2.4675813691437245
1733902088606446000,2.150446044921875,-0.8443021221637725,1.0452683466225863,-1.2028829206109046
1733902088616472800,2.160472900390625,-0.48587183810323475,-3.2369632748797534,-0.29685762498378754
1733902088626498800,2.170498779296875,-0.5935206041783094,-7.526445305901765,-3.8173195693194866
1733902088636526000,2.180526123046875,-1.0412769388988614,-4.435554635776579,-4.920489485290647
1733902088646553000,2.190552978515625,0.7491846286207438,1.955093034532666,-1.6273691466420888
1733902088656580000,2.200580078125,4.110037318019569,5.221543392920494,-0.6791372789263724
1733902088666606800,2.21060693359375,2.582726920714974,3.7822555624619123,1.6990934896379708
1733902088676632800,2.2206328125,2.0904323560878635,2.493641693073511,3.7224183488756415
1733902088686660000,2.23066015625,1.8936904713258147,-0.3339551834955811,0.3108715372890234
1733902088696687000,2.24068701171875,0.6931684346273541,-0.6176207339510321,5.457098700201511
1733902088706713900,2.2507138671875,-6.4561448093533516,0.7369950091332197,3.2748277261108156
1733902088716741000,2.2607412109375,-4.474052708736062,-2.7478695521205663,0.4806979425966739
1733902088726767000,2.27076708984375,-2.8057623536407945,-1.7071821035474537,-0.9088175566941499
1733902088736794400,2.28079443359375,-1.371062727755308,-1.3909376410484313,-6.225534557259082
1733902088746821600,2.290821533203125,2.2849539344519374,-2.425963995119929,-7.742644755327701
1733902088756848600,2.3008486328125,2.3078636853963137,-0.24165713128745556,-4.230894525235891
1733902088766875400,2.31087548828125,0.7059931371480226,-1.171762390682101,-2.454780339759588
1733902088776901400,2.3209013671875,-1.3318132519066332,-2.434789691132307,-1.5449603280246258
1733902088786928600,2.3309287109375,-0.1997802295446396,-2.315976849225163,-1.2975117538541554
1733902088796955600,2.34095556640625,-0.06042962652146816,-0.8832397555842995,-1.089475152617693
1733902088806982400,2.350982421875,-0.7666308534622192,2.5888342976793646,2.083676452086866
1733902088817009700,2.361009765625,-2.60496622505188,6.127131466174125,5.085841960054636
1733902088827036700,2.37103662109375,-3.3468285479605195,8.133063292062282,4.282355247882008
1733902088837062700,2.381062744140625,-2.2132196545839307,6.592555851793289,2.3587964386455713
1733902088847089400,2.39108935546875,-1.8330501246631143,3.6972877070114016,2.263075280120969
1733902088857116400,2.401116455078125,-1.2108441087484358,3.0649454970076677,3.1065359830245374
1733902088867143700,2.411143798828125,-1.174795474767685,3.2990681411370635,3.052676967065036
1733902088877170700,2.421170654296875,-1.388591954705119,2.458547875599563,1.6818338734097777
1733902088887196400,2.431196533203125,-0.26999592154324054,0.8827937653824687,0.28515451037157324
1733902088897223400,2.441223388671875,1.6998370014816522,-0.9013608109474182,0.4164481732651591
1733902088907250700,2.451250732421875,1.6715397122800348,-1.4829422632679343,-0.03635645782090723
1733902088917277700,2.461277587890625,0.16088146682977675,-0.602950695824623,-1.3781746055871247
1733902088927304400,2.471304443359375,-0.22805004621744154,-0.37569267676770685,-2.698061272856593
1733902088937330400,2.481330322265625,0.7304173843085765,-0.061337389016151427,-2.9951188043266534
1733902088947357700,2.491357666015625,0.7722142065525055,0.9237053292244672,-2.3079634925089776
1733902088957384700,2.501384765625,0.6079822602510452,2.7262127238467335,-1.7947168868765233
1733902088967411500,2.511411376953125,1.095606787240505,4.0260239868149155,-0.7289677700221538
1733902088977438700,2.521438720703125,0.10402560714185237,4.301293464846909,0.14542363932654262
1733902088987464700,2.531464599609375,-1.0168313566893339,4.4373783440724015,0.34757542030811306
1733902088997491700,2.54149169921875,-1.4964742372751234,4.778652033887803,0.9482703000299632
1733902089007518500,2.5515185546875,-2.3792355616927146,5.988731295743584,2.417149551153928
1733902089017545500,2.56154541015625,-1.4492577280700205,4.393097596058249,4.340746646574139
1733902089027572700,2.57157275390625,-1.9470652108997106,2.9119466001212597,5.282245406642556
1733902089037599500,2.581599609375,-4.194708528611064,1.8354612774580716,4.711778053532541
1733902089047625500,2.59162548828125,-3.647726388245821,0.36898704164922236,3.0106033737063407
1733902089057652500,2.601652587890625,-2.488181089580059,0.06300152283608913,1.1579314337283373
1733902089067679700,2.6116796875,0.546269608181715,-1.9106094574227928,-0.17771511273086069
1733902089077706500,2.62170654296875,5.974347965604067,-6.922887291833758,-3.4495369350239633
1733902089087733500,2.6317333984375,7.145729832535982,-8.854704664719105,-6.123564129081368
1733902089097759500,2.641759521484375,6.040244625359773,-6.009910861894488,-5.497983668297529
1733902089107786800,2.651786865234375,3.928756329500675,-4.063113362020254,-4.553026876729726
1733902089117813500,2.6618134765625,2.668754514351487,-4.131069000132381,-6.327066009497642
1733902089127840500,2.671840576171875,2.4977134725570678,-5.493037444067001,-5.083882058158516
1733902089137867800,2.68186767578125,2.228661553865671,-5.531053578728437,-3.8579225056037303
1733902089147893800,2.691893798828125,0.9135252959936857,-3.344246422512829,-3.339156698158383
1733902089157920500,2.70192041015625,0.7343196524441242,-2.5191198332011697,-1.9863211164891719
1733902089167947500,2.711947509765625,-0.10502923122644424,-2.932204082991183,-0.8778457875862717
1733902089177974500,2.721974609375,-0.6901900033384561,-1.6459341463804245,0.4841162266075611
1733902089188001500,2.73200146484375,-1.5583341888606548,-0.3813625390976667,0.581792464722693
1733902089198027500,2.742027587890625,-2.011666570147872,-0.08053425691723823,1.4892396098464726
1733902089208054500,2.752054443359375,2.4608675507187843,-0.41416415398120876,3.556088845773041
1733902089218081500,2.76208154296875,1.2151999658703803,0.4234326253250241,4.486073401397467
1733902089228108500,2.772108642578125,0.9259072231829166,-0.07137158403545618,3.033947424414754
1733902089238135600,2.782135498046875,1.3863672643929719,-1.301442079040408,1.4188617130234837
1733902089248162600,2.79216259765625,0.9822621476113795,-1.3223352294653654,1.3760595131292939
1733902089258188500,2.8021884765625,-0.10293664286136626,-0.8916738219305872,1.026426868030429
1733902089268215600,2.812215576171875,-0.8263198907494544,-0.6000973522201181,0.24982991634905335
1733902089278242600,2.82224267578125,-1.3787082740724086,0.0025859248399734496,0.024063304893672467
1733902089288269600,2.83226953125,-1.7510954795539377,0.7167167757362127,-0.4847068859770894
1733902089298296600,2.842296630859375,-1.2328238853663205,1.1844307335972786,-1.0252554861634968
1733902089308322600,2.852322509765625,-0.607076251322031,1.2978306105449795,-1.4147607074454427
1733902089318349600,2.862349609375,0.14775485875308514,1.0981558872014283,-1.4522045951768756
1733902089328376600,2.87237646484375,0.6287514920353889,0.3353226724565029,-1.2155910110145807
1733902089338403600,2.882403564453125,0.04625497069656849,-0.2020534351736307,-1.2500263645797967
1733902089348430600,2.8924306640625,-0.6004910277128219,0.01660860497355461,0.2192398400351405
1733902089358456600,2.90245654296875,-1.7021078690230846,-0.22475714215189216,1.5628846917718648
1733902089368483600,2.912483642578125,-0.8281313240855932,0.33598668932318687,1.637383760178089
1733902089378510600,2.922510498046875,-0.37125206397175786,0.6924889279305935,1.272773326177895
1733902089388537600,2.93253759765625,0.16764789222478865,0.894941883815825,0.814666277834773
1733902089398564600,2.942564697265625,0.5005073894381523,0.8516603759720921,0.2283008061081171
1733902089408591600,2.952591552734375,-0.1222410627901554,0.541067947885394,-0.3707552203655243
1733902089418617600,2.96261767578125,0.11623217776417731,0.7030337028205395,-0.5655278508812189
1733902089428644600,2.97264453125,-0.0449210917443037,0.7060910445645451,-0.8372896130532026
1733902089438671600,2.982671630859375,0.19496201560795307,1.0246011139079927,-0.8459782386824488
1733902089448698600,2.99269873046875,0.04438976134657859,1.0296458300769329,-0.7808674686074256
1733902089458725600,3.0027255859375,-0.18594108928442,0.8383093114897608,-0.7784191986724733
1733902089468751600,3.012751708984375,-0.24845395182073116,0.38398675012141464,-0.7035287928611039
1733902089478778600,3.022778564453125,-0.18755086256861686,0.15725275493860244,-0.5965969428837299
1733902089488805600,3.0328056640625,-0.09648352119922637,0.19296675013750791,-0.4248755176097154
1733902089498832400,3.042832275390625,0.04077040180563926,0.30979601701200005,-0.13904986651092766
1733902089508859600,3.052859619140625,0.1604313849747181,0.4323281717032194,0.12656243312060833
1733902089518885600,3.0628857421875,0.190724816429615,0.5220350383743644,0.31260289112627504
1733902089528912600,3.07291259765625,0.1519955650627613,0.48958852053880686,0.3632701253071427
1733902089538939400,3.082939453125,0.0837204857379198,0.3352443465232849,0.17149813791215418
1733902089548966700,3.092966552734375,0.007788754180073737,0.1373772571235895,-0.14344400981664657
1733902089558993700,3.10299365234375,-0.07523030529022216,0.0007151625320315361,-0.2921840802147984
1733902089569020400,3.1130205078125,-0.13267653208673,-0.04096475533396005,-0.31948125246316195
1733902089579046400,3.12304638671875,-0.10918635090589522,-0.04897708913683891,-0.3250081991910934
1733902089589073700,3.13307373046875,-0.06121463941931724,-0.038085985027253626,-0.27931583081334826
1733902089599100700,3.1431005859375,0.0002291325807571411,-0.016999650117754936,-0.19479776495695114
1733902089609127400,3.15312744140625,0.07308277186751365,0.014211772964894771,-0.11232640249729156
1733902089619154700,3.16315478515625,0.13144552898705006,0.0464393873527646,-0.027023031482100484
1733902089629180700,3.1731806640625,0.16995909177660942,0.040590369063615794,0.03483984271287918
1733902089639207700,3.183207763671875,0.17386135991215704,0.002254208667576313,0.040056116056442256
1733902089649234400,3.193234375,0.15629296999573708,-0.04519815512001514,0.04320347417145967
1733902089659261400,3.203261474609375,0.08355740413069725,-0.10461305164098739,0.011796820777654647
1733902089669288700,3.213288818359375,0.0015372925698757171,-0.12869126184284685,-0.02219166580289602
1733902089679314700,3.223314697265625,-0.03163432466983795,-0.16498305692970752,-0.05366787730157375
1733902089689341400,3.233341552734375,-0.035870354804396626,-0.17584347364008426,-0.027722411923110483
1733902089699368400,3.243368408203125,0.027459084811806676,-0.15148030901700257,-0.00855418559461832
1733902089709395700,3.253395751953125,0.07848726125955581,-0.1333048931181431,0.01788403173685074
1733902089719422500,3.26342236328125,0.09943418769836425,-0.08791735290586948,-0.013180091829597949
1733902089729449500,3.273449462890625,0.06561901185810566,-0.07601824079751968,-0.047668929147720335
1733902089739475200,3.28347509765625,0.013612930288910864,-0.003074292878806591,-0.12672872959822415
1733902089749502200,3.293502197265625,-0.04203589169681072,0.10174626403301953,-0.16417466315627097
1733902089759529500,3.303529541015625,-0.07269640289843082,0.1911886345490813,-0.1694438357308507
1733902089769556200,3.31355615234375,-0.07515081031322479,0.26395868720561266,-0.15606939037293194
1733902089779583200,3.323583251953125,-0.08084756065011024,0.3291971753135323,-0.1416834298849106
1733902089789609200,3.333609130859375,-0.07412263630926609,0.3236018395245075,-0.11719050140231847
1733902089799636500,3.343636474609375,-0.0400455946624279,0.24763562117516993,-0.10543547393977641
1733902089809663200,3.353663330078125,-0.03213350636363029,0.11024901170134543,-0.09202128109335898
1733902089819690200,3.363690185546875,-0.01549099912047386,-0.0343202027529478,-0.09893529826551675
1733902089829717200,3.37371728515625,0.00893324804008007,-0.13414660463929176,-0.09838029473125934
1733902089839743200,3.3837431640625,-0.0068231240183115,-0.19082213932424782,-0.1012289621606469
1733902089849770200,3.393770263671875,-0.003542202651500702,-0.17852058389484882,-0.08268412842750548
1733902089859797200,3.40379736328125,0.031551322561502455,-0.15098989515155553,-0.03982815251946449
1733902089869824300,3.41382421875,0.059441200006008145,-0.14410013563781976,-0.026131635600328443
1733902089879851300,3.423851318359375,0.10449848535060882,-0.11833937917649745,-0.0012277882292866707
1733902089889878300,3.433878173828125,0.14036357945799827,-0.07072539508640766,0.020236440081894395
1733902089899904300,3.443904296875,0.12877017229795454,-0.008419453299045563,0.030351006861031055
1733902089909931300,3.45393115234375,0.06855740339756011,0.035576048032939435,0.009438567213714123
1733902089919958300,3.463958251953125,-0.020776246047019956,0.06597264760136604,0.022429858472943303
1733902089929985300,3.4739853515625,-0.07720598927736282,0.048836219361424446,0.02066197201758623
1733902089940012300,3.48401220703125,-0.09199673117399215,-0.007977847011387347,0.020111060136556624
1733902089950038300,3.494038330078125,-0.08611527191996574,-0.07945172237753868,0.02317980005741119
1733902089960065000,3.50406494140625,-0.1051835450053215,-0.1443143629103899,0.03339373555779457
1733902089970092300,3.51409228515625,-0.13626023579239843,-0.2288341823324561,0.03600888649225235
1733902089980119300,3.524119384765625,-0.1065256072640419,-0.25097937864512204,0.02972381487339735
1733902089990146000,3.53414599609375,-0.05850070428550243,-0.27585575348734853,0.04394026401340961
1733902090000172000,3.544172119140625,-0.05205284332036972,-0.25878157682865854,0.0433048887193203
1733902090010199300,3.55419921875,-0.049695466539263725,-0.24797230578362942,0.038864275923371314
1733902090020226300,3.564226318359375,-0.021716157245635984,-0.21262275998294353,0.028913959795236584
1733902090030253000,3.574253173828125,-0.0047153380841016765,-0.15481325283199548,0.019122049099206923
1733902090040280300,3.5842802734375,0.012048165190219878,-0.11252338637411594,-0.0031117022797465324
1733902090050306300,3.594306396484375,-0.02515489952266216,-0.05543839410543441,-0.03294745309501886
1733902090060333300,3.604333251953125,-0.049396775853633876,0.007829962973296642,-0.06616670886874199
1733902090070360000,3.614360107421875,-0.07341770291030407,0.033818390710651874,-0.08120558030754327
1733902090080387300,3.62438720703125,-0.055256607797741886,0.05793517935723066,-0.07550064666420221
1733902090090414300,3.634414306640625,-0.07497077757120132,0.06199059222787618,-0.06748217538148164
1733902090100440300,3.6444404296875,-0.06918927156031131,0.05604980400204658,-0.058202013599872586
1733902090110467000,3.654467041015625,-0.06470540414452552,0.023667583574354646,-0.0329132585644722
1733902090120494000,3.664494140625,-0.04957154789865017,0.008454816873371601,-0.009304711700975894
1733902090130521300,3.674521240234375,-0.0268786545753479,-0.004288929365575313,-0.005239946480095386
1733902090140548400,3.68454833984375,-0.04247136050462723,-0.033493396539986134,-0.0048632221221923825
1733902090150574000,3.694573974609375,-0.0449906498491764,-0.05675356835722923,-0.01887128920853138
1733902090160601000,3.70460107421875,-0.07163549566864967,-0.05666998172700405,-0.025726561930775643
1733902090170628400,3.71462841796875,-0.09912029944360255,-0.03138239573538303,-0.021202947026491163
1733902090180655400,3.7246552734375,-0.10310907681882381,-0.013225100015103816,0.013261048111319541
1733902090190682000,3.73468212890625,-0.10127893878221511,0.005059329216182231,0.018812252497673033
1733902090200708000,3.7447080078125,-0.08020341752767562,-0.018384382474422454,0.05427139615267515
1733902090210735400,3.7547353515625,-0.06298340265750885,-0.041402854490280146,0.049320203486084936
1733902090220762400,3.764762451171875,-0.04322890087366104,-0.06151186880022287,0.031252047353982924
1733902090230789000,3.7747890625,-0.03076630966365337,-0.059959670922160146,0.023530513191223144
1733902090240816400,3.78481640625,-0.027277883026003837,-0.044615971317887304,-0.010770692600309849
1733902090250843400,3.794843505859375,-0.014607786545157432,-0.046619420094788075,-0.023073709334433076
1733902090260869400,3.804869384765625,-0.016261983492970467,-0.056898822046816344,-0.027634441378712654
1733902090270896000,3.814896240234375,-0.016065584138035775,-0.04537818786203861,-0.027584757018089292
1733902090280923100,3.824923095703125,-0.03607318390011787,-0.051150049261748785,-0.019364625683426857
1733902090290950400,3.834950439453125,-0.04055822035968303,-0.03856295488923788,0.005011106160283088
1733902090300977200,3.84497705078125,-0.04014028720855713,-0.04285480686426162,0.029723522612452504
1733902090311003100,3.855003173828125,-0.033382045120000835,-0.07262713705450297,0.03539776885658502
1733902090321030100,3.865030029296875,-0.0459013349533081,-0.09605389761030673,0.023338790011405944
1733902090331057400,3.875057373046875,-0.0405552977502346,-0.09923135860264301,0.012183774268627165
1733902090341084200,3.885084228515625,-0.03985913217961788,-0.09553951834738254,-0.01725508618354797
1733902090351111200,3.895111083984375,-0.04820084406733512,-0.11397270839959382,-0.013195581659674644
1733902090361137200,3.90513720703125,-0.035655250748991965,-0.11709142494201659,-0.022035598458349702
1733902090371164400,3.915164306640625,-0.02694529007077217,-0.11513152304589748,-0.024537352146208283
1733902090381191200,3.925191162109375,-0.033906361255049706,-0.10288199006468057,-0.020790274572372435
1733902090391218200,3.93521826171875,-0.048124271699786184,-0.07993921363353729,-0.050099955686926836
1733902090401245400,3.945245361328125,-0.05281038368940353,-0.05475830288678407,-0.07068272498846054
1733902090411271400,3.955271484375,-0.05978372983336448,-0.03348024479746818,-0.050853988924622534
1733902090421298200,3.965298095703125,-0.034597850650548934,-0.0012228197932243347,-0.011489654524624348
1733902090431325200,3.9753251953125,0.018784195446968077,0.008343173192441463,0.0006198854640126228
1733902090441352200,3.985352294921875,0.032440964877605435,-0.013556523926556109,0.0028571429967880245
1733902090451379200,3.995379150390625,0.02609597976505756,-0.0267936066403985,-0.03231324684470892
1733902090461405200,4.0054052734375,-0.007313537883758545,-0.031629648494720455,-0.06396189230084419
1733902090471432200,4.01543212890625,-0.03593932838737964,-0.057012219293415545,-0.0735536042496562
1733902090481459200,4.025459228515625,-0.032708091381192204,-0.09621581017374992,-0.06083031627684831
1733902090491486200,4.035486328125,-0.03906125980019569,-0.11783259869813918,-0.05855974099636078
1733902090501513200,4.04551318359375,-0.06921908217668533,-0.13267770113050936,-0.05890519343316555
1733902090511540200,4.055540283203125,-0.0856552531927824,-0.12921207084655761,-0.03824263689368963
1733902090521566200,4.065566162109375,-0.08085749752223491,-0.11643354555517435,0.0003866612300276756
1733902090531593200,4.07559326171875,-0.06422200454175472,-0.10869856738895177,0.030006723468005654
1733902090541620200,4.0856201171875,-0.018455694144964216,-0.0935436683550477,0.03510784599930048
1733902090551647200,4.095647216796875,-0.015521978780627249,-0.07623919007182121,0.03312690131515264
1733902090561673200,4.105673095703125,-0.0325339038580656,-0.03909077815562487,0.02854045030772686
1733902090571700200,4.1157001953125,-0.028456863677501675,-0.015063129097223281,0.0025444237858057023
1733902090581727200,4.125727294921875,-0.03384031028151512,-0.000793196204304695,-0.006889174991846084
1733902090591754200,4.135754150390625,-0.029862054300308225,0.003424421490728855,-0.011390870325267314
1733902090601781200,4.14578125,-0.004789572364091873,0.01132481935173273,-0.021213176159560677
1733902090611808300,4.155808349609375,0.018502455896139143,0.007912672820687293,-0.04927051912546158
1733902090621834200,4.165834228515625,0.002201309436559677,-0.0009250058904290199,-0.06890110226869582
1733902090631861200,4.175861328125,-0.0199988319337368,-0.015434885019063949,-0.07035217785984277
1733902090641888300,4.18588818359375,-0.03747720547914505,-0.005780336967110633,-0.07489800459593535
1733902090651915300,4.195915283203125,-0.0733984136879444,-0.008261340127885342,-0.06281710617989301
1733902090661942300,4.2059423828125,-0.11335516102313994,-0.013358955527842045,-0.04252484425753355
1733902090671968300,4.21596826171875,-0.11624036107063293,-0.029201544564962385,-0.013016717961430549
1733902090681995300,4.225995361328125,-0.1162543895959854,-0.02534223878830671,0.0007414660170674324
1733902090692022300,4.236022216796875,-0.1346849492996931,-0.0003314239114522934,0.025292554427683352
1733902090702049300,4.24604931640625,-0.10670914713740348,0.001558335357904434,0.053479953514039516
1733902090712076300,4.256076171875,-0.06972878526449203,0.0018868366599082945,0.060927054649591444
1733902090722102300,4.266102294921875,-0.0277414088845253,-0.0014595511585474012,0.06435439874976873
1733902090732129300,4.27612939453125,-0.002787584891915321,-0.023067279593646524,0.03279635418653488
1733902090742156300,4.28615625,0.004431844967603683,-0.03009440175145864,0.021823709273338317
1733902090752183600,4.29618359375,0.0035427871733903884,-0.03651186757832765,-0.024400574024021623
1733902090762210300,4.306210205078125,0.011693944925069808,-0.05025485398769378,-0.050228550502657884
1733902090772236300,4.316236328125,-0.011872808623313903,-0.06291004516035319,-0.05927490352839231
1733902090782263300,4.32626318359375,-0.0414788423359394,-0.05733078372329473,-0.06467150187492371
1733902090792290300,4.336290283203125,-0.034122049832344056,-0.07217880876511334,-0.05094605112224817
1733902090802317300,4.3463173828125,-0.04491057035028934,-0.07192804887443781,-0.050071314114332195
1733902090812344300,4.35634423828125,-0.01722469104528427,-0.10337971045374869,-0.04611585448682308
1733902090822370300,4.366370361328125,-0.01987023711800575,-0.14079963278770447,-0.03407002738416195
1733902090832397300,4.376397216796875,-0.004754501050710678,-0.1468371593862772,-0.015136486594378948
1733902090842424300,4.38642431640625,-0.016624971586465833,-0.14997341158539057,-0.017828794418275354
1733902090852451300,4.396451416015625,-0.05338146157562732,-0.126797995442152,-0.03318067732900381
1733902090862478300,4.406478271484375,-0.07256430095136165,-0.06584872896075249,-0.05284457821995019
1733902090872504300,4.41650439453125,-0.079050155839324,-0.01812310118973255,-0.057823535676300525
1733902090882531300,4.42653125,-0.05067161809504032,0.009272855257987975,-0.06328004751652479
1733902090892558300,4.436558349609375,-0.012929039677977561,0.005486614717543125,-0.029815292549133298
1733902090902585300,4.44658544921875,0.015295768809318542,0.007509060455858707,-0.027528350655734536
1733902090912612400,4.4566123046875,0.023562077373266217,-0.02740969271212816,-0.006989420495927334
1733902090922638300,4.466638427734375,0.001665302863717079,-0.04810995091348886,-0.018785364490747452
1733902090932665300,4.476665283203125,-0.01388064131438732,-0.04336509447395801,-0.02382745031118393
1733902090942692400,4.4866923828125,-0.02624327928125858,-0.051283904774487014,-0.04955255093723535
1733902090952719000,4.496718994140625,-0.04673135603666305,-0.035385493896901606,-0.049881636761128896
1733902090962746400,4.506746337890625,-0.0343465062379837,-0.007625088050961494,-0.06388824254274368
1733902090972772400,4.5167724609375,-0.03307224851846695,-0.004203589169681072,-0.07060644488185644
1733902090982799400,4.52679931640625,-0.03969137439727783,-0.006336801806092262,-0.08176087610274553
1733902090992826000,4.536826171875,-0.054310266858339305,-0.005469371321797371,-0.062272916300594804
1733902091002853400,4.546853271484375,-0.05622983674407005,0.0025961539730429647,-0.08031184633821249
1733902091012880400,4.55688037109375,-0.08164134137630462,0.017096096229553222,-0.061055357204377644
1733902091022906400,4.56690625,-0.0867833804398775,0.015234978532791137,-0.059220250731706614
1733902091032933000,4.57693310546875,-0.08799977049231529,0.019648703321814537,-0.03041267392039299
1733902091042960400,4.58696044921875,-0.06064531509876251,0.0037763036683201787,-0.010980535958707332
1733902091052987400,4.5969873046875,-0.0328127207994461,-0.03892448167800903,0.019018004202842713
1733902091063014100,4.60701416015625,-0.014877251136302947,-0.0685951050594449,0.010533084452152251
1733902091073040100,4.6170400390625,-0.015123334851860999,-0.09319383200407028,0.011940613162517547
1733902091083067400,4.6270673828125,-0.045941082441806794,-0.09909048882722854,0.021015607760846614
1733902091093094400,4.637094482421875,-0.09136427848935126,-0.0859732331007719,0.027082652714848516
1733902091103121400,4.647121337890625,-0.125878542509675,-0.06476268728971481,0.02131897462159395
1733902091113148200,4.657148193359375,-0.12017360886633395,-0.04605944812446832,0.047208618159592146
1733902091123174400,4.66717431640625,-0.10611819550693034,-0.03941284971684217,0.051936523464322086
1733902091133201400,4.677201416015625,-0.0510819524616003,-0.06136369250118732,0.06733253777772188
1733902091143228400,4.687228515625,-0.01893091044127941,-0.07145458614379167,0.04173895457684994
1733902091153255200,4.697255126953125,0.011075520765781402,-0.08075579071342945,0.020849895805120467
1733902091163282400,4.707282470703125,0.04285656042993068,-0.09917758258879183,-0.005205459688603878
1733902091173308400,4.717308349609375,0.050036242800951,-0.10982990950644016,-0.022729718202352523
1733902091183335400,4.72733544921875,0.044674423506855965,-0.10975333713889121,-0.04643909509181976
1733902091193362200,4.737362060546875,0.022183190235495566,-0.10034224245399236,-0.06504939527660608
1733902091203389400,4.747389404296875,-0.0016764087796211243,-0.09493599949628115,-0.07608078463971614
1733902091213416400,4.75741650390625,-0.0029050737917423247,-0.0698582568630576,-0.06543138033151626
1733902091223442400,4.7674423828125,-0.0019300912797451017,-0.07172785012722015,-0.047271162001788616
1733902091233469200,4.77746923828125,-0.039652795952558516,-0.07097469367235898,-0.04333557611852884
1733902091243496400,4.787496337890625,-0.05829670614600181,-0.07823650136888027,-0.027638240770995616
1733902091253523500,4.7975234375,-0.07220832712054252,-0.07912205203175544,-0.008870119675993918
1733902091263550200,4.80755029296875,-0.06176058286428451,-0.08392302257269621,-0.0006622633010149001
1733902091273576200,4.817576171875,-0.08871873241662978,-0.07218699207156896,-0.005767185224592686
1733902091283603500,4.827603515625,-0.11412263826429843,-0.04570376655459404,0.0013844400957226752
1733902091293630500,4.83763037109375,-0.11317980445623398,-0.00940203459560871,-0.008014087368547916
1733902091303657200,4.8476572265625,-0.10738719252943991,0.012785539554059505,-0.025808687256276604
1733902091313684200,4.857684326171875,-0.1010182420194149,0.018490765458345413,-0.03560410508364439
1733902091323710500,4.86771044921875,-0.07947510325312614,0.010562602807581424,-0.04477554579377174
1733902091333737500,4.877737548828125,-0.05105798706412315,-0.009840718273818492,-0.059090486872196195
1733902091343764200,4.88776416015625,-0.020422025781869888,-0.015534253740310668,-0.05434650721549988
1733902091353791200,4.897791259765625,-0.024620646515488624,-0.020244038866460323,-0.0605541296839714
1733902091363818500,4.907818603515625,-0.04481587780416012,-0.022760113340616225,-0.06171849728822708
1733902091373844500,4.917844482421875,-0.060354807719588274,-0.009719429981708527,-0.04556786521524191
1733902091383871200,4.927871337890625,-0.0851455501049757,-0.011825170089304447,-0.022107786911725998
1733902091393898200,4.937898193359375,-0.04151216008365154,-0.018233283565938473,-0.0034568624556064603
1733902091403925500,4.947925537109375,-0.028863106390833854,-0.008106441827118397,0.010811024610698222
1733902091413952300,4.9579521484375,-0.013207272097468376,-0.020660510712862012,0.013913666801154613
1733902091423978200,4.967978271484375,-0.0010813654959201812,-0.035866555412113664,0.009339490753412246
1733902091434005200,4.978005126953125,0.024329554614424705,-0.043296120890974996,0.007028291201591492
1733902091444032500,4.988032470703125,0.02134381680190563,-0.060711366072297095,0.022574819901585576
1733902091454059300,4.998059326171875,0.01453296774327755,-0.06511836885958909,0.007330489018559455
1733902091464086300,5.008086181640625,0.00796294170320034,-0.07940116123408078,-0.026666180868446826
1733902091474112300,5.0181123046875,0.0003249941706657409,-0.0799690242499113,-0.03590571837872267
1733902091484139500,5.028139404296875,-0.01865560063123703,-0.08260667927712202,-0.04106646214276552
1733902091494166300,5.038166259765625,-0.045747021174430844,-0.05959434474110603,-0.042731472745537756
1733902091504193300,5.048193359375,-0.054442368805408474,-0.05375029488801956,-0.0415334951326251
1733902091514220300,5.05822021484375,-0.07290683077871798,-0.05083557648509741,-0.03943213893920183
1733902091524246300,5.068246337890625,-0.06944529214799404,-0.04607055404037237,-0.015825053380429745
1733902091534273300,5.078273193359375,-0.060574003428220745,-0.05009206464141607,0.006910217779874802
1733902091544300300,5.08830029296875,-0.06717384008467198,-0.052507893611490726,0.005057867911458016
1733902091554327300,5.098327392578125,-0.04528407983779907,-0.05446633420288562,0.0031938276052474973
1733902091564353300,5.108353271484375,-0.03617372166514397,-0.046261984959244724,-0.016018822386860847
1733902091574380300,5.11838037109375,-0.022229951986670493,-0.047938101477921005,-0.05723462987244129
1733902091584407300,5.1284072265625,-0.03287877177298069,-0.04009410997927189,-0.07244564300775527
1733902091594434300,5.138434326171875,-0.05444003071784973,-0.05677402662336826,-0.080282912504673
1733902091604461300,5.14846142578125,-0.07344283735156058,-0.0396337989911437,-0.05321808770745992
1733902091614487300,5.1584873046875,-0.0637000264942646,-0.022216800244152544,-0.05056231250166893
1733902091624514300,5.168514404296875,-0.06501636978983878,0.00017944822013378142,-0.041511575561761854
1733902091634541300,5.178541259765625,-0.05530570763647556,0.015093816496431827,-0.025689737051725385
1733902091644568300,5.188568359375,-0.04055179061889648,-0.013624912987649439,-0.024664485657215116
1733902091654595300,5.19859521484375,-0.051879824841022486,-0.02111643778681755,-0.0236260825201869
1733902091664621300,5.208621337890625,-0.059357613375782964,-0.041839492341876026,-0.020022212809324265
1733902091674648300,5.2186484375,-0.06511106233596801,-0.06469254466295242,-0.012389525973796844
1733902091684675300,5.22867529296875,-0.06790916862189769,-0.08941197537779808,-0.012740531368553638
1733902091694702300,5.238702392578125,-0.07757248450219631,-0.07262099957466125,0.006878653597831725
1733902091704729300,5.248729248046875,-0.10662263789772987,-0.05666296746432781,0.025454759252071378
1733902091714755300,5.25875537109375,-0.090935823944211,-0.046342064458131785,0.05224953493624925
1733902091724782300,5.2687822265625,-0.08089958309829234,-0.03136836721003056,0.06557049654126167
1733902091734808600,5.27880859375,-0.03553367019593715,-0.02371726793497801,0.05346621724963188
1733902091744835800,5.2888359375,-0.0011924246549606323,-0.048722529853880404,0.03951747913509607
1733902091754862800,5.29886279296875,0.000007598784565925598,-0.06365151117742061,0.03745236329883337
1733902091764888800,5.308888916015625,0.004844517421722412,-0.09917758258879183,0.008325345274806021
1733902091774915600,5.31891552734375,-0.0028530513435602186,-0.09282587547451257,0.00376841262280941
1733902091784942600,5.328942626953125,-0.00870586902499199,-0.09967588749974965,-0.007360299634933471
1733902091794969900,5.338969970703125,-0.008370937982201575,-0.08559329387247562,-0.032221476908028124
1733902091804996600,5.34899658203125,-0.011907295414805412,-0.0541711506485939,-0.036298224827647205
1733902091815022600,5.359022705078125,-0.025212767189741133,-0.02456862406730652,-0.048317163923382755
1733902091825049600,5.369049560546875,-0.03636310675740242,0.0024298574954271317,-0.05351414804458618
1733902091835076900,5.379076904296875,-0.059039048945903776,0.02396452069431543,-0.055711073566973204
1733902091845103600,5.389103515625,-0.10430442408323287,0.025626024165749547,-0.047642041140794754
1733902091855130600,5.399130615234375,-0.10950783794522286,0.010165127922594547,-0.061770519736409187
1733902091865156600,5.409156494140625,-0.13327215989232064,-0.018676935680210588,-0.03232435276061296
1733902091875183900,5.419183837890625,-0.10970423730015753,-0.03824439045935869,-0.022054010897874832
1733902091885211000,5.4292109375,-0.07531564548611641,-0.05924363160729408,-0.03552753271609545
1733902091895237600,5.439237548828125,-0.06772796683609485,-0.045028643772006036,-0.04246288493722677
1733902091905263600,5.449263671875,-0.06957739409506321,-0.02970978634804487,-0.05604892721921205
1733902091915291000,5.459290771484375,-0.07416355284154415,0.01334258891493082,-0.06884177329689264
1733902091925318000,5.46931787109375,-0.0598790069013834,0.02541764211207628,-0.0534805380359292
1733902091935344600,5.4793447265625,-0.06650923869609833,0.03391542134433984,-0.05402998861223459
1733902091945371600,5.48937158203125,-0.10886603291034698,0.011363105535507201,-0.05897329023331403
1733902091955398000,5.49939794921875,-0.16084288838505745,-0.0043473815545439715,-0.0427621601447463
1733902091965425000,5.5094248046875,-0.1980845315426588,-0.024756547854840754,-0.02515577630549669
1733902091975451600,5.51945166015625,-0.17129413977265356,-0.04154986174553633,-0.022585925817489624
1733902091985478700,5.529478759765625,-0.125927057826519,-0.055504152818024156,-0.007387479902803897
1733902091995506000,5.539505859375,-0.11973697101473807,-0.031949089707434174,0.005659340935945511
1733902092005532000,5.549531982421875,-0.18782091168165205,-0.032198096032440664,0.02976560818850994
1733902092015558700,5.55955859375,-0.2752940279513597,-0.03110328653305769,0.07308394091129303
1733902092025585700,5.569585693359375,-0.37418402577042575,-0.054208852310478686,0.12078940267711877
1733902092035613000,5.579613037109375,-0.44386721832752224,-0.08238134608864783,0.21030688425600527
1733902092045639700,5.5896396484375,-0.46686932373046874,-0.0986170260965824,0.2905915503263473
1733902092055665700,5.599665771484375,-0.39325229885578156,-0.09838234055787325,0.3383618940219283
1733902092065692700,5.609692626953125,-0.3444868066430092,-0.06844955910891294,0.39809272462427614
1733902092075720000,5.619719970703125,-0.24943244146406648,0.0028539281263947483,0.39811376741230486
1733902092085746700,5.62974658203125,-0.18345511768758296,0.0307563727915287,0.3669999594852328
1733902092095773700,5.639773681640625,-0.12218144155740737,-0.0030821839243173597,0.2920084313869476
1733902092105799700,5.649799560546875,-0.050071898636221884,-0.0347495340809226,0.17866379175782202
1733902092115827000,5.659826904296875,0.015596797582507132,-0.06011544600576162,0.09106091162860393
1733902092125853700,5.669853759765625,0.08622048586010933,-0.06981558676511049,0.019264380179345605
1733902092135880700,5.679880615234375,0.17157412575781344,-0.08443652505278587,-0.05759966379255056
1733902092145907700,5.68990771484375,0.17232874351739882,-0.1061111812442541,-0.14285101235955952
1733902092155934000,5.699933837890625,0.14790332731306552,-0.13753683159947394,-0.21048019499629736
1733902092165960700,5.709960693359375,0.09728665427565573,-0.07577712551802396,-0.20666852775365113
1733902092175987700,5.71998779296875,0.05411211393773555,0.07465922740399837,-0.10542699837237596
1733902092186014700,5.7300146484375,0.06018178924024105,0.25695728401094675,-0.05136106166392564
1733902092196040700,5.740040771484375,0.06970189725756645,0.3482268699541688,-0.05429974546432495
1733902092206067700,5.750067626953125,0.08333060963749885,0.38858898321986196,-0.08621639420688151
1733902092216094700,5.7600947265625,0.10119944380521774,0.39118864432424305,-0.10724953762441873
1733902092226121700,5.770121826171875,0.11599603092074394,0.3880228737697005,-0.09844809927046298
1733902092236148700,5.780148681640625,0.09852116450667381,0.36447307135611773,-0.07197481062561273
1733902092246174700,5.7901748046875,0.08331015137135982,0.32841683859080073,-0.0825423818692565
1733902092256201700,5.80020166015625,0.06234568927586078,0.29653496890068054,-0.09172083684206009
1733902092266228700,5.810228759765625,0.03154197021126747,0.24825959829241037,-0.1061401150777936
1733902092276255700,5.820255859375,-0.026899112841486928,0.16078034454286097,-0.1668400829732418
1733902092286282800,5.83028271484375,-0.07464987505376339,0.10445523073077201,-0.2365504557982087
1733902092296308700,5.840308837890625,-0.1476905613452196,0.09435264665037393,-0.28164281245619055
1733902092306335700,5.850335693359375,-0.20762918947935102,0.13001783427149058,-0.3003545271888375
1733902092316362800,5.86036279296875,-0.2343739885419607,0.2119657573789358,-0.3207219001740217
1733902092326389800,5.8703896484375,-0.22321312758028505,0.3232432353451848,-0.3005766455069184
1733902092336416800,5.880416748046875,-0.14608195710480212,0.4261667264640331,-0.2551370828464627
1733902092346442800,5.89044287109375,-0.08554302498996258,0.5407178192734718,-0.19309914434552192
1733902092356469500,5.900469482421875,-0.04723287581801414,0.5738727776393294,-0.13807196138948202
1733902092366496800,5.910496826171875,0.03154664638638496,0.5508557669281959,-0.1580152637436986
1733902092376523800,5.920523681640625,0.11420973202586174,0.4767591418430209,-0.21038228757977484
1733902092386550800,5.93055078125,0.21012334438264368,0.3847536428406834,-0.27591712828576564
1733902092396576800,5.94057666015625,0.2504512631177902,0.30986060668081045,-0.35671178970485923
1733902092406603800,5.950603759765625,0.24973113214969633,0.2591954183265567,-0.4087196248397231
1733902092416630800,5.960630859375,0.1710971558958292,0.19628537316620348,-0.446202675537765
1733902092426657800,5.97065771484375,0.045890813559293746,0.1278530574530363,-0.46767888654768464
1733902092436684800,5.980684814453125,-0.10686346091628074,0.05656622909158468,-0.4873702599674463
1733902092446710800,5.990710693359375,-0.16302900025248526,0.0323401348516345,-0.4198167729154229
1733902092456737800,6.00073779296875,-0.0776946495771408,0.04948796126842499,-0.33906127446293827
1733902092466764800,6.010764892578125,0.09268997413516045,0.08937193562835455,-0.30314065077602864
1733902092476791800,6.020791748046875,0.236133983951807,0.0748997581616044,-0.28031127159148456
1733902092486818800,6.03081884765625,0.2721627441883087,0.03064180650115013,-0.31629151651114223
1733902092496844800,6.0408447265625,0.20461305652856826,-0.00879646991789341,-0.3361328197956085
1733902092506871800,6.050871826171875,0.030776246535778044,-0.06547784982174634,-0.3189773945942521
1733902092516898600,6.060898681640625,-0.18918050959706306,-0.11944909398406743,-0.20361907705515622
1733902092526925800,6.07092578125,-0.35579730520844455,-0.19495383230149746,-0.042487434856593606
1733902092536951800,6.080951904296875,-0.3860299463868141,-0.2505231593102217,0.09296820655465125
1733902092546978800,6.090978759765625,-0.29984219375252724,-0.30905279742926356,0.19580197356343268
1733902092557005600,6.101005615234375,-0.21536592121124265,-0.3475809732660651,0.26224136189371344
1733902092567032800,6.11103271484375,-0.12852934927940368,-0.3250067378863692,0.23842092584520577
1733902092577059800,6.121059814453125,-0.017904490002989767,-0.302198109228909,0.1633019719749689
1733902092587085800,6.1310859375,0.12190788531303405,-0.23483605309575795,0.08687047420144081
1733902092597112600,6.141112548828125,0.2810626744806766,-0.14769494525939225,0.05208645332902669
1733902092607139800,6.151139892578125,0.36699206843972204,-0.08066489755958318,0.018759937788546083
1733902092617166800,6.161166748046875,0.2997989391326904,-0.037087037117779255,-0.023916005377471447
1733902092627193600,6.171193603515625,0.13349194012284277,-0.023995792615413663,-0.04527063583433628
1733902092637219600,6.181219482421875,-0.06836275760829448,-0.03673778528869152,-0.023280922344326972
1733902092647246800,6.191246826171875,-0.2327577855169773,-0.041135143464803695,0.025268589030206203
1733902092657273900,6.20127392578125,-0.28893209268152714,-0.08546791392713785,0.04949351422637701
1733902092667300600,6.211300537109375,-0.20923487111032008,-0.16843173607885836,0.0768453392714262
1733902092677327600,6.22132763671875,-0.022154548662900925,-0.3118877285942435,0.08191343631595373
1733902092687353900,6.231353759765625,0.16031214250922202,-0.4429992033213377,0.03301818024367094
1733902092697380900,6.241380859375,0.23656886823773382,-0.5368266570538283,-0.023375322629511357
1733902092707407600,6.25140771484375,0.1773626460313797,-0.5812473980605601,-0.07597878556996583
1733902092717434600,6.2614345703125,0.03350947089195251,-0.5896604216188192,-0.09665946228802204
1733902092727462000,6.2714619140625,-0.18142156603336332,-0.5627624778211117,-0.0772220636293292
1733902092737488100,6.281488037109375,-0.3826958335280418,-0.5000368493169546,-0.06550619913339614
1733902092747515000,6.291514892578125,-0.4483575154840946,-0.42987814820259806,-0.019853578244149683
1733902092757542100,6.301542236328125,-0.4058434848815202,-0.37621991551220413,0.0423091556802392
1733902092767569200,6.311569091796875,-0.26651743177771564,-0.3209244370087981,0.09061053751260041
1733902092777596000,6.321595947265625,-0.11367898615002632,-0.24700375301241873,0.10716858134269713
1733902092787622000,6.331621826171875,-0.0030476971328258513,-0.15048282241225241,0.1084659276768565
1733902092797649200,6.341649169921875,0.04996843826174736,-0.053687751045823094,0.12674275812357663
1733902092807676200,6.35167626953125,0.061729018682241434,0.05881342349648475,0.13426000188589096
1733902092817703000,6.361702880859375,-0.000893149447441101,0.11997311785817145,0.13249036186486482
1733902092827729000,6.37172900390625,-0.14453472766280173,0.16659136890918017,0.07175444587320089
1733902092837756200,6.381756103515625,-0.24301029946208,0.17111352250874043,-0.0253907541051507
1733902092847783200,6.391783203125,-0.2906581858217716,0.13464695537686347,-0.09544394901841878
1733902092857810000,6.401809814453125,-0.25430209332704545,0.07314969962388276,-0.14820377156436443
1733902092867837200,6.411837158203125,-0.19500117857456206,0.0021647768184542655,-0.22424393193274736
1733902092877863200,6.42186328125,-0.11749942122101784,-0.06871990048289299,-0.26276246315836904
1733902092887890200,6.43189013671875,-0.03339198199212551,-0.11875818911045789,-0.2691679462864995
1733902092897917000,6.4419169921875,0.013238251757621765,-0.15094401018321513,-0.24658991151452064
1733902092907944000,6.45194384765625,0.023696517407894132,-0.15697656834572551,-0.17197598455697297
1733902092917971200,6.46197119140625,0.01004910032749176,-0.12568857289552687,-0.0612143471583724
1733902092927997200,6.4719970703125,-0.03983282869458198,-0.082239307269454,0.039322541084885594
1733902092938024000,6.48202392578125,-0.09082768739461898,-0.05856149456202984,0.12337006682008504
1733902092948051000,6.492051025390625,-0.15438742863535881,-0.047318216013908385,0.17823855208307504
1733902092958078200,6.502078125,-0.20759411816596984,-0.052474283602833745,0.2065191824108362
1733902092968105000,6.51210498046875,-0.23726094215512275,-0.041561552183330054,0.20394991644471883
1733902092978131000,6.522130859375,-0.17504560126066207,-0.04397562758773565,0.201362822560966
1733902092988158000,6.532157958984375,-0.1301356154322624,-0.013096505199372768,0.18791823457628487
1733902092998185200,6.542185302734375,-0.0836029968380928,0.02870294739305973,0.2034346603989601
1733902093008212000,6.5522119140625,0.013371522748470305,0.07078530858010053,0.21045301472842692
1733902093018238000,6.562238037109375,0.08046879046559334,0.08331716563403606,0.19506722954809663
1733902093028265000,6.572264892578125,0.11257190169095993,0.06811565097942948,0.16141805792450903
1733902093038292200,6.582292236328125,0.12280103476047514,0.046847529762238264,0.09744739779531955
1733902093048319000,6.592319091796875,0.07822890258431434,0.06062529522404074,0.04716799388825893
1733902093058346000,6.602345947265625,-0.011455459994077682,0.06432064261063933,0.00026157354563474656
1733902093068372000,6.6123720703125,-0.06841244196891784,0.06251563901528716,-0.018485504761338232
1733902093078399200,6.622399169921875,-0.13341478323340414,0.02732888256087899,-0.031252924136817455
1733902093088426200,6.63242626953125,-0.20982582274079323,0.0016081658490002153,-0.04440671248137951
1733902093098453000,6.642452880859375,-0.2927577884495258,-0.028101620499044654,-0.042410862489044666
1733902093108480000,6.65247998046875,-0.37698096301257605,-0.04887099841386079,-0.024417525158822534
1733902093118506200,6.66250634765625,-0.4850608139812946,-0.023391543111950158,-0.04579699779599905
1733902093128533200,6.672533203125,-0.61371758903265,-0.0037594986639916893,-0.044696635338664054
1733902093138560000,6.68256005859375,-0.693336484670639,0.007395224817842245,-0.053830666647851466
1733902093148587000,6.6925869140625,-0.6505985821843147,0.07743731381520629,-0.0984150737836957
1733902093158614300,6.7026142578125,-0.5760311247169971,0.10671557687819004,-0.11449351740330457
1733902093168640300,6.71264013671875,-0.421909069019556,0.15560513386204838,-0.08183774073123931
1733902093178667000,6.7226669921875,-0.20267419742047785,0.1731684092119336,-0.03698737613558769
1733902093188694000,6.732694091796875,0.023210195195674896,0.17841347025856374,0.024931319899857043
1733902093198721300,6.74272119140625,0.261009482011199,0.1858905281409621,0.08312310436666011
1733902093208747300,6.752747314453125,0.49558571512699123,0.16697057748511432,0.12478110266178846
1733902093218774000,6.76277392578125,0.6231102712780237,0.13958441177904604,0.16066986990571022
1733902093228801000,6.772801025390625,0.6647662237465382,0.13086948266476392,0.16498042658120393
1733902093238828300,6.782828369140625,0.6398048009693622,0.1314310620702803,0.2020885064870119
1733902093248855000,6.79285498046875,0.5369979219675064,0.12048822777345776,0.21640023269504308
1733902093258881000,6.802881103515625,0.3965454951822758,0.08135960182547569,0.20393267304897308
1733902093268908000,6.812907958984375,0.26620705065429207,0.00494198644682765,0.16948329095840453
1733902093278935300,6.822935302734375,0.04842763856053352,-0.12701017688810826,0.13129647590517998
1733902093288962000,6.832962158203125,-0.1536819107145071,-0.3191832924298942,0.1102028344720602
1733902093298989000,6.842989013671875,-0.30206454597711563,-0.49107364453002805,0.06885989347547292
1733902093309015000,6.85301513671875,-0.3991267438471317,-0.6104578565843403,0.04136836769878864
1733902093319042000,6.8630419921875,-0.46699441141486164,-0.6473071394234895,-0.019243629652261732
1733902093329069000,6.873069091796875,-0.4813724808573723,-0.6236332722388207,-0.10897884563505648
1733902093339096000,6.883095947265625,-0.491371312302351,-0.5421767859101295,-0.24156273100227116
1733902093349123000,6.893123046875,-0.45944297312200066,-0.4652747480154037,-0.3253144886612892
1733902093359149000,6.903149169921875,-0.34729777241051196,-0.4099570576801896,-0.3858630653873086
1733902093369176000,6.913176025390625,-0.1108387942880392,-0.3635923429988324,-0.4084408078983426
1733902093379203000,6.923203125,0.19654840801656245,-0.30674028270319104,-0.4489996127799153
1733902093389230000,6.93322998046875,0.48383916323184967,-0.2669692671984434,-0.4544245604380965
1733902093399257000,6.943257080078125,0.7183025836229324,-0.21747458392828703,-0.4090168542206287
1733902093409283000,6.953282958984375,0.8884639199733734,-0.10079919244125485,-0.32225860822200775
1733902093419310000,6.96331005859375,0.9381132092833518,0.14211188443005085,-0.27739304605722426
1733902093429337000,6.973337158203125,0.8043219939529895,0.4335898622021079,-0.2878948585882783
1733902093439364000,6.983364013671875,0.552707532274723,0.7167706978805363,-0.29719810898453
1733902093449390000,6.99339013671875,0.23051088337302206,0.871760768584162,-0.3034031011044979
1733902093459417000,7.0034169921875,-0.1490285319507122,1.0134813156090676,-0.38779900188595057
1733902093469444000,7.013444091796875,-0.4185375467598438,1.1240098749041556,-0.45655105107277627
1733902093479470800,7.023470947265625,-0.6050368544489145,1.2067255675137043,-0.48594344203472134
1733902093489498000,7.033498046875,-0.6850362738370895,1.214325082731992,-0.3733598499059677
1733902093499524000,7.043524169921875,-0.6148772804617881,1.0749997602805494,-0.14105419207066297
1733902093509551000,7.053551025390625,-0.4777098666965961,0.8921956538476049,0.05041325941979885
1733902093519577900,7.063577880859375,-0.27283202175199983,0.7874095837272703,0.14818623590767382
1733902093529605000,7.073605224609375,-0.05918108776509762,0.7235045361801982,0.09302812004834413
1733902093539632000,7.083632080078125,0.06122866794466972,0.6617708413228393,0.024688451054692268
1733902093549658000,7.093658203125,0.08080781316161155,0.5602705148749053,-0.0631572979196906
1733902093559684900,7.103684814453125,0.10836451312899589,0.44607934141904115,-0.1001966965034604
1733902093569712000,7.113712158203125,0.14673837518692015,0.32181787871718404,-0.09919424146264791
1733902093579739100,7.1237392578125,0.18508125758469104,0.19609613420441746,-0.07100421202778816
1733902093589766100,7.13376611328125,0.20549802266955375,0.058765492701530454,-0.032599954831600185
1733902093599792000,7.143792236328125,0.16866262222528455,-0.12711173756644129,0.03108838122487068
1733902093609819100,7.153819091796875,0.10070727637410164,-0.300907484896481,0.14115677566230297
1733902093619846100,7.16384619140625,0.04338905987143516,-0.4341968881845474,0.2362257538884878
1733902093629873200,7.173873046875,-0.010216273587942123,-0.5388577975552529,0.32697073143571614
1733902093639899100,7.183899169921875,-0.03524491638243198,-0.6262226311448961,0.35613252851217986
1733902093649926100,7.193926025390625,-0.040886721661686894,-0.7138190084680914,0.31658465423882004
1733902093659953200,7.203953125,-0.07845218994617462,-0.8119623526383191,0.2761716875687241
1733902093669980200,7.213980224609375,-0.1426186649084091,-0.8614826818063854,0.21364421198517083
1733902093680007000,7.2240068359375,-0.21171207487881183,-0.8878667577978223,0.1378024967983365
1733902093690033200,7.234033203125,-0.27974983831644057,-0.9021688393946736,0.09639671969860791
1733902093700060200,7.24406005859375,-0.3283066562145948,-0.8492021691650151,0.07968377756774425
1733902093710087200,7.254087158203125,-0.35215924096703527,-0.7933150814440101,0.08184796986430883
1733902093720114000,7.264114013671875,-0.3445025887340307,-0.6826252671726047,0.07539017202705145
1733902093730141200,7.27414111328125,-0.2978162408828735,-0.5742343774933367,0.06778583450317383
1733902093740167200,7.284167236328125,-0.21398177337646482,-0.4856804071843624,0.07673252654671668
1733902093750194200,7.294194091796875,-0.1783329523682594,-0.4285383509662002,0.055420566187798975
1733902093760221000,7.304220947265625,-0.24957272671759126,-0.39721937585584816,0.03537321893721819
1733902093770248200,7.314248291015625,-0.37854748167693614,-0.3791373373288661,0.015907763227820396
1733902093780275200,7.324275146484375,-0.4739022911071777,-0.34018625990487633,-0.040674247954785824
1733902093790301200,7.33430126953125,-0.5337485647827387,-0.33240963455401357,-0.09465250637978315
1733902093800328000,7.344327880859375,-0.5120505277156829,-0.3376997768513858,-0.10107727873027324
1733902093810355200,7.354355224609375,-0.451939465624094,-0.36133484639562663,-0.10533698200136422
1733902093820382200,7.36438232421875,-0.36671968123912807,-0.34522133146263656,-0.07716711857169867
1733902093830408200,7.374408203125,-0.2935644286572933,-0.28894714412018657,-0.045485155367851256
1733902093840435000,7.38443505859375,-0.18183423848748206,-0.19597718399986624,0.000635083033144474
1733902093850462000,7.3944619140625,-0.08578910870552063,-0.0812503692973405,0.05073211611062288
1733902093860489200,7.4044892578125,0.003683656948804855,-0.024706790428981183,0.092060444059968
1733902093870516000,7.414515869140625,0.07122223869264126,-0.013190394027903675,0.14346066869050264
1733902093880542000,7.4245419921875,0.09414543364048003,-0.030132687935233115,0.14640753579735755
1733902093890569000,7.43456884765625,0.08033142782151699,-0.08732501303590834,0.12308043622374534
1733902093900596200,7.44459619140625,0.03796235864758491,-0.1409498549133539,0.08267828320860862
1733902093910623000,7.454623046875,-0.017381342911720273,-0.18213512113019822,0.039081718066334724
1733902093920650000,7.46464990234375,-0.06543781007230282,-0.1641633380446583,-0.019113281270861624
1733902093930676000,7.474676025390625,-0.0663619391798973,-0.1256551090173423,-0.011599252378940581
1733902093940703200,7.484703125,-0.024117373168468473,-0.09397584922723472,0.005675707548856735
1733902093950730000,7.49472998046875,0.022484219008684157,-0.04937091076001525,0.035621640740334984
1733902093960757000,7.504757080078125,0.11407295390367507,0.0018819412890821695,0.07783464256972074
1733902093970784300,7.5147841796875,0.2119488062441349,0.05589103324376046,0.07068506307601928
1733902093980810200,7.524810302734375,0.29036884748637676,0.0749530957840383,0.04460983383804559
1733902093990837000,7.5348369140625,0.33038463153243064,0.09531937279067933,0.04491144713312387
1733902094000864000,7.544864013671875,0.3118015116155147,0.0912977160591632,0.011217559584975242
1733902094010891000,7.55489111328125,0.23221067302823065,0.08617752350121737,-0.09715659815520047
1733902094020917200,7.564917236328125,0.07378770526647567,0.11534933051504194,-0.2241962933987379
1733902094030944000,7.574944091796875,-0.1090261919081211,0.15924487860389053,-0.3079930592432618
1733902094040971000,7.584970947265625,-0.23909634088873863,0.20659962723590433,-0.3355009516328573
1733902094050998000,7.594998046875,-0.2759843483030796,0.253336390100047,-0.3243453513681888
1733902094061025000,7.60502490234375,-0.21774492530226705,0.26055501624196764,-0.3445309380456805
1733902094071051000,7.615051025390625,-0.12375614352822303,0.2709076295606792,-0.3299281199365854
1733902094081078000,7.625078125,-0.044370472124218935,0.2777753964383155,-0.3035565381005406
1733902094091105000,7.63510498046875,0.0153062902033329,0.27981851963847876,-0.24174831670224664
1733902094101132000,7.645132080078125,0.03860474820435047,0.2909592876601964,-0.15126286687403917
1733902094111159000,7.655158935546875,0.05274725532531738,0.3186477973137051,-0.03877572085708379
1733902094121185000,7.66518505859375,0.04769347906708717,0.3094613782301545,0.03350888637006283
1733902094131212000,7.6752119140625,0.01059153664112091,0.25997093274369837,0.0426554848998785
1733902094141239000,7.685239013671875,-0.009185761496424675,0.1892516751371324,0.032951252487301824
1733902094151266000,7.69526611328125,-0.013321253865957259,0.10093085599690675,0.008965396744012833
1733902094161293000,7.70529296875,-0.00915244374871254,0.034739889469742775,-0.04447130215018987
1733902094171319000,7.715319091796875,-0.017220014870166778,0.01666881072819233,-0.1179562250778079
1733902094181346300,7.72534619140625,-0.004025602254271507,0.041460429896414276,-0.1708461037442088
1733902094191373000,7.735373046875,-0.009992401704192161,0.07144961770772934,-0.21330665059387682
1733902094201400000,7.745400146484375,-0.007691139024496078,0.0923318814124912,-0.20527970374375581
1733902094211426000,7.755426025390625,-0.002444470542669296,0.09111461457721888,-0.1500669350877404
1733902094221453300,7.765453369140625,-0.008331775015592575,0.07735664979442954,-0.1048459836140275
1733902094231480000,7.77547998046875,-0.019945055919885633,0.08572159642726182,-0.12498013236522673
1733902094241507000,7.785507080078125,-0.019679682981967924,0.0958619552347809,-0.14709960971474648
1733902094251534000,7.7955341796875,-0.01969897220432758,0.09830313784182071,-0.1531406434446573
1733902094261560000,7.80556005859375,-0.006858779853582382,0.050154608483612535,-0.12062047585099935
1733902094271587000,7.815587158203125,0.009079963034391403,-0.025479893693327902,-0.085868603682518
1733902094281614000,7.825614013671875,0.061496963492035865,-0.13417086229771374,-0.03491670734137296
1733902094291641000,7.83564111328125,0.16666355736255645,-0.24750709942467508,0.010134148262441158
1733902094301668000,7.845668212890625,0.310810747012496,-0.30504670359306035,0.04185527443289756
1733902094311694000,7.855694091796875,0.3633043198376894,-0.3008749708663672,-0.001521218217909336
1733902094321721000,7.86572119140625,0.2958966709971428,-0.276223271625489,-0.07121084051579236
1733902094331748000,7.875748046875,0.16235329294800757,-0.2212218806978315,-0.15515695170313118
1733902094341775000,7.885775146484375,-0.02940262009501457,-0.12957089422158896,-0.21305150678902862
1733902094351801000,7.895801025390625,-0.23509587307572363,-0.0792830878123641,-0.24886983914524316
1733902094361828000,7.905828125,-0.39764790346622464,-0.08839490728974342,-0.23825667519420385
1733902094371855000,7.915855224609375,-0.4848106386125087,-0.19800401365235445,-0.20476970839500427
1733902094381882000,7.925882080078125,-0.49491877565085884,-0.32590361366085707,-0.135582190400362
1733902094391909000,7.9359091796875,-0.42988136307299135,-0.4656838402729481,-0.030909809787571428
1733902094401935000,7.94593505859375,-0.34270401487946506,-0.5660496827982365,0.13358750945180653
1733902094411962000,7.955962158203125,-0.2440256139844656,-0.5856763204187154,0.2775862305417657
1733902094421988900,7.96598876953125,-0.15958616632223127,-0.5570215230163187,0.3403165352210402
1733902094432016100,7.97601611328125,-0.10914426532983779,-0.48264812681637703,0.30176585529148575
1733902094442043100,7.986043212890625,-0.12436404629349708,-0.34513416463583707,0.21624971830844877
1733902094452069000,7.996069091796875,-0.16832827570438383,-0.1995068924959749,0.11006254921853542
1733902094462096000,8.006095947265624,-0.22167875761985778,-0.08769991076290606,0.029684359645843504
1733902094472123100,8.016123046875,-0.2608604289293289,-0.024647388391941784,-0.005128595060110092
1733902094482150100,8.026150146484374,-0.21168577139377592,0.04743753154464066,-0.022010171756148337
1733902094492177000,8.036177001953124,-0.07929273242354393,0.10408975841924548,-0.015468495027720927
1733902094502203000,8.046202880859376,0.010012859970331191,0.13517083312049508,-0.049718847414851185
1733902094512230100,8.056230224609376,0.058986441975831985,0.11539981859326362,-0.06776566849797963
1733902094522257200,8.066257080078126,0.04654430903196335,0.08697006211839615,-0.10497867008298635
1733902094532284000,8.076283935546876,0.05656067613363266,0.07818710926920175,-0.12101210551708937
1733902094542311200,8.086311279296876,0.0819172357082367,0.10406009393334388,-0.15142477943748234
1733902094552337200,8.096337158203125,0.09553425765037536,0.08068243321627377,-0.1398439394980669
1733902094562364200,8.1063642578125,0.0687935502409935,0.04242109162211418,-0.15849369491040705
1733902094572391000,8.116390869140625,-0.011145663392543793,0.0273937644906342,-0.19879764824807641
1733902094582418000,8.12641796875,-0.08587211081385612,0.011837591179460287,-0.20740151820331812
1733902094592444200,8.136444091796875,-0.13335457747876645,0.022490356488525865,-0.15908903045505285
1733902094602471200,8.14647119140625,-0.14425883333086967,0.03962517729327082,-0.0996653661057353
1733902094612498000,8.156497802734375,-0.08021393892168999,0.06836465730443596,-0.0230704944640398
1733902094622525000,8.16652490234375,-0.019397358909249304,0.08639642694890498,0.006116437053680419
1733902094632552200,8.17655224609375,0.015640052202343938,0.07793810294419527,0.0010033318236470222
1733902094642578200,8.186578125,0.024226678761839864,0.028461247591674326,-0.03740267893821001
1733902094652605200,8.196605224609375,0.022716274198889733,-0.05986673194169998,-0.07191840426325798
1733902094662632000,8.2066318359375,0.04985094936192035,-0.14621376679092646,-0.08317074290066957
1733902094672659200,8.2166591796875,0.06186228967308998,-0.19847031598985193,-0.1102677164018154
1733902094682686200,8.226686279296874,0.08180150037407874,-0.19474647316113114,-0.1560515624552965
1733902094692712200,8.236712158203124,0.06398176604509354,-0.19845906394347548,-0.19665362195670605
1733902094702739000,8.246739013671874,0.026497546303272244,-0.21219839709103105,-0.21495091066956518
1733902094712766200,8.25676611328125,-0.042463177198171616,-0.22029650948122143,-0.21094255181103944
1733902094722793200,8.266793212890626,-0.09742810857295989,-0.22096096473932264,-0.17301877160817383
1733902094732819200,8.276819091796876,-0.05707037922143936,-0.1899760438889265,-0.10230185208916663
1733902094742846200,8.28684619140625,0.03358312065005302,-0.178374745683372,-0.05006313080787658
1733902094752873200,8.296873291015626,0.11563830352425575,-0.1706381600819528,-0.018165186765789983
1733902094762900200,8.306900146484375,0.1047568440258503,-0.18008593351542948,-0.0533171641677618
1733902094772927200,8.31692724609375,0.020392799687385558,-0.20544556182995438,-0.0777560243755579
1733902094782953200,8.326953125,-0.08914601791799068,-0.21726137956902383,-0.08466682667732238
1733902094792980200,8.336980224609375,-0.10054828642010688,-0.20350641046091913,-0.041191257566213606
1733902094803007200,8.34700732421875,-0.0804091692328453,-0.14812442271783946,-0.007115092702209949
1733902094813034200,8.3570341796875,-0.05340191984176636,-0.0969582991041243,-0.040410044060647486
1733902094823061200,8.367061279296875,-0.04498071297705173,-0.05651669086143374,-0.1241819677248597
1733902094833087200,8.377087158203125,-0.1441618026971817,-0.09800780815705656,-0.22313801651746035
1733902094843114200,8.3871142578125,-0.33086277043819423,-0.18364537956267593,-0.3070356123879552
1733902094853141200,8.397141357421875,-0.47470776227116585,-0.23078210152983664,-0.2821460858032107
1733902094863168300,8.407168212890625,-0.5191314258873463,-0.15828209798634052,-0.13884206897914408
1733902094873194200,8.4171943359375,-0.552040008276701,-0.0025105215162038804,0.053684536175429814
1733902094883221200,8.42722119140625,-0.5454384180545807,0.19037015777304767,0.1913923404276371
1733902094893248300,8.437248291015624,-0.4473375247865915,0.29730288453325626,0.28323125069141386
1733902094903275300,8.447275146484374,-0.3540367252767086,0.3410365200586617,0.2928293923810124
1733902094913302300,8.45730224609375,-0.2450315761566162,0.32280499005839225,0.29014819047302004
1733902094923328300,8.467328369140626,-0.12320786199569701,0.269415929698199,0.3189113436207175
1733902094933355000,8.47735498046875,-0.024278701210021972,0.20425372169688344,0.3207154704332352
1733902094943382300,8.48738232421875,0.00006663549542427062,0.147398884922266,0.2640495803594589
1733902094953409300,8.4974091796875,0.00433656789958477,0.10587693409696221,0.17131079864650964
1733902094963436000,8.50743603515625,-0.015654665249586103,0.05642214444577694,0.05742284592092037
1733902094973462000,8.5174619140625,-0.08630699509978294,-0.0073753510735929005,-0.04892915834188461
1733902094983489300,8.5274892578125,-0.11437106006741524,-0.08011106306910515,-0.0923299086511135
1733902094993516300,8.537516357421875,-0.11944354102611542,-0.1373117906719446,-0.13018763788044452
1733902095003543000,8.54754296875,-0.10765256546735763,-0.155953655038774,-0.14265110587328672
1733902095013569000,8.557569091796875,-0.048586043992638585,-0.14539748197197913,-0.12929185808449983
1733902095023596300,8.56759619140625,-0.006620294922590256,-0.08351005785763263,-0.12230506793707609
1733902095033623300,8.577623291015625,-0.00698737466931343,0.05617679138258099,-0.12132307116240262
1733902095043650000,8.587650146484375,-0.01728080514669418,0.15383403253629802,-0.09557458966076374
1733902095053677300,8.59767724609375,-0.005405658435821533,0.24371610964387655,-0.029663316857814787
1733902095063703300,8.607703369140625,-0.016111761367321013,0.29671222516372797,0.013489596170186996
1733902095073730300,8.617730224609375,-0.025104046118259428,0.2980031417571008,0.04041705832332373
1733902095083757000,8.627757080078124,-0.014753917017579077,0.2604477564752102,0.028735680618882178
1733902095093784000,8.6377841796875,-0.010194061756134033,0.1658477109350264,0.05955693534016609
1733902095103811300,8.647811279296874,0.0019277531921863555,0.08554068690240382,0.03971943144798278
1733902095113837300,8.65783740234375,0.023200258323550223,0.036408699464797974,-0.016446400149166582
1733902095123864000,8.667864013671876,0.01243628772497177,0.03907441154271364,-0.07578501656353473
1733902095133891000,8.67789111328125,-0.039022681355476374,0.06037906537801027,-0.11785101113766432
1733902095143918300,8.68791845703125,-0.01736497629880905,0.09387933005020022,-0.09157967480570077
1733902095153944300,8.6979443359375,-0.053444005417823785,0.08674845525696873,-0.03888385740667581
1733902095163971000,8.70797119140625,-0.09141220928430557,0.09154562640562652,0.00727232909053564
1733902095173998000,8.717998046875,-0.10042436777949333,0.13373203248903154,0.032708091381192204
1733902095184025300,8.728025390625,-0.14138123206794262,0.1297458854623139,0.004030278429389
1733902095194052000,8.738052001953125,-0.210611420160532,0.09342617945522069,-0.03744534903615713
1733902095204078000,8.748078125,-0.23583704683184623,0.07059343926981092,-0.04834931262731552
1733902095214105000,8.75810498046875,-0.2255424473106861,0.08217793247103691,-0.04733662845343351
1733902095224132400,8.76813232421875,-0.20672084246277808,0.08753829046040773,-0.009860592018067837
1733902095234159000,8.7781591796875,-0.16804478258788585,0.06370835593119263,0.07484832023531197
1733902095244186000,8.78818603515625,-0.14146715678572655,0.029162673859298226,0.14727788889110088
1733902095254212000,8.798212158203125,-0.126406365776062,-0.07189677695333957,0.16144173106104134
1733902095264239400,8.8082392578125,-0.08572013512253761,-0.17356588409692048,0.09704261638671159
1733902095274266400,8.818266357421875,-0.025071897414326666,-0.2342301961570978,-0.0333224238872528
1733902095284293000,8.828293212890625,0.06827507932484149,-0.2705681684732437,-0.1299099899828434
1733902095294320000,8.838320068359375,0.12614391544759274,-0.3495475971639156,-0.15834697991609573
1733902095304346000,8.84834619140625,0.22700492107868192,-0.4305800128616392,-0.20441636491268872
1733902095314373400,8.858373291015624,0.2801958285182714,-0.5293569056950509,-0.2963631194651127
1733902095324400000,8.868400146484374,0.2044716022312641,-0.6138369776286184,-0.4078872656688094
1733902095334427100,8.87842724609375,0.0395312153995037,-0.5563268918156623,-0.4454235078588128
1733902095344453000,8.888453125,-0.14812486110925674,-0.37712738574594257,-0.3566764261305332
1733902095354480400,8.89848046875,-0.23877602289319036,-0.16960633281618356,-0.25182868895083665
1733902095364507100,8.908507080078126,-0.16284546037912367,0.006250000305473804,-0.13511048123538494
1733902095374534100,8.9185341796875,-0.016458382847905156,0.11269845068007707,-0.03254091812074184
1733902095384561400,8.9285615234375,0.14110124608278274,0.1363221951127052,-0.04603986664116382
1733902095394587400,8.93858740234375,0.21481354802548885,0.11241320399791002,-0.10359159963876008
1733902095404614100,8.9486142578125,0.22455460531711577,0.09472147996276617,-0.1836971097499132
1733902095414641200,8.95864111328125,0.09737433255910873,0.09610416649281978,-0.20236615438461303
1733902095424668400,8.96866845703125,-0.007167407411336898,0.09706102882623673,-0.16146949585080145
1733902095434695200,8.978695068359375,-0.021605098086595532,0.055041503742337225,-0.13594108684062958
1733902095444721200,8.98872119140625,-0.006980944928526878,-0.030079496443271635,-0.09542992049306631
1733902095454748200,8.998748046875,0.0003214870393276214,-0.1045887939825654,-0.07770692453682422
1733902095464775200,9.008775146484375,0.00045183542072772977,-0.13798691345453262,-0.1079582704156637
1733902095474802200,9.01880224609375,-0.05244213489890098,-0.12959960885941982,-0.1680728396385908
1733902095484828200,9.028828125,-0.047102527436614035,-0.09180033181905746,-0.20967793870270252
1733902095494855200,9.038855224609375,-0.0444417837947607,-0.009277823694050311,-0.190001178330183
1733902095504882200,9.048882080078124,-0.07077274135947227,0.0913435279622674,-0.12687369102686644
1733902095514909200,9.0589091796875,-0.040707273441553116,0.20054419965445994,-0.049769408558309074
1733902095524936200,9.068936279296874,0.09095803577601909,0.30705022543519733,-0.004522738121449947
1733902095534962200,9.078962158203124,0.141402859377861,0.3266200183019042,-0.02915945898890495
1733902095544989200,9.0889892578125,0.13543196827471254,0.27781244051307435,-0.07542056716531514
1733902095555016200,9.09901611328125,0.11386194150149821,0.1637266271278262,-0.11479396165460347
1733902095565043200,9.109043212890626,0.09464578437805175,0.0499950340077281,-0.1293167002648115
1733902095575070200,9.1190703125,0.049396775853633876,0.047423429954051965,-0.14323124384880065
1733902095585096200,9.12909619140625,-0.008567921859025955,0.11451280662566422,-0.2415197686433792
1733902095595123200,9.139123291015625,0.02010463039577007,0.13368074069321154,-0.2898784336209297
1733902095605150200,9.149150146484375,0.10299743313789367,0.14649521408081054,-0.3133677380189299
1733902095615177200,9.15917724609375,0.16671967146396635,0.17605185569375753,-0.2960682281717658
1733902095625204000,9.169203857421875,0.162913849440217,0.21793840204775333,-0.24130729493647812
1733902095635230200,9.179230224609375,0.13752280307412146,0.25994185277968646,-0.18141484403163194
1733902095645257200,9.18925732421875,0.012453823381662368,0.29786037228554485,-0.1753577359497547
1733902095655284200,9.1992841796875,-0.1628267556786537,0.29797055466175076,-0.1966992146641016
1733902095665311000,9.20931103515625,-0.3347036637753248,0.2521922615662217,-0.1788613601565361
1733902095675337200,9.219337158203125,-0.4057791874736547,0.2010658854410052,-0.16348258923888206
1733902095685364200,9.2293642578125,-0.392141707265377,0.20652502762973307,-0.12957505894005297
1733902095695391200,9.23939111328125,-0.38365795655846596,0.2534761638969183,-0.08092647110521793
1733902095705418000,9.24941796875,-0.36618659727573394,0.3276701118767261,-0.016553075394034385
1733902095715445200,9.2594453125,-0.3452683124095201,0.3940539706274867,0.05721417160630226
1733902095725471200,9.26947119140625,-0.3104641255319118,0.3956263345107436,0.08455372169166803
1733902095735498200,9.279498291015624,-0.2867237689822912,0.3547410741537809,0.0872410610795021
1733902095745525000,9.28952490234375,-0.2387701776742935,0.2707400179088116,0.10316460639834403
1733902095755551700,9.2995517578125,-0.25055296992659565,0.17065467282533645,0.16329408092945813
1733902095765578800,9.309578857421876,-0.19485621714591977,-0.039516310091316696,0.27457418924421073
1733902095775604700,9.319604736328126,-0.17716800024211404,-0.07595891182571649,0.2716992183297872
1733902095785632000,9.329632080078126,-0.13845160835683346,0.07074614561349153,0.06328238560408353
1733902095795658800,9.33965869140625,-0.12868249401450157,0.08110825741291046,-0.05561755006462335
1733902095805685800,9.349685791015625,-0.1046475384324789,0.012647300127148627,-0.06245411808639764
1733902095815713000,9.359713134765625,-0.1014145478606224,-0.059874038465321064,-0.10086801989376544
1733902095825739000,9.369739013671875,-0.06452829401195048,-0.08959113133698701,-0.18772651139646768
1733902095835765800,9.379765869140625,-0.06042202773690224,-0.1159086448982358,-0.2822869555786252
1733902095845792800,9.389792724609375,-0.11090776787102222,-0.1584001714080572,-0.40457302655428645
1733902095855820000,9.399820068359375,-0.10354571467041969,-0.20076514892876146,-0.4660550847381353
1733902095865846000,9.409845947265625,-0.09970014515817165,-0.22323241680264472,-0.5148009954676032
1733902095875872800,9.419872802734375,-0.024356442621350286,-0.2527086866557598,-0.4893865682259202
1733902095885899800,9.429899658203125,0.11065350084900856,-0.24272096112668512,-0.4453787919342518
1733902095895926800,9.4399267578125,0.2029991915911436,-0.17898440201431512,-0.42219957639873024
1733902095905953800,9.449953857421875,0.24610884999930857,-0.08562515031546354,-0.31760406041443345
1733902095915979800,9.459979736328124,0.2837824548333883,-0.08179828550368547,-0.053100014285743236
1733902095926006800,9.4700068359375,0.08599076875746249,0.12028992872238159,0.0031251462832093237
1733902095936033800,9.48003369140625,-0.056743631485104556,0.1774620147526264,0.17485533938556908
1733902095946060800,9.490060791015624,-0.17129063264131544,-0.010272679950296877,0.404187826628983
1733902095956087800,9.500087890625,-0.2330798570781946,-0.21994331212937832,0.5072285143867135
1733902095966113800,9.51011376953125,-0.15613222647607325,-0.3947165261894464,0.559544684818387
1733902095976140800,9.520140869140626,-0.07563771704733371,-0.5140063379585743,0.5371224251300096
1733902095986167800,9.530167724609376,0.058199090990424154,-0.5517673288151621,0.45649464471042156
1733902095996194800,9.54019482421875,0.11900339604318141,-0.6189610426440835,0.4075099567890167
1733902096006221800,9.550221923828126,0.12852642666995526,-0.6439040529817343,0.36915801430195566
1733902096016247800,9.560247802734375,0.17313772181272505,-0.6442673333361745,0.33832916079610587
1733902096026274800,9.57027490234375,0.18092822955846785,-0.6202481598451733,0.27152444628477096
1733902096036301800,9.5803017578125,0.20762217521667478,-0.5564446729764342,0.17609540257453918
1733902096046328800,9.590328857421875,0.23110826474428176,-0.41468437846302986,0.07993570650219917
1733902096056354800,9.600354736328125,0.17274843023419378,-0.1827776568174362,0.0044607788011431695
1733902096066381800,9.6103818359375,0.0569552284091711,0.07427461200058459,-0.07507073081433772
1733902096076408800,9.620408935546875,-0.03505377772450447,0.27385610410273076,-0.141167881578207
1733902096086435800,9.630435791015625,-0.07345218970179557,0.3802580849871039,-0.19966186386197804
1733902096096462800,9.640462890625,-0.18449264404177665,0.46229660898745056,-0.15889058527350425
1733902096106488800,9.65048876953125,-0.24322189638614652,0.46385435982346535,-0.071782210662961
1733902096116515800,9.660515869140625,-0.28416414762735365,0.39097821644395586,-0.04268412647247314
1733902096126542800,9.67054296875,-0.2944143234848976,0.3156774762660265,-0.04992693720757961
1733902096136569900,9.68056982421875,-0.32939795858263965,0.27161241682916876,-0.032848376634716986
1733902096146596900,9.690596923828124,-0.3241612269729376,0.20322657060623167,-0.0635609102845192
1733902096156622800,9.700622802734374,-0.28090836070179936,0.11536182467043399,-0.15705021810382605
1733902096166649900,9.71064990234375,-0.21561960371136665,0.04683949258625507,-0.24744623608291147
1733902096176676900,9.7206767578125,-0.13476035262346267,0.03473784364312887,-0.2267792956292629
1733902096186704000,9.730703857421876,-0.0044803602844476695,0.027511984042823314,-0.11301233893483877
1733902096196731000,9.74073095703125,0.08930150074064731,0.05030336930453777,-0.14158113855421542
1733902096206756900,9.7507568359375,0.11485387514829636,0.1115314527273178,-0.1564458224698901
1733902096216784000,9.760783935546876,-0.048910453641414636,0.1640966294839978,-0.1626747799873352
1733902096226811000,9.770810791015625,-0.16464461875557898,0.20353198329359293,-0.15196750801205633
1733902096236838000,9.780837890625,-0.2731576004445553,0.20323855330497026,-0.1313195645198226
1733902096246864000,9.79086376953125,-0.38498306768238544,0.1332908645927906,-0.05823942300081253
1733902096256891000,9.800890869140625,-0.22845921154022217,0.048243221904337406,0.08015840934216975
1733902096266918000,9.81091796875,0.030464111846685408,-0.07848638447672128,0.12846885126382113
1733902096276945000,9.82094482421875,0.15979659420251846,-0.1274149582967162,0.07804273236244917
1733902096286972000,9.830971923828125,0.23528292008042334,-0.10674538749456405,-0.024038170452415943
1733902096296998000,9.840997802734375,0.293261061796546,-0.07220598903298378,-0.22443214798122643
1733902096307024600,9.851024658203125,0.22269407214224338,-0.03590834872722626,-0.30482904225438834
1733902096317052000,9.861052001953125,0.16881927409172057,-0.003607376842200756,-0.2042711112231016
1733902096327079000,9.871078857421875,0.21637831312417982,-0.004555763608217239,-0.035274434737861154
1733902096337105700,9.881105712890625,0.22182021191716192,-0.13349924664646387,0.07474193725138903
1733902096347131600,9.891131591796874,0.1950947020769119,-0.3130737235084176,0.09617284781485795
1733902096357159000,9.901158935546874,0.09972644864320754,-0.41747897761762137,-0.0011474164694547653
1733902096367186000,9.91118603515625,-0.00876899738907814,-0.341997327914834,-0.14440437928140162
1733902096377212700,9.921212646484374,-0.07591770303249358,-0.1824225597694516,-0.09922288303524256
1733902096387240000,9.931239990234374,-0.007893968120217323,-0.04808218612372875,0.047884617725014685
1733902096397266000,9.941265869140626,0.04531213688850402,0.0007514028891921043,0.025727146452665328
1733902096407293000,9.95129296875,0.0037660745352506636,-0.013342881175875662,-0.07893821989744901
1733902096417319700,9.961319580078126,-0.05938157877326011,-0.07834113078713417,-0.17449381259679794
1733902096427347000,9.971346923828126,-0.03938566944897175,-0.13156184884309768,-0.19739333440810442
1733902096437373000,9.981373046875,-0.020304536882042885,-0.1736687599495053,-0.1784893119737506
1733902096447400000,9.99139990234375,-0.102312373483181,-0.17168080100268124,-0.11199147145450114
1733902096457426700,10.0014267578125,-0.29119711500406265,-0.09798428115099668,-0.0809606656357646
1733902096467453700,10.01145361328125,-0.3906558526217937,-0.009234569074213505,-0.061083706516027444
1733902096477481000,10.02148095703125,-0.316290055206418,0.022873218326270577,-0.06507569876164197
1733902096487507000,10.0315068359375,-0.16016835012435912,0.058524085161089895,0.05667611920684576
1733902096497533700,10.04153369140625,0.0035001170754432676,0.10523264484405517,0.19444149886518716
1733902096507560700,10.051560791015625,0.12414192797541618,0.09745441205799579,0.09237871622890234
1733902096517588000,10.061587890625,0.1379354755282402,0.10173369681239128,-0.16290069769769905
1733902096527614700,10.07161474609375,-0.012437456768751144,0.16998510300070047,-0.2701905673325062
1733902096537640700,10.081640625,-0.21043138741850853,0.24519202741533516,-0.2858323731005192
1733902096547667700,10.091667724609374,-0.30953122859597204,0.266477684289217,-0.18117489779591558
1733902096557695000,10.101695068359374,-0.1812660832107067,0.25825872199833394,0.16421382612287996
1733902096567721700,10.1117216796875,0.07879471977353096,0.2159831763267517,0.35981647772192954
1733902096577748700,10.121748779296874,0.12787351571917532,0.18374182567447422,0.2614411514267325
1733902096587774700,10.131774658203126,-0.012971709775924682,0.12096212889552116,0.05410013123899698
1733902096597802000,10.141802001953126,-0.1349988375544548,0.0649509033381939,-0.0630526685014367
1733902096607828700,10.151828857421876,-0.19775076954364776,-0.02843143697530031,-0.03831161047667265
1733902096617855700,10.161855712890626,-0.23994331310689448,-0.11386340280622244,0.006443769311904907
1733902096627882800,10.1718828125,-0.2041185510098934,-0.07163987958282232,0.09553688799887895
1733902096637909000,10.181908935546875,-0.1004302129983902,-0.02490998485088348,0.19945961928814648
1733902096647935700,10.191935791015625,0.04746317744255066,-0.035253976471722126,0.1411503459215164
1733902096657962800,10.201962646484375,0.08123042248785495,-0.01986205381155014,-0.13655278899818657
1733902096667989800,10.21198974609375,0.0868926860332489,0.08041179958134889,-0.25888006876707076
1733902096678016000,10.22201611328125,0.043787703800201416,0.12355097634494304,-0.24081337393969296
1733902096688042800,10.232042724609375,-0.04793313304185867,0.1021396472647786,-0.2158887760415673
1733902096698069800,10.24206982421875,-0.2018710643440485,0.062247489598393435,-0.17065262699872255
1733902096708096800,10.2520966796875,-0.3011310645192861,-0.02119271789342165,-0.05902560494244098
1733902096718124000,10.2621240234375,-0.33897418070137497,-0.08034604086875916,0.08313128767311573
1733902096728150000,10.27214990234375,-0.25374329040050503,-0.12315437824279069,0.1118690141186118
1733902096738176800,10.2821767578125,0.01577156962752342,-0.03591390168517828,0.12450666963458061
1733902096748203500,10.29220361328125,0.21376199314594269,-0.005410919132828712,0.02379033317118883
1733902096758230800,10.302230712890625,0.21120529440045355,-0.02399374678879976,-0.18883301133364438
1733902096768257500,10.312257568359374,0.08030746242403984,-0.014051613967120647,-0.37575405156612396
1733902096778283500,10.322283447265624,-0.03312134835720062,0.021135434748232363,-0.3366264485314488
1733902096788310500,10.332310546875,-0.08928338056206703,0.05152238970547914,-0.15154782129526137
1733902096798337500,10.342337646484374,-0.1325327397018671,0.06456307306438684,-0.06955518226325512
1733902096808364500,10.352364501953126,-0.12411270188093185,0.046828386670351024,-0.02868599625825882
1733902096818391600,10.3623916015625,0.014934534281492232,-0.07568067940622568,0.06106675538122654
1733902096828417500,10.37241748046875,0.2120142726957798,-0.15313275239914656,0.08070493730902671
1733902096838444500,10.382444580078126,0.3530897998154163,-0.15130641375482082,-0.020058453166484833
1733902096848471600,10.392471435546875,0.37285949916839595,-0.1282014324992895,-0.15206483090668915
1733902096858498600,10.40249853515625,0.21324176866412162,-0.10553630396574736,-0.27631927934587003
1733902096868524500,10.412524658203125,-0.045075990045070645,0.0031616789013147353,-0.32314152853637934
1733902096878551600,10.422551513671875,-0.2823041989743709,0.0898752089753747,-0.26216099013388156
1733902096888578600,10.43257861328125,-0.4224883302122354,0.18323387615233658,-0.11375029782056807
1733902096898605600,10.44260546875,-0.42656069421768184,0.2696890475511551,0.1383086927548051
1733902096908632600,10.452632568359375,-0.2610615044593811,0.34660102231800555,0.3025979222014546
1733902096918658600,10.462658447265625,-0.02481587682664394,0.28456425286084414,0.41088849331140515
1733902096928685600,10.472685546875,0.16360358527004717,0.08745148895978927,0.3520961126029491
1733902096938712600,10.482712646484375,0.1523047771424055,-0.11252806254923343,0.08822568820267915
1733902096948739600,10.492739501953125,0.03099076606929302,-0.24341595765352247,-0.12120704356729983
1733902096958766300,10.502766357421875,-0.10552373674511908,-0.2922013236105442,-0.24658260499089954
1733902096968792600,10.51279248046875,-0.2307365088224411,-0.18366700687259435,-0.32521979611515994
1733902096978819600,10.522819580078124,-0.30681203276515007,-0.02917348751425743,-0.3026072745516896
1733902096988846600,10.5328466796875,-0.2395546060502529,0.06720598878860473,-0.11456833620518446
1733902096998873600,10.54287353515625,-0.013900515058636664,0.09164221864789723,0.10924451083391905
1733902097008900600,10.552900634765624,0.21496026301980017,0.09616875616163015,0.13590923039764166
1733902097018926600,10.562926513671876,0.29583295811116694,0.0193757315993309,-0.011365443623065947
1733902097028953600,10.57295361328125,0.2175941186547279,-0.01730652410984039,-0.1923179308399558
1733902097038980600,10.582980712890626,0.01918751555085182,0.0005243161350488662,-0.324438290348649
1733902097049007600,10.593007568359376,-0.22872458447813987,0.0552756047591567,-0.3336266821935773
1733902097059034600,10.60303466796875,-0.41501872498393055,0.07411153039336205,-0.24011720836907624
1733902097069060600,10.613060546875,-0.48308220738470553,0.11163345179706811,-0.0636500498726964
1733902097079087600,10.623087646484375,-0.35574411371648307,0.1657958346173167,0.20448504623472688
1733902097089114600,10.633114501953125,-0.056664136508107185,0.13579057245403528,0.39840748966187234
1733902097099141600,10.6431416015625,0.24844635303616522,0.03105301765054464,0.3733867379128933
1733902097109167600,10.653167724609375,0.3728752812594175,-0.128944652082026,0.16278379331976175
1733902097119194600,10.663194580078125,0.2781523399919271,-0.2883715361893177,-0.09846095875203609
1733902097129221600,10.6732216796875,0.034409634602069854,-0.34928251648694275,-0.35617987478524443
1733902097139248600,10.68324853515625,-0.27759879776239393,-0.28689795650541783,-0.5159972195148468
1733902097149275600,10.693275634765625,-0.46498248707056045,-0.15120792181640863,-0.404055432420969
1733902097159301600,10.703301513671875,-0.38847617049515243,0.010755202770233153,0.026120237423479555
1733902097169328600,10.71332861328125,-0.08102525530457497,0.18586100978553294,0.49610067891180515
1733902097179355600,10.723355712890625,0.30996962001323697,0.208787419603765,0.6351622358605266
1733902097189382700,10.733382568359374,0.626270781135559,0.019701894813776016,0.47102264401763677
1733902097199409400,10.743409423828124,0.6433224537014961,-0.17877046700268984,0.03399491632133722
1733902097209435400,10.753435302734376,0.3261199598252773,-0.27885727339088917,-0.4340174399644136
1733902097219462700,10.763462646484374,-0.05255553214550018,-0.28114830693751575,-0.7099561955600977
1733902097229489700,10.77348974609375,-0.3994342023611068,-0.1884881434187293,-0.813691003061831
1733902097239516400,10.783516357421876,-0.5918903726279735,-0.0075157824575901025,-0.7684153987914323
1733902097249543700,10.793543701171876,-0.5755833809494972,0.18952888464331627,-0.4220458471417427
1733902097259569700,10.803569580078126,-0.41752807745635506,0.32367841189205643,0.1136383618786931
1733902097269596700,10.8135966796875,-0.14129647639393805,0.38533816473037,0.5089183671697974
1733902097279623400,10.82362353515625,0.16125789892673492,0.32903993892520667,0.5895975855156779
1733902097289650700,10.833650634765625,0.329857977309823,0.16340104843527078,0.3367021441161632
1733902097299677700,10.843677734375,0.2924129205346107,-0.01661561923623085,-0.027857728740572928
1733902097309703700,10.85370361328125,0.0039022681355476378,-0.1250441375121474,-0.40284196497797964
1733902097319730400,10.86373046875,-0.30225860724449155,-0.18303718453645706,-0.6029898587912321
1733902097329757700,10.8737578125,-0.4702472757309675,-0.17189356697052716,-0.602758680383861
1733902097339784700,10.88378466796875,-0.41513212223052975,-0.10761018763035535,-0.3307435279726982
1733902097349811500,10.8938115234375,-0.14003215554654597,-0.10194295564889908,0.08282499820291996
1733902097359837400,10.90383740234375,0.17890227668881414,-0.15629939973652363,0.29510142896622416
1733902097369864400,10.913864501953125,0.36920097666084767,-0.20180998180657625,0.2496829090937972
1733902097379891700,10.9238916015625,0.31391455824673176,-0.2521691729515791,0.05320815083533525
1733902097389918500,10.93391845703125,0.04932371061742306,-0.28340894534587857,-0.2455804422110319
1733902097399944400,10.9439443359375,-0.3135585844159126,-0.2058744547665119,-0.4898775666132569
1733902097409971500,10.953971435546874,-0.5457201576054096,-0.0772132958009839,-0.5973848783910274
1733902097419998700,10.963998779296874,-0.5912772091656923,0.10830138476490973,-0.44844431698471304
1733902097430025500,10.974025390625,-0.36491760025322434,0.28677812951803205,0.0047290743485093115
1733902097440052500,10.984052490234374,-0.012670096480846405,0.38992607704252,0.5628329127088189
1733902097450078500,10.994078369140626,0.3487871341854334,0.3925178471013903,0.7862626056492328
1733902097460105700,11.004105712890626,0.49862932060658927,0.24374738156497477,0.6383911347791552
1733902097470132500,11.014132568359376,0.3493085277110338,0.042355040648579596,0.266958745804429
1733902097480159500,11.024159423828126,0.01720423277914524,-0.08148702759742736,-0.15700491765737531
1733902097490186800,11.034186767578126,-0.3353741103827953,-0.06640840867012739,-0.43909021318405866
1733902097500212700,11.044212646484375,-0.5386579641342163,0.03625146307647228,-0.49482174501717086
1733902097510239500,11.054239501953125,-0.5214437944829463,0.21439999878853558,-0.28313655814528466
1733902097520266500,11.0642666015625,-0.2583931620329618,0.3215878693535924,0.08891951568573712
1733902097530293500,11.07429345703125,0.07704641480147838,0.3841925018265843,0.44458676477372644
1733902097540320500,11.084320556640625,0.33432723167836664,0.2607239430680871,0.47855420856624836
1733902097550346500,11.094346435546875,0.39954233891069885,0.0583276858061552,0.26644904271662234
1733902097560373500,11.10437353515625,0.23417174396812915,-0.12184300338327884,-0.03326923239529132
1733902097570400500,11.114400390625,-0.0775549488455057,-0.20407091247588394,-0.2933081158086657
1733902097580427500,11.124427490234375,-0.32900165274143217,-0.11593377933949231,-0.3847559809282422
1733902097590454500,11.13445458984375,-0.4358838183581829,0.036416005988419056,-0.30280922686457634
1733902097600480500,11.14448046875,-0.39748599090278147,0.20155513026267288,-0.07232143210619688
1733902097610507500,11.154507568359374,-0.2745733124613762,0.3069616703689098,0.19186346507072446
1733902097620534800,11.16453466796875,-0.1149520748257637,0.29742753382623194,0.344101022195816
1733902097630561500,11.1745615234375,0.0710761082202196,0.2753086409986019,0.3554863395631313
1733902097640587500,11.18458740234375,0.14498364047408102,0.18966040206849574,0.22540450014472008
1733902097650614500,11.194614501953126,0.06242226164340973,0.0824175864458084,0.04190642009824514
1733902097660641800,11.204641845703126,-0.09952303502559662,0.021984745053946972,-0.13455810804963111
1733902097670668500,11.21466845703125,-0.3061345718950033,0.022700784368813037,-0.2844493943095207
1733902097680695600,11.224695556640626,-0.44570729323625563,0.0701417499795556,-0.313511238142848
1733902097690721500,11.234721435546875,-0.4568003496587276,0.13583791872709988,-0.2111705153480172
1733902097700748800,11.244748779296875,-0.3321627471208572,0.18676994132399558,0.026119360640645024
1733902097710775600,11.254775634765625,-0.10071253707110882,0.16829232760816812,0.19757365941107272
1733902097720802600,11.264802490234375,0.10227847121357918,0.04455810365080833,0.21561638884097337
1733902097730829600,11.27482958984375,0.19207038581967353,-0.1327104343563318,0.0847203104302287
1733902097740856300,11.284856201171875,0.15177461578845977,-0.225794376245141,-0.10132307018488645
1733902097750883300,11.29488330078125,0.023065233767032622,-0.25147768355607986,-0.3228562818542123
1733902097760910300,11.304910400390625,-0.1566091963380575,-0.15986381421983242,-0.43237727154195305
1733902097770937300,11.314937255859375,-0.28400632671713827,-0.038922435851395126,-0.40531536935418844
1733902097780964400,11.32496435546875,-0.30575755527615545,0.1075105266481638,-0.23620003492534158
1733902097790990300,11.334990234375,-0.20351064824461937,0.23649434169679878,0.03089928839355707
1733902097801017300,11.345017333984375,-0.057469023150205606,0.2473977207660675,0.2897486697614193
1733902097811044400,11.35504443359375,0.08037292887568473,0.13429448867738247,0.32960195672214027
1733902097821071400,11.3650712890625,0.15992051284313202,0.03222732212692499,0.2168541139423847
1733902097831098400,11.375098388671875,0.15024550652503965,-0.06260784734338522,0.05497574502974748
1733902097841124400,11.385124267578124,0.04449965146183967,-0.11666267813593148,-0.13383593125492332
1733902097851151400,11.3951513671875,-0.11294015048146247,-0.07606149541735649,-0.2400602174848318
1733902097861178400,11.405178466796874,-0.22199907561540602,0.0035927637949585913,-0.22119681932181118
1733902097871205400,11.415205322265624,-0.2390232756525278,0.10734598373621701,-0.09651566990315913
1733902097881232400,11.425232421875,-0.20566753401756285,0.15048106884658335,0.07744476646929979
1733902097891258400,11.43525830078125,-0.033632220488786696,0.13560118736177681,0.16287176386415958
1733902097901285400,11.445285400390626,0.2180921313047409,0.028828035077452657,0.1661407025322318
1733902097911312400,11.4553125,0.3694061438441276,-0.17076134807020424,0.031221067693829534
1733902097921339400,11.46533935546875,0.3907867855250835,-0.37593700691759585,-0.24538287381231783
1733902097931365400,11.475365478515625,0.29447336019575593,-0.4088417899146676,-0.4779527355417609
1733902097941392400,11.485392333984375,0.09827800340056418,-0.30371260544508694,-0.527634465816617
1733902097951419400,11.49541943359375,-0.1361702194213867,-0.15303513724356888,-0.4781655015096068
1733902097961446400,11.5054462890625,-0.314881941974163,-0.007126198618113994,-0.3468126192420721
1733902097971473400,11.515473388671875,-0.37659108691215515,0.1324421388089657,-0.12405278838723897
1733902097981499400,11.52549951171875,-0.3132324212014675,0.1818979513734579,0.13000848192125558
1733902097991526400,11.5355263671875,-0.17042320215702056,0.14825316366404295,0.23451807318776843
1733902098001553400,11.545553466796875,0.016306991678476334,0.07677695021033287,0.2299097026094794
1733902098011580400,11.555580322265625,0.09683715694248676,-0.045705227859318256,0.15798866799771785
1733902098021607400,11.565607421875,0.09531330837607384,-0.13005612045526505,0.02241349186003208
1733902098031633400,11.57563330078125,0.002687047126889229,-0.13814385758191347,-0.14814531937539577
1733902098041660400,11.585660400390625,-0.1740595128327608,-0.09293518106788397,-0.2600163793206215
1733902098051687400,11.5956875,-0.2998515461027622,-0.02166238123178482,-0.26735300581902266
1733902098061714400,11.60571435546875,-0.33630934540629387,0.027573358841240403,-0.20906126810908315
1733902098071741400,11.615741455078124,-0.2530816116213798,0.08726619552075862,-0.1431160930365324
1733902098081767400,11.625767333984374,-0.11321312220394611,0.10918255151361227,-0.055551791352033614
1733902098091794200,11.635794189453126,0.02969020486474037,0.05056932676434517,0.04421440477967262
1733902098101821400,11.645821533203126,0.10784662673473358,-0.03760258542448282,0.07727963903546332
1733902098111848400,11.655848388671876,0.11368249328136443,-0.09659428809732198,0.040405367885529994
1733902098121875200,11.665875244140626,0.0823871913075447,-0.09229162246733903,0.005194061511754989
1733902098131901200,11.675901123046875,-0.017254501661658286,-0.04981880065798759,-0.030632746411859986
1733902098141928400,11.685928466796875,-0.13421207109093666,0.043967444281280035,-0.05996171674877405
1733902098151955500,11.69595556640625,-0.2130371860027313,0.18642419662624596,-0.08337094164788722
1733902098161982200,11.705982177734375,-0.2135942353636026,0.3085392949491739,0.003975625632703304
1733902098172009500,11.716009521484375,-0.12192425192594528,0.32263328675329683,0.12140928814113139
1733902098182035500,11.726035400390625,0.012409399718046188,0.22307547267526387,0.13685586359798907
1733902098192062500,11.7360625,0.1537725116074085,0.13931991562396287,0.041914603404700754
1733902098202089200,11.746089111328125,0.24470190581083295,0.05737403834313154,-0.0877095553740859
1733902098212116500,11.756116455078125,0.24922902784645556,0.008121347135305405,-0.1731432747706771
1733902098222143500,11.7661435546875,0.10410042594373226,-0.0012900398105382919,-0.20991320876330136
1733902098232169500,11.77616943359375,-0.0909966142207384,0.08357347848266362,-0.2530357266530394
1733902098242196200,11.7861962890625,-0.2609527833878994,0.24407383704036473,-0.24634002840667962
1733902098252223200,11.79622314453125,-0.34938802268803115,0.34876813722401856,-0.11424158846884966
1733902098262250500,11.80625048828125,-0.3625093700677156,0.34864158823490143,0.04834843584448099
1733902098272277200,11.81627734375,-0.259679694712162,0.27993922340869903,0.11523322985470294
1733902098282303200,11.82630322265625,-0.04910802204012871,0.17203443674594163,0.11429565674364565
1733902098292330200,11.836330322265624,0.15327742156684399,0.015418518406152725,0.05618950473368167
1733902098302357500,11.846357421875,0.2592868960022926,-0.12010332010909915,-0.07890753249824047
1733902098312384300,11.85638427734375,0.16670096676349638,-0.20117665233910081,-0.187041451741755
1733902098322411300,11.866411376953126,-0.06201075823307037,-0.18398820165097712,-0.22845248953849076
1733902098332437200,11.876437255859376,-0.2809089452236891,-0.1026911436676979,-0.21143238115459678
1733902098342464500,11.886464599609376,-0.3981646208167076,-0.0209236916936934,-0.15904840618371963
1733902098352491300,11.8964912109375,-0.392091438382864,0.024116642516106367,-0.02487842066884041
1733902098362518300,11.906518310546875,-0.28244857588112354,0.02115355492681265,0.08373100713193415
1733902098372545500,11.916545654296876,-0.12361644279658794,-0.015277648630738258,0.09437193587273358
1733902098382571500,11.926571533203125,0.05337620087862015,-0.07066270511373877,0.05250935491621494
1733902098392598300,11.936598388671875,0.17535539786219595,-0.12351941216289997,-0.020332009410858155
1733902098402625300,11.946625244140625,0.18704525113403797,-0.1104236376158893,-0.08397884441316127
1733902098412652300,11.95665234375,0.10711948150396347,-0.07055003851950169,-0.09608224692195654
1733902098422679600,11.966679443359375,-0.033006197544932364,-0.03460691073983908,-0.08823620959669351
1733902098432705300,11.976705322265625,-0.1387234110355377,0.007264584175497293,-0.07644611082077025
1733902098442732300,11.986732177734375,-0.24861469534039496,0.07633008322566748,-0.058658817456662654
1733902098452759300,11.99675927734375,-0.31467619026899335,0.16062456945925951,-0.005108721315860748
1733902098462786600,12.00678662109375,-0.2901367922961712,0.20564926770851014,0.14733429525345562
1733902098472813300,12.016813232421875,-0.19464520474374294,0.20425372169688344,0.28420652546435593
1733902098482839300,12.02683935546875,-0.03505027059316635,0.15806787071377038,0.29249942977428434
1733902098492866300,12.0368662109375,0.10796703824400901,0.09070435327589511,0.19209230539053676
1733902098502893600,12.0468935546875,0.19324176768660545,-0.02493541155308485,0.03090191874206066
1733902098512920300,12.05692041015625,0.17596914584636686,-0.13895137457251547,-0.1522811040058732
1733902098522947300,12.066947265625,0.04803250176310539,-0.2100700067602098,-0.3304723098158836
1733902098532973300,12.076973388671876,-0.10912906776070594,-0.2113392960436642,-0.42028585173189636
1733902098543000600,12.08700048828125,-0.20324878243803976,-0.1864677435070276,-0.449904744926095
1733902098553027300,12.09702734375,-0.26097031904459,-0.13492781814485788,-0.3779591603949666
1733902098563054300,12.107054443359376,-0.28894436764121056,-0.10558905706629157,-0.27311785295605656
1733902098573081300,12.117081298828126,-0.23392566025257108,-0.09517068503499031,-0.1395785665601492
1733902098583107600,12.127107666015625,-0.06193009421229362,-0.15642244159430266,-0.044966099929809565
1733902098593134300,12.13713427734375,0.13303484400510787,-0.18328019951209426,-0.0022784663259983063
1733902098603161300,12.147161376953125,0.2693056011915207,-0.13237491879165172,-0.013856091395020484
1733902098613188400,12.157188232421875,0.3040121729135513,-0.048152036489546295,-0.016208792001008988
1733902098623215400,12.16721533203125,0.18926935692429542,0.07686039071008563,0.010711071367561817
1733902098633241300,12.177241455078125,-0.03133680302798748,0.17763386418819427,0.011002163268625735
1733902098643268400,12.187268310546875,-0.2176560779750347,0.18791355840116739,-0.024914368765056132
1733902098653295400,12.19729541015625,-0.31953356717228887,0.19387962719872592,-0.038647126041352745
1733902098663322400,12.207322265625,-0.3316822701275349,0.19895356946215031,-0.03985211791694164
1733902098673348400,12.217348388671875,-0.30524317601323125,0.17234072621613739,-0.032137305755913254
1733902098683375400,12.227375244140624,-0.2217956619977951,0.15900427478104828,-0.03964022873193025
1733902098693402400,12.23740234375,-0.1316354986011982,0.14180851756930352,-0.049645782178640366
1733902098703429400,12.247429443359374,-0.07600538131594657,0.14806202500611543,-0.10365940417796372
1733902098713456400,12.257456298828124,-0.05198036260604858,0.18605097939968107,-0.157973470428586
1733902098723483400,12.2674833984375,-0.05802139633595943,0.19223726681917905,-0.16534516824036835
