time,seconds_elapsed,z,y,x
1733902086480766000,0.024765869140625,-0.17129169404506683,-0.10948661714792252,0.17369209229946136
1733902086490793000,0.03479296875,-0.18967075645923615,-0.2693960666656494,0.17761966586112976
1733902086500819000,0.04481884765625,-0.19466736912727356,-0.4218628406524658,0.18738335371017456
1733902086510846000,0.054845947265625,-0.18209905922412872,-0.4964810311794281,0.2108871191740036
1733902086520873000,0.064873046875,-0.15761075913906097,-0.5314614176750183,0.23447740077972412
1733902086530900000,0.07489990234375,-0.139031782746315,-0.5822440385818481,0.25463271141052246
1733902086540927000,0.084927001953125,-0.13862457871437073,-0.6358119249343872,0.2598136365413666
1733902086550953000,0.094952880859375,-0.17017412185668945,-0.7197468280792236,0.2798748314380646
1733902086560980000,0.10497998046875,-0.2464025765657425,-0.8244466185569763,0.291317343711853
1733902086571007000,0.115007080078125,-0.3326874375343323,-0.9115622043609619,0.2528668940067291
1733902086581034000,0.125033935546875,-0.39135900139808655,-1.0024425983428955,0.177526593208313
1733902086591061000,0.13506103515625,-0.42656078934669495,-1.0956438779830933,0.09385233372449875
1733902086601087000,0.1450869140625,-0.45790085196495056,-1.2004663944244385,0.03638424724340439
1733902086611114000,0.155114013671875,-0.4722016751766205,-1.2965463399887085,0.0234773438423872
1733902086621141000,0.16514111328125,-0.46660104393959045,-1.3331834077835083,0.01866740733385086
1733902086631168000,0.17516796875,-0.4338372051715851,-1.4285128116607666,0.04392749071121216
1733902086641194000,0.185194091796875,-0.3807002305984497,-1.5427157878875732,0.07818559557199478
1733902086651221000,0.195220947265625,-0.31528323888778687,-1.6061843633651733,0.09085123986005783
1733902086661248000,0.205248046875,-0.26034221053123474,-1.595212697982788,0.03698881343007088
1733902086671275000,0.21527490234375,-0.2364976555109024,-1.513191819190979,-0.10051397979259491
1733902086681302000,0.225302001953125,-0.2345128059387207,-1.3887457847595215,-0.259151816368103
1733902086691328000,0.235327880859375,-0.20821377635002136,-1.3056999444961548,-0.41484975814819336
1733902086701355000,0.24535498046875,-0.15971441566944122,-1.3257224559783936,-0.5230563879013062
1733902086711382000,0.255382080078125,-0.14182420074939728,-1.3512400388717651,-0.6158146262168884
1733902086721409000,0.265408935546875,-0.12963758409023285,-1.3659303188323975,-0.6595429182052612
1733902086731435500,0.275435546875,-0.1318175196647644,-1.3430685997009277,-0.6634406447410583
1733902086741461500,0.28546142578125,-0.1467948704957962,-1.3364660739898682,-0.6482962965965271
1733902086751488800,0.29548876953125,-0.16556298732757568,-1.3532546758651733,-0.6069422364234924
1733902086761515500,0.305515625,-0.18181119859218597,-1.3557426929473877,-0.5523557066917419
1733902086771542500,0.31554248046875,-0.19134320318698883,-1.3614978790283203,-0.48807793855667114
1733902086781568500,0.325568603515625,-0.1977800726890564,-1.3425068855285645,-0.42593997716903687
1733902086791595800,0.335595703125,-0.2079945057630539,-1.27354896068573,-0.38064292073249817
1733902086801622500,0.34562255859375,-0.19472743570804596,-1.3001419305801392,-0.35150793194770813
1733902086811649500,0.3556494140625,-0.1712072640657425,-1.321124792098999,-0.3208688795566559
1733902086821676500,0.365676513671875,-0.15214355289936066,-1.2144399881362915,-0.29780513048171997
1733902086831702500,0.37570263671875,-0.10666858404874802,-1.0742939710617065,-0.2799229323863983
1733902086841729500,0.3857294921875,-0.04520575702190399,-1.0421967506408691,-0.2959138751029968
1733902086851756500,0.395756591796875,0.01677659898996353,-1.072365403175354,-0.336427241563797
1733902086861783600,0.405783447265625,0.05345818027853966,-1.0632025003433228,-0.3968466520309448
1733902086871810600,0.415810546875,0.04918178170919418,-1.0162012577056885,-0.47932490706443787
1733902086881836500,0.42583642578125,0.07054778933525085,-0.9593756794929504,-0.53090900182724
1733902086891863600,0.435863525390625,0.0945659875869751,-0.8646144866943359,-0.5524673461914062
1733902086901890600,0.445890625,0.1314409077167511,-0.8294759392738342,-0.5243329405784607
1733902086911917600,0.45591748046875,0.22180551290512085,-0.8885349631309509,-0.45114970207214355
1733902086921944600,0.465944580078125,0.3291458189487457,-0.9513033032417297,-0.3495461046695709
1733902086931970600,0.475970458984375,0.3383258283138275,-0.9954333901405334,-0.31085771322250366
1733902086941997600,0.48599755859375,0.17310811579227448,-1.039480209350586,-0.33944594860076904
1733902086952024600,0.496024658203125,0.08978971093893051,-1.234873652458191,-0.2817840874195099
1733902086962051600,0.506051513671875,0.13614442944526672,-1.263936996459961,-0.16265396773815155
1733902086972077600,0.51607763671875,0.16018830239772797,-1.1482510566711426,-0.10347820818424225
1733902086982104600,0.5261044921875,0.11983395367860794,-0.9772657155990601,-0.1453169882297516
1733902086992131600,0.536131591796875,0.28919652104377747,-0.982133686542511,-0.06707367300987244
1733902087002158600,0.54615869140625,0.3814904987812042,-0.9323557615280151,-0.03310691937804222
1733902087012185600,0.556185546875,0.35527828335762024,-1.035062313079834,-0.06650301814079285
1733902087022211600,0.566211669921875,0.18613533675670624,-1.1384174823760986,-0.16651003062725067
1733902087032238600,0.576238525390625,0.22290711104869843,-1.4290741682052612,-0.1195724606513977
1733902087042265600,0.586265625,0.29764312505722046,-1.6988108158111572,-0.12341966480016708
1733902087052292600,0.596292724609375,0.3803786635398865,-2.0739121437072754,-0.19733580946922302
1733902087062319600,0.606319580078125,0.4064517915248871,-2.380133628845215,-0.22842954099178314
1733902087072345600,0.616345703125,0.38190433382987976,-2.4522993564605713,-0.18280857801437378
1733902087082372600,0.62637255859375,0.4136667847633362,-2.290364980697632,-0.08938595652580261
1733902087092399600,0.636399658203125,0.5192059874534607,-2.0383076667785645,0.017463261261582375
1733902087102426600,0.646426513671875,0.6203539371490479,-1.955551266670227,0.1284632831811905
1733902087112452600,0.65645263671875,0.8088934421539307,-2.072192668914795,-0.026647794991731644
1733902087122479600,0.666479736328125,1.0210293531417847,-2.177325963973999,-0.0380365364253521
1733902087132506600,0.676506591796875,1.2722073793411255,-2.423309087753296,0.019933369010686874
1733902087142533600,0.68653369140625,1.4541728496551514,-2.784550905227661,0.07527145743370056
1733902087152560400,0.696560302734375,1.5879263877868652,-3.011068344116211,0.1250576674938202
1733902087162586600,0.706586669921875,1.711809754371643,-2.979478359222412,0.21977750957012177
1733902087172613600,0.716613525390625,1.810691237449646,-2.795701503753662,0.36027035117149353
1733902087182640600,0.726640625,1.897077202796936,-2.6734514236450195,0.507527232170105
1733902087192667400,0.73666748046875,1.9385650157928467,-2.4516584873199463,0.6245099902153015
1733902087202694700,0.746694580078125,1.9575754404067993,-2.1711764335632324,0.7093032002449036
1733902087212720600,0.756720703125,1.9922996759414673,-1.9343723058700562,0.7831438779830933
1733902087222747600,0.76674755859375,2.063810348510742,-1.7083138227462769,0.8352997303009033
1733902087232774400,0.7767744140625,2.1433613300323486,-1.4307432174682617,0.8438090085983276
1733902087242801700,0.7868017578125,2.242574691772461,-1.2452585697174072,0.8405072093009949
1733902087252828700,0.79682861328125,2.3583993911743164,-1.1289596557617188,0.8615498542785645
1733902087262854700,0.806854736328125,2.434798002243042,-0.8935255408287048,0.8967664241790771
1733902087272881400,0.81688134765625,2.4353532791137695,-0.733885645866394,0.9735580086708069
1733902087282908700,0.82690869140625,2.3700194358825684,-0.669934093952179,1.1109392642974854
1733902087292935700,0.836935791015625,2.298419952392578,-0.6378993391990662,1.3521226644515991
1733902087302962400,0.84696240234375,2.2411365509033203,-0.6375706791877747,1.7212309837341309
1733902087312988400,0.856988525390625,2.142871379852295,-0.6244324445724487,2.153085947036743
1733902087323015700,0.867015625,1.971706509590149,-0.682689905166626,2.55444073677063
1733902087333042700,0.877042724609375,1.7496734857559204,-0.9505029916763306,2.892106056213379
1733902087343069400,0.8870693359375,1.4525805711746216,-1.332780361175537,3.1615567207336426
1733902087353095400,0.897095458984375,1.04605233669281,-1.6597859859466553,3.3544766902923584
1733902087363122400,0.907122314453125,0.5926110744476318,-1.949662208557129,3.5017945766448975
1733902087373149700,0.917149658203125,0.2637806534767151,-2.1208884716033936,3.7136404514312744
1733902087383176400,0.927176513671875,0.511849045753479,-1.9743034839630127,4.118780612945557
1733902087393203500,0.937203369140625,0.739610493183136,-1.483957052230835,4.486090183258057
1733902087403229400,0.9472294921875,0.9454033374786377,-1.0226682424545288,4.772919654846191
1733902087413256700,0.957256591796875,0.9772403240203857,-0.7895223498344421,4.818127155303955
1733902087423283500,0.967283447265625,0.8771917819976807,-0.790513813495636,4.539391040802002
1733902087433310500,0.977310546875,0.7099844813346863,-0.9587037563323975,4.021711826324463
1733902087443337700,0.987337646484375,0.5338616371154785,-1.1577730178833008,3.392188549041748
1733902087453363700,0.99736376953125,0.37866583466529846,-1.3818347454071045,2.7260215282440186
1733902087463390500,1.007390380859375,0.040889933705329895,-1.460726261138916,2.236684560775757
1733902087473417500,1.01741748046875,-0.5087192058563232,-1.6085047721862793,2.05928373336792
1733902087483444700,1.02744482421875,-1.207092523574829,-1.6453989744186401,2.175682783126831
1733902087493470700,1.037470703125,-1.8683652877807617,-1.7220855951309204,2.3307676315307617
1733902087503497700,1.047497802734375,-2.026106119155884,-1.8298218250274658,2.232074737548828
1733902087513524500,1.0575244140625,-1.9951965808868408,-1.578284502029419,1.9566878080368042
1733902087523551500,1.067551513671875,-1.9393013715744019,-1.3273603916168213,1.6448323726654053
1733902087533578800,1.077578857421875,-1.8023101091384888,-1.253366231918335,1.3854337930679321
1733902087543604700,1.087604736328125,-1.645034670829773,-1.373976707458496,1.2703511714935303
1733902087553631500,1.097631591796875,-1.5456572771072388,-1.3373523950576782,1.3313697576522827
1733902087563658500,1.107658447265625,-1.386732816696167,-0.948519766330719,1.515889286994934
1733902087573685800,1.117685791015625,-1.0479782819747925,-0.6314239501953125,1.810520887374878
1733902087583712500,1.12771240234375,-0.630567729473114,-0.38476118445396423,2.2030773162841797
1733902087593738500,1.137738525390625,-0.24271388351917267,-0.16132375597953796,2.6250083446502686
1733902087603765500,1.147765625,0.0522405281662941,-0.10550469905138016,2.9518282413482666
1733902087613792800,1.157792724609375,0.16100932657718658,-0.18867865204811096,3.164421319961548
1733902087623819500,1.167819580078125,0.034514497965574265,-0.3114791512489319,3.302870512008667
1733902087633845500,1.177845458984375,-0.13596689701080322,-0.5984113216400146,3.407467842102051
1733902087643872500,1.18787255859375,-0.1622275412082672,-1.050784707069397,3.2152562141418457
1733902087653899800,1.197899658203125,-0.38152286410331726,-1.2665022611618042,2.8754091262817383
1733902087663926500,1.207926513671875,-0.7756760120391846,-1.0653971433639526,2.699204206466675
1733902087673953500,1.21795361328125,-0.6948025822639465,-0.381791889667511,2.8610222339630127
1733902087683979500,1.2279794921875,-0.4446668326854706,0.10691065341234207,2.9983816146850586
1733902087694006800,1.2380068359375,-0.1018097847700119,0.26215723156929016,2.795994281768799
1733902087704033500,1.248033447265625,-0.19862687587738037,0.08810633420944214,2.522918462753296
1733902087714060500,1.258060546875,-0.6832621097564697,0.18194840848445892,2.3830339908599854
1733902087724086500,1.26808642578125,-1.0263835191726685,0.20458340644836426,2.467167854309082
1733902087734114000,1.278114013671875,-1.2259695529937744,0.0891895443201065,2.748950242996216
1733902087744141000,1.28814111328125,-1.5969632863998413,0.13561536371707916,3.1574339866638184
1733902087754168000,1.29816796875,-2.027588367462158,0.4174540042877197,3.565650701522827
1733902087764195000,1.308195068359375,-2.2189955711364746,0.38464200496673584,3.8944132328033447
1733902087774221000,1.318220947265625,-2.229658603668213,0.202321857213974,4.174409866333008
1733902087784248000,1.328248046875,-2.0395658016204834,0.10319820046424866,4.311952590942383
1733902087794275000,1.338275146484375,-1.750292420387268,0.18498843908309937,4.159276485443115
1733902087804302000,1.348302001953125,-1.4991531372070312,0.14417202770709991,3.7468631267547607
1733902087814328800,1.358328857421875,-1.25630784034729,0.2692423462867737,3.3724937438964844
1733902087824354800,1.368354736328125,-0.9144648313522339,0.4700518846511841,3.0829830169677734
1733902087834382000,1.378382080078125,-0.4302591383457184,0.4766222834587097,2.752978801727295
1733902087844409000,1.3884091796875,0.02699975110590458,0.022424183785915375,2.452399492263794
1733902087854435800,1.398435791015625,0.371307373046875,-0.35813453793525696,2.18511700630188
1733902087864461800,1.4084619140625,0.45918476581573486,-0.6596645712852478,2.0682835578918457
1733902087874489000,1.418489013671875,0.2068469375371933,-0.9985406994819641,2.194039821624756
1733902087884516000,1.42851611328125,-0.6396494507789612,-1.6214183568954468,2.838737726211548
1733902087894542800,1.43854296875,-1.8130488395690918,-1.5612233877182007,4.107558727264404
1733902087904570000,1.448570068359375,-1.7567517757415771,-1.2093684673309326,4.925489902496338
1733902087914596000,1.45859619140625,-0.9043930172920227,-1.4638885259628296,5.2877607345581055
1733902087924623000,1.468623046875,0.22700007259845734,-1.2884567975997925,5.252431392669678
1733902087934649900,1.47864990234375,1.1689091920852661,-1.6340148448944092,4.970264911651611
1733902087944676900,1.4886767578125,1.6843091249465942,-1.74663507938385,4.089972019195557
1733902087954704100,1.4987041015625,1.7705864906311035,-1.6085753440856934,2.695417642593384
1733902087964730000,1.508730224609375,1.4338867664337158,-1.3494186401367188,1.019580602645874
1733902087974756900,1.5187568359375,0.7463613748550415,-1.1128194332122803,-0.6492620706558228
1733902087984784000,1.528783935546875,-0.0718219205737114,-0.9154244065284729,-1.8476169109344482
1733902087994811100,1.53881103515625,-0.760215699672699,-0.6260572671890259,-2.452106237411499
1733902088004837000,1.548837158203125,-1.200670599937439,-0.1790398508310318,-2.5839881896972656
1733902088014864000,1.55886376953125,-1.4512332677841187,0.3306046724319458,-2.3546855449676514
1733902088024891000,1.568890869140625,-1.6340341567993164,0.8086199760437012,-2.0082972049713135
1733902088034918100,1.578918212890625,-1.7790532112121582,1.27183997631073,-1.7517865896224976
1733902088044945000,1.58894482421875,-1.9432957172393799,1.6721453666687012,-1.7021404504776
1733902088054971000,1.598970947265625,-2.246217727661133,2.271392345428467,-1.7333515882492065
1733902088064998000,1.608997802734375,-2.5749807357788086,3.3064956665039062,-1.6546865701675415
1733902088075025200,1.619025146484375,-2.79349422454834,4.437742233276367,-1.5720188617706299
1733902088085052000,1.629052001953125,-2.79020619392395,5.170750141143799,-1.635146141052246
1733902088095079000,1.639078857421875,-2.4836783409118652,4.330644130706787,-1.8256701231002808
1733902088105105000,1.64910498046875,-1.901002049446106,3.122621536254883,-2.0259485244750977
1733902088115132200,1.659132080078125,-1.13386869430542,2.3201427459716797,-1.976131558418274
1733902088125159000,1.669158935546875,-0.49448826909065247,1.7101742029190063,-1.6296435594558716
1733902088135186000,1.67918603515625,-0.2657044231891632,1.303542971611023,-1.0909610986709595
1733902088145213000,1.689212890625,-0.48686131834983826,2.079350709915161,-0.24376876652240753
1733902088155239200,1.6992392578125,-0.7600347995758057,2.4778265953063965,0.4107435643672943
1733902088165266000,1.709265869140625,-1.238573431968689,2.655001401901245,1.2716577053070068
1733902088175293000,1.71929296875,-1.4701998233795166,1.7694017887115479,1.9637352228164673
1733902088185320000,1.72931982421875,-1.578808069229126,1.5273728370666504,2.263475179672241
1733902088195347000,1.739346923828125,-1.5352596044540405,2.479945659637451,2.239114284515381
1733902088205373000,1.749373046875,-1.1074069738388062,2.2976129055023193,1.7168474197387695
1733902088215400000,1.75939990234375,-0.45234477519989014,1.6873811483383179,0.6721358299255371
1733902088225427000,1.769427001953125,0.002021673135459423,1.43973708152771,-0.25878673791885376
1733902088235454200,1.7794541015625,0.1796487420797348,1.3144510984420776,-0.9583923816680908
1733902088245481000,1.78948095703125,0.5033668875694275,1.2029707431793213,-1.50449800491333
1733902088255507000,1.7995068359375,0.9780912399291992,1.08818519115448,-1.7760783433914185
1733902088265534000,1.809533935546875,1.2129464149475098,0.8553417921066284,-1.9019768238067627
1733902088275561200,1.819561279296875,1.1206387281417847,0.5540518760681152,-2.0444014072418213
1733902088285588000,1.829587890625,0.8374070525169373,0.22582954168319702,-2.2455906867980957
1733902088295615000,1.839614990234375,0.7114772796630859,-0.6720326542854309,-2.476814031600952
1733902088305641000,1.849640869140625,0.5748185515403748,-0.5604389905929565,-2.5709891319274902
1733902088315668200,1.859668212890625,0.2951471209526062,0.04003215953707695,-2.5628695487976074
1733902088325695000,1.869695068359375,0.010198721662163734,0.5009550452232361,-2.371169328689575
1733902088335722000,1.879721923828125,-0.23644527792930603,0.5599153637886047,-2.0439023971557617
1733902088345749000,1.8897490234375,-0.7678734660148621,0.5335566997528076,-1.53468918800354
1733902088355775000,1.89977490234375,-0.8833152055740356,0.3332071006298065,-0.860571563243866
1733902088365802000,1.909802001953125,-0.4744345247745514,1.6008694171905518,-0.9063230752944946
1733902088375829000,1.9198291015625,-0.15604592859745026,1.6934289932250977,-1.1351150274276733
1733902088385856000,1.92985595703125,0.07273823767900467,1.5577393770217896,-1.2161208391189575
1733902088395883000,1.939883056640625,0.3141070008277893,0.843013346195221,-1.2709380388259888
1733902088405910000,1.949909912109375,0.5961608290672302,0.19548727571964264,-1.0276329517364502
1733902088415936000,1.95993603515625,0.9019392132759094,0.13278520107269287,-0.4018858075141907
1733902088425963000,1.969962890625,1.127989649772644,-0.11928858608007431,0.21981662511825562
1733902088435990000,1.979989990234375,1.2643115520477295,-0.02748578041791916,0.5733759999275208
1733902088446017000,1.99001708984375,1.6808542013168335,0.400100439786911,0.28606805205345154
1733902088456044000,2.0000439453125,1.919946551322937,0.861946165561676,-0.060014087706804276
1733902088466070000,2.010070068359375,1.4330363273620605,1.4893571138381958,0.08385759592056274
1733902088476097000,2.020096923828125,1.2976137399673462,1.867756724357605,0.030986178666353226
1733902088486124000,2.0301240234375,0.8954452872276306,1.7727487087249756,0.10982213914394379
1733902088496151000,2.040151123046875,0.6576319932937622,1.497514247894287,0.6192539930343628
1733902088506177800,2.050177734375,0.3280075192451477,2.2496299743652344,1.1441305875778198
1733902088516203800,2.060203857421875,0.20202486217021942,3.719650983810425,1.1021839380264282
1733902088526231000,2.07023095703125,0.27206704020500183,3.1897075176239014,1.105992317199707
1733902088536258000,2.080258056640625,0.3803658187389374,2.7033534049987793,1.0299313068389893
1733902088546284800,2.090284912109375,0.17437615990638733,2.3461780548095703,0.7458173036575317
1733902088556312000,2.10031201171875,-0.2961388826370239,1.7511823177337646,0.6170958280563354
1733902088566338000,2.110338134765625,-0.44438615441322327,1.2944481372833252,0.6406328082084656
1733902088576365000,2.120364990234375,-0.5233937501907349,0.796496570110321,0.7144507169723511
1733902088586391800,2.130391845703125,-0.702556848526001,0.649462103843689,0.7613042593002319
1733902088596419000,2.140419189453125,-0.7442470788955688,0.8842380046844482,0.6897623538970947
1733902088606446000,2.150446044921875,-1.2652143239974976,1.0734628438949585,0.7963055968284607
1733902088616472800,2.160472900390625,-1.7152179479599,1.7027051448822021,0.6221681833267212
1733902088626498800,2.170498779296875,-2.1856353282928467,1.8478721380233765,0.49767014384269714
1733902088636526000,2.180526123046875,-2.2227845191955566,2.2539734840393066,0.48365089297294617
1733902088646553000,2.190552978515625,-1.8375147581100464,1.8183491230010986,-0.0007512213196605444
1733902088656580000,2.200580078125,-1.3185621500015259,1.0386608839035034,-0.3161722421646118
1733902088666606800,2.21060693359375,-0.6166080236434937,0.8304536938667297,-0.22456778585910797
1733902088676632800,2.2206328125,-0.2794452905654907,2.6832475662231445,0.03397709131240845
1733902088686660000,2.23066015625,0.0006545411888509989,3.34562611579895,0.5179845094680786
1733902088696687000,2.24068701171875,0.4770788252353668,1.3444392681121826,1.5671296119689941
1733902088706713900,2.2507138671875,0.09196949005126953,-7.26552677154541,3.3403139114379883
1733902088716741000,2.2607412109375,-0.2743275761604309,-14.263110160827637,4.029358386993408
1733902088726767000,2.27076708984375,-1.2415379285812378,-16.738786697387695,4.19167423248291
1733902088736794400,2.28079443359375,-2.4411258697509766,-14.364105224609375,3.37868595123291
1733902088746821600,2.290821533203125,-3.259908437728882,-9.59985637664795,1.872320294380188
1733902088756848600,2.3008486328125,-3.275690793991089,-5.4844255447387695,0.5013066530227661
1733902088766875400,2.31087548828125,-3.0939159393310547,-4.024575710296631,-0.11248648911714554
1733902088776901400,2.3209013671875,-2.7715890407562256,-4.300676345825195,-0.4905896484851837
1733902088786928600,2.3309287109375,-2.657557964324951,-5.778857707977295,-0.7973299026489258
1733902088796955600,2.34095556640625,-2.520455837249756,-7.31699800491333,-0.9945902824401855
1733902088806982400,2.350982421875,-2.0413968563079834,-7.820288181304932,-1.0804665088653564
1733902088817009700,2.361009765625,-1.4123635292053223,-7.401218414306641,-0.8276148438453674
1733902088827036700,2.37103662109375,-1.048982858657837,-6.417873382568359,-0.4518369436264038
1733902088837062700,2.381062744140625,-0.8769000768661499,-5.801194190979004,0.041738975793123245
1733902088847089400,2.39108935546875,-0.6271573901176453,-5.213099956512451,0.5888625383377075
1733902088857116400,2.401116455078125,-0.1837558001279831,-4.2291998863220215,1.1019810438156128
1733902088867143700,2.411143798828125,0.24140746891498566,-3.368134021759033,1.6588568687438965
1733902088877170700,2.421170654296875,0.43784791231155396,-2.9834601879119873,2.181405544281006
1733902088887196400,2.431196533203125,0.5316189527511597,-2.9088692665100098,2.402385711669922
1733902088897223400,2.441223388671875,0.6659834980964661,-2.930555820465088,2.3088810443878174
1733902088907250700,2.451250732421875,0.6822950839996338,-2.8372855186462402,2.202812910079956
1733902088917277700,2.461277587890625,0.5450389385223389,-2.297457456588745,2.1076552867889404
1733902088927304400,2.471304443359375,0.33169153332710266,-1.577293038368225,1.831650972366333
1733902088937330400,2.481330322265625,0.2380158007144928,-0.9380597472190857,1.4191747903823853
1733902088947357700,2.491357666015625,0.2900283932685852,-0.36993128061294556,1.0746411085128784
1733902088957384700,2.501384765625,0.42467185854911804,-0.23433145880699158,0.824239194393158
1733902088967411500,2.511411376953125,0.6456239223480225,-0.7482062578201294,0.791449248790741
1733902088977438700,2.521438720703125,0.8482533097267151,-1.4715502262115479,0.9727286696434021
1733902088987464700,2.531464599609375,1.033780813217163,-1.9140735864639282,1.1715192794799805
1733902088997491700,2.54149169921875,1.256055474281311,-1.8550785779953003,1.2581831216812134
1733902089007518500,2.5515185546875,1.7397481203079224,-1.3363906145095825,1.289603590965271
1733902089017545500,2.56154541015625,2.264310598373413,-0.7951599955558777,0.9836713671684265
1733902089027572700,2.57157275390625,2.6787827014923096,-0.4916784465312958,0.8710047602653503
1733902089037599500,2.581599609375,2.7786431312561035,-0.8080958724021912,0.8095864057540894
1733902089047625500,2.59162548828125,2.525491714477539,-1.1066447496414185,0.603169858455658
1733902089057652500,2.601652587890625,2.1979548931121826,-0.9125716686248779,0.17438915371894836
1733902089067679700,2.6116796875,1.903929352760315,-1.1271520853042603,-0.3677569329738617
1733902089077706500,2.62170654296875,1.4452037811279297,-1.2518912553787231,-0.8937541842460632
1733902089087733500,2.6317333984375,1.0172133445739746,-0.5886920094490051,-0.975287139415741
1733902089097759500,2.641759521484375,0.867966890335083,0.027650950476527214,-0.6439406275749207
1733902089107786800,2.651786865234375,0.760826826095581,0.04724542424082756,-0.0015033390372991562
1733902089117813500,2.6618134765625,0.5502861142158508,-0.01868915557861328,0.5410944819450378
1733902089127840500,2.671840576171875,0.5722070932388306,-0.02709968574345112,0.6252104043960571
1733902089137867800,2.68186767578125,0.48169413208961487,-0.07982149720191956,0.5034723281860352
1733902089147893800,2.691893798828125,0.32292819023132324,-0.07675353437662125,0.2121289074420929
1733902089157920500,2.70192041015625,0.1627487689256668,-0.08191666007041931,-0.03553002327680588
1733902089167947500,2.711947509765625,0.07265961915254593,0.11284856498241425,-0.10952489078044891
1733902089177974500,2.721974609375,-0.09027539938688278,0.3483043909072876,0.04472953826189041
1733902089188001500,2.73200146484375,-0.3552098274230957,0.5720325112342834,0.5909095406532288
1733902089198027500,2.742027587890625,-0.5117886662483215,0.9733795523643494,0.9323295950889587
1733902089208054500,2.752054443359375,-0.4020616114139557,1.3218512535095215,0.7816215753555298
1733902089218081500,2.76208154296875,-0.1721070110797882,1.3842500448226929,0.6988254189491272
1733902089228108500,2.772108642578125,-0.04081689193844795,1.3741742372512817,0.44384562969207764
1733902089238135600,2.782135498046875,0.058728333562612534,1.2734297513961792,0.09168142825365067
1733902089248162600,2.79216259765625,0.24855712056159973,0.8890804052352905,-0.17156164348125458
1733902089258188500,2.8021884765625,0.41585132479667664,0.41227710247039795,-0.3053026795387268
1733902089268215600,2.812215576171875,0.5887495875358582,0.15412037074565887,-0.3754271864891052
1733902089278242600,2.82224267578125,0.7867348790168762,0.1097579225897789,-0.3703492283821106
1733902089288269600,2.83226953125,0.9428781867027283,0.09056798368692398,-0.34490326046943665
1733902089298296600,2.842296630859375,1.0125832557678223,0.0487772598862648,-0.39560744166374207
1733902089308322600,2.852322509765625,0.9603381752967834,-0.009928397834300995,-0.5022281408309937
1733902089318349600,2.862349609375,0.8343576788902283,-0.18827879428863525,-0.7010059356689453
1733902089328376600,2.87237646484375,0.5763117671012878,-0.40271225571632385,-0.825509250164032
1733902089338403600,2.882403564453125,0.27729183435440063,-0.39734092354774475,-0.8493289351463318
1733902089348430600,2.8924306640625,0.1641804575920105,0.00659510912373662,-0.6752996444702148
1733902089358456600,2.90245654296875,0.13203537464141846,0.3452634811401367,-0.4148540794849396
1733902089368483600,2.912483642578125,0.09067223221063614,0.4910377264022827,-0.16514384746551514
1733902089378510600,2.922510498046875,0.04329413175582886,0.4856818616390228,0.04946436733007431
1733902089388537600,2.93253759765625,0.0004183035343885422,0.3529331386089325,0.1795898824930191
1733902089398564600,2.942564697265625,-0.04299192130565643,0.1749364733695984,0.26682791113853455
1733902089408591600,2.952591552734375,-0.08483870327472687,0.05942718684673309,0.35803452134132385
1733902089418617600,2.96261767578125,-0.0878610610961914,-0.032664984464645386,0.348065048456192
1733902089428644600,2.97264453125,-0.08318375796079636,-0.0631461963057518,0.2946798801422119
1733902089438671600,2.982671630859375,-0.04842507839202881,-0.060406409204006195,0.17810441553592682
1733902089448698600,2.99269873046875,-0.0052973129786551,-0.03268290311098099,0.07400544732809067
1733902089458725600,3.0027255859375,0.019210487604141235,0.0004756974522024393,0.005881837569177151
1733902089468751600,3.012751708984375,-0.0005248683737590909,0.02662101574242115,-0.021692264825105667
1733902089478778600,3.022778564453125,-0.04224612936377525,0.06308440119028091,0.0005569616332650185
1733902089488805600,3.0328056640625,-0.08415895700454712,0.08643873035907745,0.0370611771941185
1733902089498832400,3.042832275390625,-0.1047479584813118,0.12000247091054916,0.07188083976507187
1733902089508859600,3.052859619140625,-0.11215793341398239,0.1506812870502472,0.09257519245147705
1733902089518885600,3.0628857421875,-0.10617851465940475,0.18035368621349335,0.09831810742616653
1733902089528912600,3.07291259765625,-0.09497805684804916,0.19663837552070618,0.10010269284248352
1733902089538939400,3.082939453125,-0.09947140514850616,0.19151566922664642,0.10108747333288193
1733902089548966700,3.092966552734375,-0.11260451376438141,0.16761113703250885,0.10627291351556778
1733902089558993700,3.10299365234375,-0.12783433496952057,0.14704753458499908,0.11010760068893433
1733902089569020400,3.1130205078125,-0.1420513540506363,0.12463410943746567,0.11391618847846985
1733902089579046400,3.12304638671875,-0.1567583680152893,0.10758000612258911,0.11534766852855682
1733902089589073700,3.13307373046875,-0.16351480782032013,0.09904297441244125,0.11398066580295563
1733902089599100700,3.1431005859375,-0.1620200276374817,0.1050456091761589,0.10703592002391815
1733902089609127400,3.15312744140625,-0.15172716975212097,0.106840580701828,0.10564788430929184
1733902089619154700,3.16315478515625,-0.13730499148368835,0.10106559097766876,0.09876132756471634
1733902089629180700,3.1731806640625,-0.12075316160917282,0.08727467805147171,0.08631743490695953
1733902089639207700,3.183207763671875,-0.10713190585374832,0.0602244958281517,0.06935915350914001
1733902089649234400,3.193234375,-0.09903615713119507,0.030626390129327774,0.04664238914847374
1733902089659261400,3.203261474609375,-0.09925033152103424,0.002319988328963518,0.027716122567653656
1733902089669288700,3.213288818359375,-0.10459396243095398,-0.021189332008361816,0.011786424554884434
1733902089679314700,3.223314697265625,-0.11298571527004242,-0.03186219185590744,-0.003131746081635356
1733902089689341400,3.233341552734375,-0.11108847707509995,-0.024320118129253387,-0.018711503595113754
1733902089699368400,3.243368408203125,-0.10288417339324951,-0.01338427048176527,-0.034224189817905426
1733902089709395700,3.253395751953125,-0.08529213070869446,0.000895865261554718,-0.043958839029073715
1733902089719422500,3.26342236328125,-0.06193059682846069,0.011172184720635414,-0.04447360336780548
1733902089729449500,3.273449462890625,-0.037933651357889175,0.01135461125522852,-0.04246371611952782
1733902089739475200,3.28347509765625,-0.022876489907503128,0.0016221688129007816,-0.04463856667280197
1733902089749502200,3.293502197265625,-0.01236259751021862,-0.01398582011461258,-0.04177220165729523
1733902089759529500,3.303529541015625,0.002561881672590971,-0.023616820573806763,-0.0452544167637825
1733902089769556200,3.31355615234375,0.012932231649756432,-0.026325520128011703,-0.051232948899269104
1733902089779583200,3.323583251953125,0.020889675244688988,-0.020366793498396873,-0.05030331760644913
1733902089789609200,3.333609130859375,0.03156575560569763,-0.0035521266981959343,-0.044397491961717606
1733902089799636500,3.343636474609375,0.037259142845869064,0.0073637329041957855,-0.03279881179332733
1733902089809663200,3.353663330078125,0.036517184227705,0.011978991329669952,-0.020068371668457985
1733902089819690200,3.363690185546875,0.03019375540316105,0.007676941342651844,-0.014133278280496597
1733902089829717200,3.37371728515625,0.01635676808655262,-0.004886787384748459,-0.00858831126242876
1733902089839743200,3.3837431640625,0.0008347185794264078,-0.016010373830795288,-0.00520005077123642
1733902089849770200,3.393770263671875,-0.008412575349211693,-0.020674102008342743,-0.00308709847740829
1733902089859797200,3.40379736328125,-0.012881108559668064,-0.0215203445404768,0.003028324106708169
1733902089869824300,3.41382421875,-0.011510911397635937,-0.019399136304855347,0.009627104736864567
1733902089879851300,3.423851318359375,-0.007596501614898443,-0.01667660102248192,0.010565942153334618
1733902089889878300,3.433878173828125,-0.0021039980929344893,-0.021833546459674835,0.008404521271586418
1733902089899904300,3.443904296875,0.005694486200809479,-0.026303686201572418,-0.001139466417953372
1733902089909931300,3.45393115234375,0.012096192687749863,-0.028204118832945824,-0.006914264988154173
1733902089919958300,3.463958251953125,0.02134062722325325,-0.02924816496670246,-0.013107170350849628
1733902089929985300,3.4739853515625,0.02574123442173004,-0.03254036605358124,-0.015927989035844803
1733902089940012300,3.48401220703125,0.03471089154481888,-0.03638475760817528,-0.023474683985114098
1733902089950038300,3.494038330078125,0.03855782747268677,-0.03855736553668976,-0.026475800201296806
1733902089960065000,3.50406494140625,0.04078993573784828,-0.03482850641012192,-0.02951752208173275
1733902089970092300,3.51409228515625,0.041961994022130966,-0.024355359375476837,-0.027607236057519913
1733902089980119300,3.524119384765625,0.03867128863930702,-0.01206221804022789,-0.025626525282859802
1733902089990146000,3.53414599609375,0.03698977082967758,-0.0017129079205915332,-0.021842971444129944
1733902090000172000,3.544172119140625,0.03959678113460541,0.00222500367090106,-0.018858272582292557
1733902090010199300,3.55419921875,0.03709980100393295,0.007842142134904861,-0.011968407779932022
1733902090020226300,3.564226318359375,0.03734501078724861,0.006196103524416685,-0.009441950358450413
1733902090030253000,3.574253173828125,0.03425361216068268,-0.00040800299029797316,-0.010844903066754341
1733902090040280300,3.5842802734375,0.030299348756670952,-0.006701851729303598,-0.014005542732775211
1733902090050306300,3.594306396484375,0.026127241551876068,-0.00699692964553833,-0.013405798934400082
1733902090060333300,3.604333251953125,0.022798903286457062,-0.003858831711113453,-0.006846354342997074
1733902090070360000,3.614360107421875,0.024086808785796165,0.0030185156501829624,-0.0025325659662485123
1733902090080387300,3.62438720703125,0.0279800146818161,0.00849430076777935,-0.00014139851555228233
1733902090090414300,3.634414306640625,0.03273695707321167,0.01119980588555336,0.0008943048305809498
1733902090100440300,3.6444404296875,0.03249817341566086,0.014723244123160839,0.0017910990864038467
1733902090110467000,3.654467041015625,0.026630429551005363,0.017757117748260498,-0.0011610151268541813
1733902090120494000,3.664494140625,0.020693710073828697,0.018356328830122948,-0.0007599430391564965
1733902090130521300,3.674521240234375,0.010611781850457191,0.017012497410178185,0.0007846902590245008
1733902090140548400,3.68454833984375,0.0032081943936645985,0.012958100065588951,0.005257203243672848
1733902090150574000,3.694573974609375,-0.004896337632089853,0.008183585479855537,0.009707078337669373
1733902090160601000,3.70460107421875,-0.008913056924939156,0.006324488669633865,0.01605326123535633
1733902090170628400,3.71462841796875,-0.007280805613845587,0.006066693924367428,0.018721748143434525
1733902090180655400,3.7246552734375,-0.002891288138926029,0.003947867546230555,0.020898956805467606
1733902090190682000,3.73468212890625,0.0033519603312015533,0.006036851555109024,0.014674084261059761
1733902090200708000,3.7447080078125,0.01122493389993906,0.010724693536758423,0.006731109227985144
1733902090210735400,3.7547353515625,0.009739155881106853,0.01563929207623005,0.0024799047969281673
1733902090220762400,3.764762451171875,0.006337342318147421,0.017050640657544136,0.0048744212836027145
1733902090230789000,3.7747890625,0.005522680934518576,0.015483369119465351,0.005811587907373905
1733902090240816400,3.78481640625,0.003267513122409582,0.010427293367683887,0.005912294611334801
1733902090250843400,3.794843505859375,0.0023756204172968864,0.00012565404176712036,0.0032347524538636208
1733902090260869400,3.804869384765625,0.0035742975305765867,-0.009804564528167248,-0.0019954629242420197
1733902090270896000,3.814896240234375,0.0024757434148341417,-0.016381774097681046,-0.007252276875078678
1733902090280923100,3.824923095703125,0.006070537492632866,-0.01702880673110485,-0.008987541310489178
1733902090290950400,3.834950439453125,0.0072417957708239555,-0.010923509486019611,-0.01084190048277378
1733902090300977200,3.84497705078125,0.009098040871322155,-0.005618513096123934,-0.00943838618695736
1733902090311003100,3.855003173828125,0.0077366335317492485,0.0014537773095071316,-0.00509690074250102
1733902090321030100,3.865030029296875,0.007366661913692951,0.005386884789913893,-0.0016540172509849072
1733902090331057400,3.875057373046875,0.005095251835882664,0.008497988805174828,0.004928784444928169
1733902090341084200,3.885084228515625,0.0030423717107623816,0.0073651159182190895,0.013552796095609665
1733902090351111200,3.895111083984375,0.0013549926225095987,0.004824726842343807,0.012568492442369461
1733902090361137200,3.90513720703125,-0.0010841728653758764,0.0001817513257265091,0.011175686493515968
1733902090371164400,3.915164306640625,-0.005358812399208546,0.00273785344325006,0.007474425248801708
1733902090381191200,3.925191162109375,-0.008533231914043427,0.010412289761006832,0.00495485495775938
1733902090391218200,3.93521826171875,-0.013239303603768349,0.01728031411767006,0.006396690383553505
1733902090401245400,3.945245361328125,-0.015446972101926804,0.02582152560353279,0.010312714613974094
1733902090411271400,3.955271484375,-0.013469042256474495,0.03191190958023071,0.011142555624246597
1733902090421298200,3.965298095703125,-0.013724161311984062,0.034174684435129166,0.008351026102900505
1733902090431325200,3.9753251953125,-0.013253314420580864,0.03594968467950821,0.0033493428491055965
1733902090441352200,3.985352294921875,-0.009077084250748158,0.03442135080695152,-0.0017289032693952322
1733902090451379200,3.995379150390625,-0.011882724240422249,0.034008026123046875,-0.002570728538557887
1733902090461405200,4.0054052734375,-0.007214132696390152,0.025137510150671005,-0.0006337276427075267
1733902090471432200,4.01543212890625,-0.009371559135615826,0.018169349059462547,0.0004930559080094099
1733902090481459200,4.025459228515625,-0.009563548490405083,0.008383276872336864,0.0010614022612571716
1733902090491486200,4.035486328125,-0.008237028494477272,0.0016302994918078184,0.0012635362800210714
1733902090501513200,4.04551318359375,-0.010768920183181763,0.002732868306338787,0.002418787684291601
1733902090511540200,4.055540283203125,-0.007287635467946529,0.012384695932269096,0.008564830757677555
1733902090521566200,4.065566162109375,-0.004177829250693321,0.016734307631850243,0.01099498849362135
1733902090531593200,4.07559326171875,-0.0026454459875822067,0.017062941566109657,0.014314087107777596
1733902090541620200,4.0856201171875,-0.0009045142214745283,0.009467852301895618,0.009823758155107498
1733902090551647200,4.095647216796875,-0.004318154416978359,0.001056258101016283,0.007675918750464916
1733902090561673200,4.105673095703125,-0.009149035438895226,-0.0019861520268023014,0.00977589562535286
1733902090571700200,4.1157001953125,-0.011606866493821144,-0.0011978563852608204,0.011267266236245632
1733902090581727200,4.125727294921875,-0.010494476184248924,-0.005070248618721962,0.011918148025870323
1733902090591754200,4.135754150390625,-0.009722159244120121,-0.0006619180785492063,0.011283250525593758
1733902090601781200,4.14578125,-0.006703877821564674,0.00020111072808504105,0.005933364853262901
1733902090611808300,4.155808349609375,-0.0059323604218661785,0.0013747657649219036,-0.00016394234262406826
1733902090621834200,4.165834228515625,-0.006518550217151642,0.0037703656125813723,-0.0036229207180440426
1733902090631861200,4.175861328125,-0.005157941021025181,-0.000662998529151082,-0.0021938683930784464
1733902090641888300,4.18588818359375,-0.004002868663519621,-0.008633789606392384,-0.003150386968627572
1733902090651915300,4.195915283203125,0.0007870928384363651,-0.016616081818938255,-0.0006033396348357201
1733902090661942300,4.2059423828125,0.000638012308627367,-0.02267492562532425,0.00011922745034098625
1733902090671968300,4.21596826171875,0.0026950377505272627,-0.025354597717523575,-0.0024680334609001875
1733902090681995300,4.225995361328125,0.0008831147570163012,-0.021839773282408714,-0.0023960534017533064
1733902090692022300,4.236022216796875,0.0017853938043117523,-0.014715815894305706,-0.001198962447233498
1733902090702049300,4.24604931640625,0.004761732183396816,-0.005983998998999596,0.0008641933090984821
1733902090712076300,4.256076171875,0.013193566352128983,0.003575950162485242,0.0005600601434707642
1733902090722102300,4.266102294921875,0.01741553284227848,0.011780998669564724,0.0000375993549823761
1733902090732129300,4.27612939453125,0.02017749659717083,0.016081470996141434,-0.003580038668587804
1733902090742156300,4.28615625,0.02150767669081688,0.01667914353311062,-0.005209178663790226
1733902090752183600,4.29618359375,0.019071683287620544,0.01698966883122921,-0.004050969611853361
1733902090762210300,4.306210205078125,0.015178142115473747,0.014622118324041367,-0.005525295622646809
1733902090772236300,4.316236328125,0.010757293552160263,0.005962051916867495,-0.005353255197405815
1733902090782263300,4.32626318359375,0.007372913882136345,0.0058290245942771435,-0.007651320192962885
1733902090792290300,4.336290283203125,0.005781142972409725,0.006106792017817497,-0.004772176966071129
1733902090802317300,4.3463173828125,0.008374089375138283,0.009223207831382751,0.00037232530303299427
1733902090812344300,4.35634423828125,0.011091047897934914,0.01626433990895748,0.003997952677309513
1733902090822370300,4.366370361328125,0.0075494153425097466,0.017887545749545097,0.007359273731708527
1733902090832397300,4.376397216796875,0.00501541793346405,0.013293859548866749,0.006366979330778122
1733902090842424300,4.38642431640625,-0.000742883887141943,0.004861135967075825,0.00510088074952364
1733902090852451300,4.396451416015625,-0.004656931385397911,0.010431669652462006,0.007617034949362278
1733902090862478300,4.406478271484375,-0.0042993901297450066,0.006022152956575155,0.009442533366382122
1733902090872504300,4.41650439453125,-0.004597930703312159,0.005083121825009584,0.010678506456315517
1733902090882531300,4.42653125,-0.0025032490957528353,0.006523434072732925,0.008455938659608364
1733902090892558300,4.436558349609375,0.003084595547989011,0.0023039220832288265,0.004376774653792381
1733902090902585300,4.44658544921875,0.004376792348921299,0.004200495779514313,-0.0008701607584953308
1733902090912612400,4.4566123046875,0.0062734950333833694,0.008358756080269814,-0.005147463642060757
1733902090922638300,4.466638427734375,0.003486206289380789,0.013503204099833965,-0.006252703256905079
1733902090932665300,4.476665283203125,0.00011997087858617306,0.01813071221113205,-0.004375707358121872
1733902090942692400,4.4866923828125,0.0008523263968527317,0.01736203394830227,-0.0023043330293148756
1733902090952719000,4.496718994140625,0.000030208611860871315,0.012296702712774277,-0.005010104738175869
1733902090962746400,4.506746337890625,0.0009331954643130302,0.007309415377676487,-0.003753433935344219
1733902090972772400,4.5167724609375,0.004164675250649452,0.0009098390582948923,-0.008425950072705746
1733902090982799400,4.52679931640625,0.006566346623003483,-0.005759645253419876,-0.00944778136909008
1733902090992826000,4.536826171875,0.007861175574362278,-0.007853955030441284,-0.010420900769531727
1733902091002853400,4.546853271484375,0.007889661937952042,-0.0060793813318014145,-0.006823498290032148
1733902091012880400,4.55688037109375,0.006803093012422323,-0.0043877409771084785,-0.002213832689449191
1733902091022906400,4.56690625,0.00667112972587347,-0.0011354340240359306,0.004290540236979723
1733902091032933000,4.57693310546875,0.006598426029086113,0.0006070721428841352,0.009778516367077827
1733902091042960400,4.58696044921875,0.012187029235064983,0.004626777954399586,0.01229700818657875
1733902091052987400,4.5969873046875,0.014726352877914906,0.005008675158023834,0.007636476308107376
1733902091063014100,4.60701416015625,0.015919901430606842,0.006199812516570091,-0.0014913214836269617
1733902091073040100,4.6170400390625,0.015433341264724731,0.011209750548005104,-0.006170495413243771
1733902091083067400,4.6270673828125,0.014857242815196514,0.01336599700152874,-0.0032991264015436172
1733902091093094400,4.637094482421875,0.015676431357860565,0.018528534099459648,0.0008383605163544416
1733902091103121400,4.647121337890625,0.010423773899674416,0.018579591065645218,0.0033184548374265432
1733902091113148200,4.657148193359375,0.006684695370495319,0.01666451245546341,0.0044774627313017845
1733902091123174400,4.66717431640625,0.005488832481205463,0.013814589008688927,0.0025433676782995462
1733902091133201400,4.677201416015625,0.0019702636636793613,0.014345623552799225,-0.001480402541346848
1733902091143228400,4.687228515625,0.0014895298518240452,0.017963390797376633,-0.0031622122041881084
1733902091153255200,4.697255126953125,0.00018298299983143806,0.024120619520545006,-0.003346236888319254
1733902091163282400,4.707282470703125,-0.004182784352451563,0.0272621251642704,-0.000489786034449935
1733902091173308400,4.717308349609375,-0.0045324573293328285,0.02298349142074585,-0.00048525864258408546
1733902091183335400,4.72733544921875,-0.0038321034517139196,0.011229246854782104,0.001981043489649892
1733902091193362200,4.737362060546875,-0.0016067661345005035,-0.002022909000515938,0.0011714424472302198
1733902091203389400,4.747389404296875,0.0031430795788764954,-0.013888971880078316,-0.0016713709337636828
1733902091213416400,4.75741650390625,0.005942327901721001,-0.01986590400338173,-0.005621637683361769
1733902091223442400,4.7674423828125,0.009941361844539642,-0.021901221945881844,-0.010587343946099281
1733902091233469200,4.77746923828125,0.0115594994276762,-0.01711472123861313,-0.005985667929053307
1733902091243496400,4.787496337890625,0.010536379180848598,-0.009389684535562992,-0.0006430532084777951
1733902091253523500,4.7975234375,0.01057632640004158,-0.006573657970875502,0.004288588650524616
1733902091263550200,4.80755029296875,0.008828217163681984,-0.0030011837370693684,0.002958610188215971
1733902091273576200,4.817576171875,0.004375412128865719,-0.001681853667832911,0.0013061189092695713
1733902091283603500,4.827603515625,0.002832368714734912,-0.0022913417778909206,-0.0011743457289412618
1733902091293630500,4.83763037109375,-0.0005620961310341954,-0.003744362387806177,0.000714368186891079
1733902091303657200,4.8476572265625,-0.0035065673291683197,-0.0023217974230647087,0.0021111166570335627
1733902091313684200,4.857684326171875,-0.004696467891335487,0.0010020940098911524,0.00834637600928545
1733902091323710500,4.86771044921875,-0.003961573820561171,0.009005054831504822,0.011130048893392086
1733902091333737500,4.877737548828125,-0.007398117333650589,0.011772878468036652,0.009357981383800507
1733902091343764200,4.88776416015625,-0.005180605687201023,0.014168210327625275,0.007108032703399658
1733902091353791200,4.897791259765625,-0.006051459349691868,0.011288532987236977,0.003411832032725215
1733902091363818500,4.907818603515625,-0.006877218373119831,0.009127630852162838,0.0024928515776991844
1733902091373844500,4.917844482421875,-0.009675135836005211,0.008978759869933128,0.003130145836621523
1733902091383871200,4.927871337890625,-0.008733553811907768,0.00597554724663496,0.0009228142444044352
1733902091393898200,4.937898193359375,-0.009095743298530579,0.005541185848414898,-0.0016111835138872266
1733902091403925500,4.947925537109375,-0.009740600362420082,0.006373615004122257,-0.0028504596557468176
1733902091413952300,4.9579521484375,-0.009208766743540764,0.0060750748962163925,-0.004425985738635063
1733902091423978200,4.967978271484375,-0.005767882335931063,0.007681855466216803,-0.005679189693182707
1733902091434005200,4.978005126953125,-0.0017385196406394243,0.005881291814148426,-0.005626192782074213
1733902091444032500,4.988032470703125,-0.002441040938720107,0.0016733191441744566,-0.008265354670584202
1733902091454059300,4.998059326171875,-0.001497482880949974,-0.004119855351746082,-0.010011057369410992
1733902091464086300,5.008086181640625,-0.004424148239195347,-0.012118399143218994,-0.013110585510730743
1733902091474112300,5.0181123046875,-0.006493157707154751,-0.01906765252351761,-0.013507396914064884
1733902091484139500,5.028139404296875,-0.004592846147716045,-0.02335200086236,-0.013893655501306057
1733902091494166300,5.038166259765625,-0.0019800185691565275,-0.022654786705970764,-0.015785031020641327
1733902091504193300,5.048193359375,0.0020543623249977827,-0.016712011769413948,-0.014241788536310196
1733902091514220300,5.05822021484375,0.0021760689560323954,-0.01049432810395956,-0.01595952734351158
1733902091524246300,5.068246337890625,0.0035020567011088133,-0.0017394530586898327,-0.01357946079224348
1733902091534273300,5.078273193359375,0.0010926949325948954,0.005835642106831074,-0.01101670041680336
1733902091544300300,5.08830029296875,0.00002654292620718479,0.011768380180001259,-0.006672894582152367
1733902091554327300,5.098327392578125,-0.0020408688578754663,0.008563532494008541,-0.0038920219521969557
1733902091564353300,5.108353271484375,-0.006067213602364063,-0.0008693983545526862,-0.005508751142770052
1733902091574380300,5.11838037109375,-0.007140999659895897,-0.010111100040376186,-0.0032637063413858414
1733902091584407300,5.1284072265625,-0.00896846130490303,-0.016736246645450592,-0.005608886014670134
1733902091594434300,5.138434326171875,-0.012002866715192795,-0.017845718190073967,-0.004403273109346628
1733902091604461300,5.14846142578125,-0.011810841038823128,-0.01205287966877222,-0.004230133257806301
1733902091614487300,5.1584873046875,-0.011070216074585915,-0.004353947006165981,0.00044770888052880764
1733902091624514300,5.168514404296875,-0.007847487926483154,0.0010613526683300734,-0.0006750583415850997
1733902091634541300,5.178541259765625,-0.008042166009545326,0.006716841831803322,-0.001363219111226499
1733902091644568300,5.188568359375,-0.0041120899841189384,0.010132570751011372,-0.0008281347109004855
1733902091654595300,5.19859521484375,-0.0016641122056171298,0.010778919793665409,0.0013820226304233074
1733902091664621300,5.208621337890625,0.00018899072892963886,0.006311671808362007,0.0035326078068464994
1733902091674648300,5.2186484375,0.0009218927007168531,0.0015102589968591928,0.004402662627398968
1733902091684675300,5.22867529296875,-0.0012220320058986545,-0.007159491069614887,0.0025466259103268385
1733902091694702300,5.238702392578125,-0.003664150834083557,-0.01115316804498434,-0.0010209446772933006
1733902091704729300,5.248729248046875,-0.0030799040105193853,-0.01294303685426712,-0.003668447956442833
1733902091714755300,5.25875537109375,-0.00711778923869133,-0.004747425206005573,-0.004637838341295719
1733902091724782300,5.2687822265625,-0.0032438435591757298,0.0036140677984803915,-0.001721839653328061
1733902091734808600,5.27880859375,-0.0038308040238916874,0.011841904371976852,0.00023611634969711304
1733902091744835800,5.2888359375,-0.001980407629162073,0.016385924071073532,-0.0018677570624276996
1733902091754862800,5.29886279296875,-0.007315251976251602,0.01824534311890602,-0.0007742630550637841
1733902091764888800,5.308888916015625,-0.008224759250879288,0.0168538149446249,-0.00030104012694209814
1733902091774915600,5.31891552734375,-0.009916133247315884,0.01221991516649723,0.0004699451383203268
1733902091784942600,5.328942626953125,-0.012692879885435104,0.005833443254232407,0.00013505388051271439
1733902091794969900,5.338969970703125,-0.01200764812529087,-0.0005054130451753736,0.002505533630028367
1733902091804996600,5.34899658203125,-0.011184025555849075,-0.005915651563555002,0.0005549206398427486
1733902091815022600,5.359022705078125,-0.009008489549160004,-0.005296200513839722,-0.003174570156261325
1733902091825049600,5.369049560546875,-0.007656681817024946,-0.005560167133808136,-0.00683747511357069
1733902091835076900,5.379076904296875,-0.006603401619940996,-0.006076287943869829,-0.008618330582976341
1733902091845103600,5.389103515625,-0.003212127136066556,-0.004097402095794678,-0.006999131757766008
1733902091855130600,5.399130615234375,-0.002531423233449459,0.0011468948796391487,0.000733089866116643
1733902091865156600,5.409156494140625,-0.0043223341926932335,0.008725457824766636,0.008390258997678757
1733902091875183900,5.419183837890625,-0.0046040965244174,0.012667468748986721,0.008805977180600166
1733902091885211000,5.4292109375,-0.007909787818789482,0.012444057501852512,0.0066446708515286446
1733902091895237600,5.439237548828125,-0.00732628908008337,0.01939251273870468,0.004738912917673588
1733902091905263600,5.449263671875,-0.006598742678761482,0.022603988647460938,0.0067477114498615265
1733902091915291000,5.459290771484375,-0.005305245518684387,0.021552305668592453,0.003840871388092637
1733902091925318000,5.46931787109375,-0.0029464242979884148,0.018012331798672676,0.004125610925257206
1733902091935344600,5.4793447265625,0.00007919291965663433,0.005653399974107742,0.002823058981448412
1733902091945371600,5.48937158203125,0.004679117351770401,-0.0013645959552377462,0.00425834022462368
1733902091955398000,5.49939794921875,0.006996866315603256,0.004397152923047543,0.008504483848810196
1733902091965425000,5.5094248046875,0.007007668260484934,0.01571573130786419,0.012380347587168217
1733902091975451600,5.51945166015625,0.00650326581671834,0.01974456198513508,0.011607498861849308
1733902091985478700,5.529478759765625,0.007434864528477192,0.014083725400269032,0.005071862600743771
1733902091995506000,5.539505859375,0.013245882466435432,0.0009029414504766464,-0.0008395562181249261
1733902092005532000,5.549531982421875,0.015428800135850906,-0.010765103623270988,-0.007576370611786842
1733902092015558700,5.55955859375,0.018430447205901146,-0.011312384158372879,-0.011934367939829826
1733902092025585700,5.569585693359375,0.02494039759039879,-0.0006918408907949924,-0.02391582913696766
1733902092035613000,5.579613037109375,0.034616995602846146,0.02954808436334133,-0.03892860189080238
1733902092045639700,5.5896396484375,0.04199704900383949,0.07323560863733292,-0.05700886994600296
1733902092055665700,5.599665771484375,0.05311095342040062,0.13333463668823242,-0.08122419565916061
1733902092065692700,5.609692626953125,0.05534635856747627,0.19720527529716492,-0.09823466092348099
1733902092075720000,5.619719970703125,0.05081818625330925,0.24285398423671722,-0.10443929582834244
1733902092085746700,5.62974658203125,0.043250177055597305,0.25613030791282654,-0.09026952087879181
1733902092095773700,5.639773681640625,0.04050525650382042,0.24714213609695435,-0.06349755823612213
1733902092105799700,5.649799560546875,0.03941326588392258,0.22447194159030914,-0.030767690390348434
1733902092115827000,5.659826904296875,0.04118053987622261,0.18844710290431976,-0.007199512794613838
1733902092125853700,5.669853759765625,0.04898931086063385,0.13485774397850037,-0.00848434492945671
1733902092135880700,5.679880615234375,0.052861545234918594,0.06883665174245834,-0.030222661793231964
1733902092145907700,5.68990771484375,0.04674925655126572,0.013868057169020176,-0.06985671818256378
1733902092155934000,5.699933837890625,0.03583136200904846,-0.01952958106994629,-0.11487878859043121
1733902092165960700,5.709960693359375,0.030291393399238586,-0.019163135439157486,-0.155375137925148
1733902092175987700,5.71998779296875,0.0356651209294796,-0.0005199438892304897,-0.18799272179603577
1733902092186014700,5.7300146484375,0.05498389154672623,0.025074318051338196,-0.21146032214164734
1733902092196040700,5.740040771484375,0.06946216523647308,0.06226402893662453,-0.2242426872253418
1733902092206067700,5.750067626953125,0.07349728792905807,0.08912943303585052,-0.2303352802991867
1733902092216094700,5.7600947265625,0.07405921816825867,0.09352098405361176,-0.23388367891311646
1733902092226121700,5.770121826171875,0.06301906704902649,0.08117596805095673,-0.23550157248973846
1733902092236148700,5.780148681640625,0.04154999181628227,0.05266257002949715,-0.2402377426624298
1733902092246174700,5.7901748046875,0.01106126420199871,0.016097204759716988,-0.2481204718351364
1733902092256201700,5.80020166015625,-0.024402188137173653,-0.021399570629000664,-0.25268781185150146
1733902092266228700,5.810228759765625,-0.057446956634521484,-0.045628052204847336,-0.2543932795524597
1733902092276255700,5.820255859375,-0.08348201960325241,-0.04584856331348419,-0.2545543909072876
1733902092286282800,5.83028271484375,-0.09907373040914536,-0.036958154290914536,-0.2520579397678375
1733902092296308700,5.840308837890625,-0.10224635899066925,-0.025522274896502495,-0.2551243007183075
1733902092306335700,5.850335693359375,-0.09952438622713089,-0.005006413906812668,-0.26616957783699036
1733902092316362800,5.86036279296875,-0.08494571596384048,0.01868053898215294,-0.2882610261440277
1733902092326389800,5.8703896484375,-0.06723001599311829,0.041457850486040115,-0.3146507143974304
1733902092336416800,5.880416748046875,-0.04335637763142586,0.06454692780971527,-0.34256836771965027
1733902092346442800,5.89044287109375,-0.013993089087307453,0.07819833606481552,-0.36155664920806885
1733902092356469500,5.900469482421875,0.015405278652906418,0.08587809652090073,-0.36586084961891174
1733902092366496800,5.910496826171875,0.03869510814547539,0.08481436222791672,-0.3606701195240021
1733902092376523800,5.920523681640625,0.05429723486304283,0.08432967215776443,-0.3535355031490326
1733902092386550800,5.93055078125,0.06276558339595795,0.07940667867660522,-0.35118043422698975
1733902092396576800,5.94057666015625,0.06280553340911865,0.0626617893576622,-0.35344865918159485
1733902092406603800,5.950603759765625,0.050418585538864136,0.03175116330385208,-0.35877662897109985
1733902092416630800,5.960630859375,0.03310377523303032,-0.0027032168582081795,-0.3660569190979004
1733902092426657800,5.97065771484375,0.010286079719662666,-0.03533679246902466,-0.3729446530342102
1733902092436684800,5.980684814453125,-0.014823800884187222,-0.05707085132598877,-0.37521234154701233
1733902092446710800,5.990710693359375,-0.029917029663920403,-0.06302341818809509,-0.37737300992012024
1733902092456737800,6.00073779296875,-0.03472403436899185,-0.05668589472770691,-0.38509297370910645
1733902092466764800,6.010764892578125,-0.030942190438508987,-0.0441567525267601,-0.3912462890148163
1733902092476791800,6.020791748046875,-0.016890021041035652,-0.04294395074248314,-0.38853520154953003
1733902092486818800,6.03081884765625,0.0012958056759089231,-0.05972178280353546,-0.3781796097755432
1733902092496844800,6.0408447265625,0.014926396310329437,-0.07985661178827286,-0.36211541295051575
1733902092506871800,6.050871826171875,0.022841811180114746,-0.10133423656225204,-0.34587785601615906
1733902092516898600,6.060898681640625,0.02629007212817669,-0.11163720488548279,-0.3385472595691681
1733902092526925800,6.07092578125,0.02903081476688385,-0.1061825305223465,-0.3445267677307129
1733902092536951800,6.080951904296875,0.02836848609149456,-0.08757688850164413,-0.3634754419326782
1733902092546978800,6.090978759765625,0.023579426109790802,-0.060678936541080475,-0.38117843866348267
1733902092557005600,6.101005615234375,0.0196030605584383,-0.030362578108906746,-0.3944564163684845
1733902092567032800,6.11103271484375,0.01293293945491314,0.00588216632604599,-0.3908560872077942
1733902092577059800,6.121059814453125,0.0032480882946401834,0.034134313464164734,-0.37432876229286194
1733902092587085800,6.1310859375,-0.002723281504586339,0.03310379758477211,-0.3478766679763794
1733902092597112600,6.141112548828125,-0.002336590550839901,0.010526315309107304,-0.3249279260635376
1733902092607139800,6.151139892578125,-0.0009155466686934233,-0.03114292211830616,-0.31291472911834717
1733902092617166800,6.161166748046875,-0.0013714798260480165,-0.07835330814123154,-0.31395256519317627
1733902092627193600,6.171193603515625,-0.0027277832850813866,-0.11976007372140884,-0.321805864572525
1733902092637219600,6.181219482421875,-0.004150177352130413,-0.14761807024478912,-0.3288227617740631
1733902092647246800,6.191246826171875,0.0024559516459703445,-0.16127951443195343,-0.3267134130001068
1733902092657273900,6.20127392578125,0.022903434932231903,-0.15121783316135406,-0.3080606162548065
1733902092667300600,6.211300537109375,0.05719009414315224,-0.12813620269298553,-0.2818444073200226
1733902092677327600,6.22132763671875,0.09662032872438431,-0.09554870426654816,-0.25602665543556213
1733902092687353900,6.231353759765625,0.13095581531524658,-0.07315798103809357,-0.2337246537208557
1733902092697380900,6.241380859375,0.14735423028469086,-0.07343468815088272,-0.21284441649913788
1733902092707407600,6.25140771484375,0.1458423137664795,-0.1045808494091034,-0.1905900239944458
1733902092717434600,6.2614345703125,0.13671645522117615,-0.14659807085990906,-0.17274712026119232
1733902092727462000,6.2714619140625,0.12603016197681427,-0.18358270823955536,-0.15957945585250854
1733902092737488100,6.281488037109375,0.12049345672130585,-0.20485152304172516,-0.15182487666606903
1733902092747515000,6.291514892578125,0.12182007730007172,-0.21478812396526337,-0.15153074264526367
1733902092757542100,6.301542236328125,0.1318705976009369,-0.21014809608459473,-0.15255606174468994
1733902092767569200,6.311569091796875,0.15361391007900238,-0.18399861454963684,-0.15552499890327454
1733902092777596000,6.321595947265625,0.17427471280097961,-0.14317528903484344,-0.15714101493358612
1733902092787622000,6.331621826171875,0.18978087604045868,-0.1095179095864296,-0.15171439945697784
1733902092797649200,6.341649169921875,0.1888117492198944,-0.10049405694007874,-0.14772525429725647
1733902092807676200,6.35167626953125,0.1688176691532135,-0.11163236200809479,-0.14521563053131104
1733902092817703000,6.361702880859375,0.13406261801719666,-0.13244682550430298,-0.14345474541187286
1733902092827729000,6.37172900390625,0.08404474705457687,-0.15054142475128174,-0.14426511526107788
1733902092837756200,6.381756103515625,0.032659318298101425,-0.15218406915664673,-0.14254604279994965
1733902092847783200,6.391783203125,-0.008790068328380585,-0.12759967148303986,-0.13441509008407593
1733902092857810000,6.401809814453125,-0.027813026681542397,-0.07456015795469284,-0.12482824176549911
1733902092867837200,6.411837158203125,-0.034365519881248474,-0.016309859231114388,-0.1134299710392952
1733902092877863200,6.42186328125,-0.03258013725280762,0.03294743224978447,-0.10671001672744751
1733902092887890200,6.43189013671875,-0.03208119794726372,0.06159857288002968,-0.10989075899124146
1733902092897917000,6.4419169921875,-0.03821445629000664,0.07026103883981705,-0.12281427532434464
1733902092907944000,6.45194384765625,-0.044868048280477524,0.04934453219175339,-0.13760435581207275
1733902092917971200,6.46197119140625,-0.04592132568359375,0.013725549913942814,-0.14716777205467224
1733902092927997200,6.4719970703125,-0.04344059154391289,-0.022633254528045654,-0.1506354808807373
1733902092938024000,6.48202392578125,-0.03540397062897682,-0.049107473343610764,-0.15510612726211548
1733902092948051000,6.492051025390625,-0.029853455722332,-0.06160762161016464,-0.15349122881889343
1733902092958078200,6.502078125,-0.02323470078408718,-0.0622025728225708,-0.14646661281585693
1733902092968105000,6.51210498046875,-0.01954207941889763,-0.0529014989733696,-0.14250978827476501
1733902092978131000,6.522130859375,-0.02159431204199791,-0.03444818779826164,-0.14160405099391937
1733902092988158000,6.532157958984375,-0.022358451038599014,-0.016571281477808952,-0.14339935779571533
1733902092998185200,6.542185302734375,-0.026738019660115242,-0.004281059838831425,-0.14495784044265747
1733902093008212000,6.5522119140625,-0.021551990881562233,0.0014961441047489643,-0.14723879098892212
1733902093018238000,6.562238037109375,-0.01750265434384346,0.00014245929196476936,-0.1491307020187378
1733902093028265000,6.572264892578125,-0.008568227291107178,-0.009895676746964455,-0.15066276490688324
1733902093038292200,6.582292236328125,-0.0027702588122338057,-0.020988276228308678,-0.15507589280605316
1733902093048319000,6.592319091796875,-0.0009011720540001988,-0.029323607683181763,-0.15673363208770752
1733902093058346000,6.602345947265625,0.0010218964889645576,-0.03245042636990547,-0.15355221927165985
1733902093068372000,6.6123720703125,0.008409078232944012,-0.0345957949757576,-0.15398193895816803
1733902093078399200,6.622399169921875,0.011933505535125732,-0.04086726903915405,-0.15039066970348358
1733902093088426200,6.63242626953125,0.014321924187242985,-0.03913607448339462,-0.14151135087013245
1733902093098453000,6.642452880859375,0.018669268116354942,-0.02697048708796501,-0.1267278790473938
1733902093108480000,6.65247998046875,0.014930518344044685,-0.006848550401628017,-0.1073724702000618
1733902093118506200,6.66250634765625,0.006472052074968815,0.021760988980531693,-0.08248282968997955
1733902093128533200,6.672533203125,0.0008129938505589962,0.05312160775065422,-0.05763298273086548
1733902093138560000,6.68256005859375,-0.005425460636615753,0.06939458847045898,-0.035152971744537354
1733902093148587000,6.6925869140625,-0.007441045716404915,0.07871866226196289,-0.02896709181368351
1733902093158614300,6.7026142578125,-0.0006558439927175641,0.08434751629829407,-0.0355411022901535
1733902093168640300,6.71264013671875,0.012385530397295952,0.0945986658334732,-0.06049586087465286
1733902093178667000,6.7226669921875,0.029118172824382782,0.10502174496650696,-0.10018814355134964
1733902093188694000,6.732694091796875,0.0529022254049778,0.10202322155237198,-0.14965301752090454
1733902093198721300,6.74272119140625,0.07697320729494095,0.08077865093946457,-0.20507925748825073
1733902093208747300,6.752747314453125,0.09522248804569244,0.05132528394460678,-0.25606390833854675
1733902093218774000,6.76277392578125,0.10691163688898087,0.017934834584593773,-0.2932373881340027
1733902093228801000,6.772801025390625,0.10782162845134735,-0.006796660833060741,-0.3136028051376343
1733902093238828300,6.782828369140625,0.10314006358385086,-0.023642485961318016,-0.31903353333473206
1733902093248855000,6.79285498046875,0.09487371891736984,-0.03413974493741989,-0.32723861932754517
1733902093258881000,6.802881103515625,0.0889391303062439,-0.0339977964758873,-0.341851145029068
1733902093268908000,6.812907958984375,0.07929209619760513,-0.033127475529909134,-0.37156081199645996
1733902093278935300,6.822935302734375,0.06794596463441849,-0.020480656996369362,-0.4055861532688141
1733902093288962000,6.832962158203125,0.05426964536309242,0.00937374122440815,-0.43299105763435364
1733902093298989000,6.842989013671875,0.038409989327192307,0.051051944494247437,-0.44998177886009216
1733902093309015000,6.85301513671875,0.024880526587367058,0.10579381138086319,-0.45430177450180054
1733902093319042000,6.8630419921875,0.008355877362191677,0.1468573659658432,-0.44530320167541504
1733902093329069000,6.873069091796875,-0.0015267485287040472,0.16087722778320312,-0.42592620849609375
1733902093339096000,6.883095947265625,-0.004808295518159866,0.13622674345970154,-0.39764103293418884
1733902093349123000,6.893123046875,-0.0059593431651592255,0.10167768597602844,-0.36640432476997375
1733902093359149000,6.903149169921875,0.0034282999113202095,0.07108035683631897,-0.3399956226348877
1733902093369176000,6.913176025390625,0.0175130944699049,0.04189231991767883,-0.32271504402160645
1733902093379203000,6.923203125,0.03479860723018646,0.004547348245978355,-0.3090769946575165
1733902093389230000,6.93322998046875,0.05215882509946823,-0.05478527024388313,-0.2970966100692749
1733902093399257000,6.943257080078125,0.068137526512146,-0.13317595422267914,-0.27842944860458374
1733902093409283000,6.953282958984375,0.07717839628458023,-0.22365272045135498,-0.25032567977905273
1733902093419310000,6.96331005859375,0.076906219124794,-0.3007837235927582,-0.2085563987493515
1733902093429337000,6.973337158203125,0.07483180612325668,-0.3537841737270355,-0.16298340260982513
1733902093439364000,6.983364013671875,0.08936014771461487,-0.3542606234550476,-0.1319168210029602
1733902093449390000,6.99339013671875,0.12365172803401947,-0.3049107491970062,-0.1235407367348671
1733902093459417000,7.0034169921875,0.14833417534828186,-0.221558079123497,-0.13087375462055206
1733902093469444000,7.013444091796875,0.15922333300113678,-0.14094607532024384,-0.15444190800189972
1733902093479470800,7.023470947265625,0.1400190144777298,-0.07882463932037354,-0.1856970340013504
1733902093489498000,7.033498046875,0.1104235127568245,-0.030661866068840027,-0.2176307886838913
1733902093499524000,7.043524169921875,0.08010128885507584,0.020329412072896957,-0.24079468846321106
1733902093509551000,7.053551025390625,0.07203703373670578,0.08027861267328262,-0.24643440544605255
1733902093519577900,7.063577880859375,0.08288755267858505,0.1102500930428505,-0.24055548012256622
1733902093529605000,7.073605224609375,0.10609214752912521,0.10408849269151688,-0.2362809032201767
1733902093539632000,7.083632080078125,0.12944594025611877,0.080497145652771,-0.23471282422542572
1733902093549658000,7.093658203125,0.14880816638469696,0.05268166959285736,-0.240028515458107
1733902093559684900,7.103684814453125,0.1643703430891037,0.03753601014614105,-0.2535371482372284
1733902093569712000,7.113712158203125,0.17968755960464478,0.02314366213977337,-0.2686704993247986
1733902093579739100,7.1237392578125,0.1918765753507614,0.0049249762669205666,-0.2803646922111511
1733902093589766100,7.13376611328125,0.2035176008939743,-0.016333186998963356,-0.2837633490562439
1733902093599792000,7.143792236328125,0.20856696367263794,-0.03026205115020275,-0.2788165509700775
1733902093609819100,7.153819091796875,0.20687410235404968,-0.03279437497258186,-0.26827535033226013
1733902093619846100,7.16384619140625,0.1986028552055359,-0.024921007454395294,-0.2555622458457947
1733902093629873200,7.173873046875,0.1791536957025528,-0.009948012419044971,-0.24021904170513153
1733902093639899100,7.183899169921875,0.159318208694458,-0.000598985468968749,-0.21923333406448364
1733902093649926100,7.193926025390625,0.1391153484582901,0.0013778246939182281,-0.19837239384651184
1733902093659953200,7.203953125,0.1233837902545929,-0.009063631296157837,-0.16977617144584656
1733902093669980200,7.213980224609375,0.10259115695953369,-0.026769015938043594,-0.1390310376882553
1733902093680007000,7.2240068359375,0.08531922101974487,-0.044223904609680176,-0.10611969232559204
1733902093690033200,7.234033203125,0.06979832053184509,-0.05803639069199562,-0.07735036313533783
1733902093700060200,7.24406005859375,0.057533398270606995,-0.07386702299118042,-0.05111769214272499
1733902093710087200,7.254087158203125,0.0511954203248024,-0.09176789969205856,-0.02907755970954895
1733902093720114000,7.264114013671875,0.05721602961421013,-0.10633166134357452,-0.014217386022210121
1733902093730141200,7.27414111328125,0.06798016279935837,-0.11604279279708862,-0.0005903664277866483
1733902093740167200,7.284167236328125,0.0785507783293724,-0.12269163876771927,0.004909593611955643
1733902093750194200,7.294194091796875,0.07950621098279953,-0.12021432816982269,0.00704135000705719
1733902093760221000,7.304220947265625,0.07562705129384995,-0.11039898544549942,0.01008241344243288
1733902093770248200,7.314248291015625,0.06478436291217804,-0.09153079241514206,0.020689889788627625
1733902093780275200,7.324275146484375,0.05586996302008629,-0.07191554456949234,0.036285094916820526
1733902093790301200,7.33430126953125,0.055006060749292374,-0.04964754357933998,0.05245929956436157
1733902093800328000,7.344327880859375,0.05799439549446106,-0.027639178559184074,0.06940312683582306
1733902093810355200,7.354355224609375,0.06391467899084091,-0.0006499685114249587,0.08501093089580536
1733902093820382200,7.36438232421875,0.06822288036346436,0.027513492852449417,0.10041306167840958
1733902093830408200,7.374408203125,0.0735408365726471,0.049254242330789566,0.1210484579205513
1733902093840435000,7.38443505859375,0.08009035140275955,0.05793401598930359,0.13968472182750702
1733902093850462000,7.3944619140625,0.08818445354700089,0.05139726772904396,0.1591843217611313
1733902093860489200,7.4044892578125,0.09788767993450165,0.03279508650302887,0.17333157360553741
1733902093870516000,7.414515869140625,0.11002467572689056,0.009779640473425388,0.18136678636074066
1733902093880542000,7.4245419921875,0.11655421555042267,-0.0060121058486402035,0.18513382971286774
1733902093890569000,7.43456884765625,0.118332140147686,-0.00898648239672184,0.18328319489955902
1733902093900596200,7.44459619140625,0.11203216761350632,0.011574985459446907,0.1788511574268341
1733902093910623000,7.454623046875,0.09614654630422592,0.046692702919244766,0.17244853079319
1733902093920650000,7.46464990234375,0.06899268925189972,0.09225592762231827,0.16418659687042236
1733902093930676000,7.474676025390625,0.044533949345350266,0.1419084370136261,0.15226709842681885
1733902093940703200,7.484703125,0.01749034784734249,0.1834268569946289,0.14519959688186646
1733902093950730000,7.49472998046875,-0.0038193329237401485,0.20945121347904205,0.1338714361190796
1733902093960757000,7.504757080078125,-0.019258743152022362,0.22170521318912506,0.12410003691911697
1733902093970784300,7.5147841796875,-0.03212146461009979,0.226078599691391,0.11658920347690582
1733902093980810200,7.524810302734375,-0.034486353397369385,0.2203594595193863,0.1122000440955162
1733902093990837000,7.5348369140625,-0.02588820457458496,0.19290833175182343,0.10482508689165115
1733902094000864000,7.544864013671875,-0.011901549063622952,0.13972847163677216,0.09586355090141296
1733902094010891000,7.55489111328125,0.0010684472508728504,0.07257627695798874,0.08019150793552399
1733902094020917200,7.564917236328125,0.01010481920093298,0.015752406790852547,0.06387991458177567
1733902094030944000,7.574944091796875,0.018671967089176178,-0.022395266219973564,0.054694969207048416
1733902094040971000,7.584970947265625,0.024061139672994614,-0.040267739444971085,0.05090742185711861
1733902094050998000,7.594998046875,0.0265422984957695,-0.04141153022646904,0.05104739964008331
1733902094061025000,7.60502490234375,0.02378246560692787,-0.02512230910360813,0.05565200373530388
1733902094071051000,7.615051025390625,0.02014448121190071,-0.00025804690085351467,0.06194574385881424
1733902094081078000,7.625078125,0.015550261363387108,0.01958836242556572,0.0650070458650589
1733902094091105000,7.63510498046875,0.013525433838367462,0.028763504698872566,0.06501554697751999
1733902094101132000,7.645132080078125,0.01294593047350645,0.02637997642159462,0.05844658985733986
1733902094111159000,7.655158935546875,0.014890599064528942,0.01758502423763275,0.05208272859454155
1733902094121185000,7.66518505859375,0.016883976757526398,0.005701732821762562,0.04660939797759056
1733902094131212000,7.6752119140625,0.022129341959953308,0.0024419149849563837,0.0474778488278389
1733902094141239000,7.685239013671875,0.03498069569468498,0.010165614075958729,0.05476079508662224
1733902094151266000,7.69526611328125,0.050467025488615036,0.01737554930150509,0.06075483188033104
1733902094161293000,7.70529296875,0.06783190369606018,0.02003311738371849,0.06205445155501366
1733902094171319000,7.715319091796875,0.08180822432041168,0.013555627316236496,0.059777770191431046
1733902094181346300,7.72534619140625,0.08849116414785385,-0.0013855049619451165,0.05721713975071907
1733902094191373000,7.735373046875,0.0858309343457222,-0.014545248821377754,0.055079951882362366
1733902094201400000,7.745400146484375,0.07562889158725739,-0.02354007586836815,0.05458487197756767
1733902094211426000,7.755426025390625,0.07176230102777481,-0.031738124787807465,0.051481276750564575
1733902094221453300,7.765453369140625,0.07237029820680618,-0.04459746554493904,0.043885938823223114
1733902094231480000,7.77547998046875,0.07355844229459763,-0.059800151735544205,0.0373128317296505
1733902094241507000,7.785507080078125,0.07385831326246262,-0.07158543914556503,0.030547870323061943
1733902094251534000,7.7955341796875,0.07179513573646545,-0.08246725797653198,0.032845888286828995
1733902094261560000,7.80556005859375,0.07020176947116852,-0.08559034764766693,0.03989314287900925
1733902094271587000,7.815587158203125,0.07388941198587418,-0.0847553089261055,0.0454266332089901
1733902094281614000,7.825614013671875,0.08243416994810104,-0.07210156321525574,0.038982052356004715
1733902094291641000,7.83564111328125,0.10010386258363724,-0.0503898486495018,0.0003368163015693426
1733902094301668000,7.845668212890625,0.11726634204387665,-0.030555156990885735,-0.05707135051488876
1733902094311694000,7.855694091796875,0.1245688945055008,-0.022464390844106674,-0.11398773640394211
1733902094321721000,7.86572119140625,0.11298360675573349,-0.025594403967261314,-0.15143977105617523
1733902094331748000,7.875748046875,0.08681966364383698,-0.03537428379058838,-0.1527031809091568
1733902094341775000,7.885775146484375,0.05422443524003029,-0.05636531859636307,-0.11961100995540619
1733902094351801000,7.895801025390625,0.025596488267183304,-0.08464156836271286,-0.06119832396507263
1733902094361828000,7.905828125,0.012913450598716736,-0.11563996225595474,0.005261660553514957
1733902094371855000,7.915855224609375,0.019791830331087112,-0.14215746521949768,0.0504155308008194
1733902094381882000,7.925882080078125,0.03837670013308525,-0.14356067776679993,0.06963077187538147
1733902094391909000,7.9359091796875,0.057331617921590805,-0.114314965903759,0.06358233094215393
1733902094401935000,7.94593505859375,0.06847668439149857,-0.06201234832406044,0.049842819571495056
1733902094411962000,7.955962158203125,0.0756022110581398,-0.012559712864458561,0.040855955332517624
1733902094421988900,7.96598876953125,0.07390018552541733,0.018746012821793556,0.048626258969306946
1733902094432016100,7.97601611328125,0.06506700068712234,0.026308540254831314,0.06864418089389801
1733902094442043100,7.986043212890625,0.05000842362642288,0.01803915947675705,0.09627581387758255
1733902094452069000,7.996069091796875,0.03230293467640877,-0.008479217067360878,0.12395404279232025
1733902094462096000,8.006095947265624,0.02059061825275421,-0.03855162858963013,0.14151573181152344
1733902094472123100,8.016123046875,0.011095967143774033,-0.05821432173252106,0.14440716803073883
1733902094482150100,8.026150146484374,0.006443957332521677,-0.05415593087673187,0.13149350881576538
1733902094492177000,8.036177001953124,0.0067325131967663765,-0.03534368425607681,0.11291409283876419
1733902094502203000,8.046202880859376,0.004915437661111355,-0.012206939980387688,0.10297943651676178
1733902094512230100,8.056230224609376,0.005547219887375832,0.0020613078959286213,0.10928454995155334
1733902094522257200,8.066257080078126,0.013327645137906075,0.0014591673389077187,0.12656792998313904
1733902094532284000,8.076283935546876,0.021263625472784042,-0.01678616926074028,0.14456160366535187
1733902094542311200,8.086311279296876,0.03171652927994728,-0.034865036606788635,0.15743613243103027
1733902094552337200,8.096337158203125,0.0419272854924202,-0.04562973976135254,0.1545771360397339
1733902094562364200,8.1063642578125,0.04379655793309212,-0.05807336047291756,0.14575009047985077
1733902094572391000,8.116390869140625,0.03849899023771286,-0.06473727524280548,0.1351243406534195
1733902094582418000,8.12641796875,0.027631163597106934,-0.06039073318243027,0.13138766586780548
1733902094592444200,8.136444091796875,0.01297773141413927,-0.04650837928056717,0.13228656351566315
1733902094602471200,8.14647119140625,0.006417565979063511,-0.025406023487448692,0.14125023782253265
1733902094612498000,8.156497802734375,0.010134033858776093,-0.0036027440801262856,0.15005920827388763
1733902094622525000,8.16652490234375,0.017537619918584824,0.006293828599154949,0.1611669808626175
1733902094632552200,8.17655224609375,0.03207989037036896,0.010520627722144127,0.17045988142490387
1733902094642578200,8.186578125,0.04749160632491112,0.0017977096140384674,0.17525890469551086
1733902094652605200,8.196605224609375,0.05783567205071449,-0.007934716530144215,0.17597004771232605
1733902094662632000,8.2066318359375,0.0685543566942215,-0.02014664188027382,0.1724967509508133
1733902094672659200,8.2166591796875,0.07321750372648239,-0.02787035144865513,0.16643668711185455
1733902094682686200,8.226686279296874,0.06628129631280899,-0.041626375168561935,0.16664788126945496
1733902094692712200,8.236712158203124,0.05704095587134361,-0.07000419497489929,0.1716538369655609
1733902094702739000,8.246739013671874,0.05098599195480347,-0.09873197972774506,0.18220821022987366
1733902094712766200,8.25676611328125,0.05339370295405388,-0.12068266421556473,0.18875207006931305
1733902094722793200,8.266793212890626,0.05056462809443474,-0.13101546466350555,0.1899757981300354
1733902094732819200,8.276819091796876,0.04653506726026535,-0.12264738231897354,0.181830033659935
1733902094742846200,8.28684619140625,0.04305484890937805,-0.1139119490981102,0.1735776960849762
1733902094752873200,8.296873291015626,0.033233143389225006,-0.11007378250360489,0.1736515313386917
1733902094762900200,8.306900146484375,0.0271851047873497,-0.11378809064626694,0.1866685301065445
1733902094772927200,8.31692724609375,0.0280175618827343,-0.12874899804592133,0.2090480774641037
1733902094782953200,8.326953125,0.03855515643954277,-0.13689160346984863,0.2261839210987091
1733902094792980200,8.336980224609375,0.054118815809488297,-0.14479470252990723,0.22780512273311615
1733902094803007200,8.34700732421875,0.06950335949659348,-0.16447466611862183,0.21286825835704803
1733902094813034200,8.3570341796875,0.0774768590927124,-0.17619219422340393,0.19653934240341187
1733902094823061200,8.367061279296875,0.07574953883886337,-0.18733885884284973,0.19008196890354156
1733902094833087200,8.377087158203125,0.06861738115549088,-0.19841670989990234,0.19905981421470642
1733902094843114200,8.3871142578125,0.06645728647708893,-0.19707846641540527,0.21501827239990234
1733902094853141200,8.397141357421875,0.06612209230661392,-0.17273326218128204,0.22578659653663635
1733902094863168300,8.407168212890625,0.0659809485077858,-0.15615081787109375,0.2463536560535431
1733902094873194200,8.4171943359375,0.06818444281816483,-0.15263731777668,0.269034206867218
1733902094883221200,8.42722119140625,0.07450412213802338,-0.1451929807662964,0.29208892583847046
1733902094893248300,8.437248291015624,0.08317335695028305,-0.1367059350013733,0.30347883701324463
1733902094903275300,8.447275146484374,0.09013539552688599,-0.12438908219337463,0.2999938130378723
1733902094913302300,8.45730224609375,0.092649444937706,-0.10747920721769333,0.28478559851646423
1733902094923328300,8.467328369140626,0.09966367483139038,-0.08954387903213501,0.26414185762405396
1733902094933355000,8.47735498046875,0.09723136574029922,-0.079197458922863,0.24256166815757751
1733902094943382300,8.48738232421875,0.09290266036987305,-0.07885631173849106,0.2230452299118042
1733902094953409300,8.4974091796875,0.08120156079530716,-0.10043592005968094,0.21169166266918182
1733902094963436000,8.50743603515625,0.06987220793962479,-0.13279598951339722,0.20026163756847382
1733902094973462000,8.5174619140625,0.05576769635081291,-0.15996310114860535,0.18961019814014435
1733902094983489300,8.5274892578125,0.04904135316610336,-0.1698271930217743,0.18143269419670105
1733902094993516300,8.537516357421875,0.041081491857767105,-0.16496291756629944,0.17907078564167023
1733902095003543000,8.54754296875,0.03888864815235138,-0.1332947313785553,0.17848435044288635
1733902095013569000,8.557569091796875,0.039604946970939636,-0.10379291325807571,0.17957378923892975
1733902095023596300,8.56759619140625,0.04394616559147835,-0.09157779812812805,0.17792928218841553
1733902095033623300,8.577623291015625,0.043059878051280975,-0.1028037741780281,0.17805472016334534
1733902095043650000,8.587650146484375,0.03592659905552864,-0.1334301233291626,0.17513322830200195
1733902095053677300,8.59767724609375,0.022909216582775116,-0.16980290412902832,0.16799531877040863
1733902095063703300,8.607703369140625,0.012931417673826218,-0.2002132683992386,0.17024090886116028
1733902095073730300,8.617730224609375,0.00553496927022934,-0.20768579840660095,0.17232663929462433
1733902095083757000,8.627757080078124,0.008195467293262482,-0.19694207608699799,0.17516769468784332
1733902095093784000,8.6377841796875,0.018261071294546127,-0.1746182143688202,0.17511460185050964
1733902095103811300,8.647811279296874,0.03579771891236305,-0.14930753409862518,0.1728823482990265
1733902095113837300,8.65783740234375,0.0495932400226593,-0.14302946627140045,0.16754917800426483
1733902095123864000,8.667864013671876,0.05596059188246727,-0.1413508653640747,0.16202685236930847
1733902095133891000,8.67789111328125,0.052408359944820404,-0.135347381234169,0.16130849719047546
1733902095143918300,8.68791845703125,0.04210512340068817,-0.12405477464199066,0.1618797481060028
1733902095153944300,8.6979443359375,0.03336239233613014,-0.11761187016963959,0.16360244154930115
1733902095163971000,8.70797119140625,0.03165770322084427,-0.08954854309558868,0.16850878298282623
1733902095173998000,8.717998046875,0.02863900735974312,-0.06095098704099655,0.17320047318935394
1733902095184025300,8.728025390625,0.031100833788514137,-0.06039971113204956,0.18279211223125458
1733902095194052000,8.738052001953125,0.04354594647884369,-0.0514795295894146,0.1921820342540741
1733902095204078000,8.748078125,0.056277986615896225,-0.02249261923134327,0.19194048643112183
1733902095214105000,8.75810498046875,0.06665895879268646,0.002774249529466033,0.18598218262195587
1733902095224132400,8.76813232421875,0.07471076399087906,0.018331903964281082,0.17732983827590942
1733902095234159000,8.7781591796875,0.08035019040107727,0.04560348391532898,0.18112555146217346
1733902095244186000,8.78818603515625,0.09150803834199905,0.07155119627714157,0.20358799397945404
1733902095254212000,8.798212158203125,0.10682956129312515,0.08844579756259918,0.22648166120052338
1733902095264239400,8.8082392578125,0.11832429468631744,0.0984417051076889,0.23596517741680145
1733902095274266400,8.818266357421875,0.1135387271642685,0.09173298627138138,0.23336473107337952
1733902095284293000,8.828293212890625,0.09501218050718307,0.06239080801606178,0.23563028872013092
1733902095294320000,8.838320068359375,0.07960189878940582,0.022592607885599136,0.23778195679187775
1733902095304346000,8.84834619140625,0.06352919340133667,0.012107474729418755,0.24111010134220123
1733902095314373400,8.858373291015624,0.046110089868307114,-0.011044264771044254,0.23981112241744995
1733902095324400000,8.868400146484374,0.024630896747112274,-0.051338955760002136,0.22344626486301422
1733902095334427100,8.87842724609375,0.0021814333740621805,-0.08067963272333145,0.1998457908630371
1733902095344453000,8.888453125,-0.01862797513604164,-0.09411101788282394,0.17502033710479736
1733902095354480400,8.89848046875,-0.03554785996675491,-0.07867477834224701,0.16217109560966492
1733902095364507100,8.908507080078126,-0.03753457963466644,-0.024752162396907806,0.16471174359321594
1733902095374534100,8.9185341796875,-0.0242273211479187,0.023330964148044586,0.18395838141441345
1733902095384561400,8.9285615234375,0.004940150771290064,0.03892563655972481,0.20293819904327393
1733902095394587400,8.93858740234375,0.03310779482126236,0.00948616024106741,0.21704569458961487
1733902095404614100,8.9486142578125,0.04609975963830948,-0.05335858464241028,0.22048090398311615
1733902095414641200,8.95864111328125,0.05632057040929794,-0.10903947800397873,0.2134295105934143
1733902095424668400,8.96866845703125,0.05137960612773895,-0.1325405389070511,0.20266687870025635
1733902095434695200,8.978695068359375,0.038009051233530045,-0.12827898561954498,0.18908406794071198
1733902095444721200,8.98872119140625,0.024252230301499367,-0.09800763428211212,0.17923995852470398
1733902095454748200,8.998748046875,0.012943774461746216,-0.05451938137412071,0.17887204885482788
1733902095464775200,9.008775146484375,-0.004120164085179567,-0.034551795572042465,0.1948118656873703
1733902095474802200,9.01880224609375,-0.019591156393289566,-0.03881022334098816,0.2160397619009018
1733902095484828200,9.028828125,-0.02851301245391369,-0.05255559831857681,0.2323119342327118
1733902095494855200,9.038855224609375,-0.031310372054576874,-0.0635153278708458,0.2379024773836136
1733902095504882200,9.048882080078124,-0.03464065492153168,-0.08349195867776871,0.2384694665670395
1733902095514909200,9.0589091796875,-0.035335786640644073,-0.08698465675115585,0.22794751822948456
1733902095524936200,9.068936279296874,-0.04050205647945404,-0.08579368889331818,0.20340515673160553
1733902095534962200,9.078962158203124,-0.044798798859119415,-0.10017795860767365,0.17577220499515533
1733902095544989200,9.0889892578125,-0.050340838730335236,-0.1158975288271904,0.14555731415748596
1733902095555016200,9.09901611328125,-0.05836975947022438,-0.1252414733171463,0.11909451335668564
1733902095565043200,9.109043212890626,-0.062370359897613525,-0.12174475193023682,0.09450368583202362
1733902095575070200,9.1190703125,-0.08406844735145569,-0.12372419238090515,0.08803489804267883
1733902095585096200,9.12909619140625,-0.1108795553445816,-0.1282518357038498,0.08751851320266724
1733902095595123200,9.139123291015625,-0.12678873538970947,-0.13636355102062225,0.07710155844688416
1733902095605150200,9.149150146484375,-0.12603746354579926,-0.14348430931568146,0.057173386216163635
1733902095615177200,9.15917724609375,-0.10962597280740738,-0.15612061321735382,0.029487188905477524
1733902095625204000,9.169203857421875,-0.07943690568208694,-0.15969990193843842,0.0006704535335302353
1733902095635230200,9.179230224609375,-0.04670639708638191,-0.16573035717010498,-0.023887887597084045
1733902095645257200,9.18925732421875,-0.029752712696790695,-0.17503464221954346,-0.04497825726866722
1733902095655284200,9.1992841796875,-0.03381773829460144,-0.17251956462860107,-0.060763586312532425
1733902095665311000,9.20931103515625,-0.05459225922822952,-0.17122367024421692,-0.07380854338407516
1733902095675337200,9.219337158203125,-0.08101753145456314,-0.16877688467502594,-0.07292895764112473
1733902095685364200,9.2293642578125,-0.09842927753925323,-0.18112410604953766,-0.06105205416679382
1733902095695391200,9.23939111328125,-0.10300040990114212,-0.2045019567012787,-0.044900599867105484
1733902095705418000,9.24941796875,-0.09821949899196625,-0.22263941168785095,-0.03326524794101715
1733902095715445200,9.2594453125,-0.0837063118815422,-0.2212228924036026,-0.03474034368991852
1733902095725471200,9.26947119140625,-0.07029996067285538,-0.206269770860672,-0.04099477827548981
1733902095735498200,9.279498291015624,-0.0553775429725647,-0.1819409430027008,-0.04674888774752617
1733902095745525000,9.28952490234375,-0.043568022549152374,-0.14735233783721924,-0.040761567652225494
1733902095755551700,9.2995517578125,-0.03280997276306152,-0.12390737235546112,-0.024338966235518456
1733902095765578800,9.309578857421876,-0.003564203158020973,-0.08450190722942352,-0.017733529210090637
1733902095775604700,9.319604736328126,-0.008744955062866211,-0.10133257508277893,-0.009554006159305573
1733902095785632000,9.329632080078126,-0.03964640945196152,-0.1467975378036499,-0.010648831725120544
1733902095795658800,9.33965869140625,-0.07058198750019073,-0.18155910074710846,-0.018435141071677208
1733902095805685800,9.349685791015625,-0.0808870866894722,-0.18911102414131165,-0.03131711483001709
1733902095815713000,9.359713134765625,-0.08109095692634583,-0.19733668863773346,-0.03943856060504913
1733902095825739000,9.369739013671875,-0.07438485324382782,-0.19880755245685577,-0.04595185071229935
1733902095835765800,9.379765869140625,-0.06053166091442108,-0.22048479318618774,-0.03927084058523178
1733902095845792800,9.389792724609375,-0.045377474278211594,-0.23114275932312012,-0.021776534616947174
1733902095855820000,9.399820068359375,-0.04028400033712387,-0.23023220896720886,0.014078323729336262
1733902095865846000,9.409845947265625,-0.049882300198078156,-0.24204865097999573,0.0565381683409214
1733902095875872800,9.419872802734375,-0.059746962040662766,-0.24066777527332306,0.08355987817049026
1733902095885899800,9.429899658203125,-0.07243452221155167,-0.23307590186595917,0.09548044949769974
1733902095895926800,9.4399267578125,-0.08718439936637878,-0.2328246831893921,0.08946868777275085
1733902095905953800,9.449953857421875,-0.09153467416763306,-0.2016470581293106,0.06224745512008667
1733902095915979800,9.459979736328124,-0.08994632959365845,-0.21226106584072113,0.03256601095199585
1733902095926006800,9.4700068359375,-0.1097264289855957,-0.2273566573858261,0.022018032148480415
1733902095936033800,9.48003369140625,-0.12136580795049667,-0.2178843468427658,0.024311257526278496
1733902095946060800,9.490060791015624,-0.10841777920722961,-0.20436987280845642,0.04508444666862488
1733902095956087800,9.500087890625,-0.08053259551525116,-0.1714474856853485,0.07096320390701294
1733902095966113800,9.51011376953125,-0.04163792356848717,-0.14133726060390472,0.09873944520950317
1733902095976140800,9.520140869140626,-0.004388218745589256,-0.13290339708328247,0.11114875227212906
1733902095986167800,9.530167724609376,0.022943802177906036,-0.14945760369300842,0.1184021383523941
1733902095996194800,9.54019482421875,0.034695301204919815,-0.19883711636066437,0.11606155335903168
1733902096006221800,9.550221923828126,0.024169689044356346,-0.22827009856700897,0.10952349007129669
1733902096016247800,9.560247802734375,-0.01379377767443657,-0.230760395526886,0.10045239329338074
1733902096026274800,9.57027490234375,-0.06134451925754547,-0.22262230515480042,0.08765963464975357
1733902096036301800,9.5803017578125,-0.10362481325864792,-0.19451197981834412,0.0657847449183464
1733902096046328800,9.590328857421875,-0.1300915777683258,-0.17576146125793457,0.05222632363438606
1733902096056354800,9.600354736328125,-0.13722200691699982,-0.16207817196846008,0.03721584007143974
1733902096066381800,9.6103818359375,-0.12823757529258728,-0.16015297174453735,0.0254657082259655
1733902096076408800,9.620408935546875,-0.10667207837104797,-0.14855533838272095,-0.0009735928615555167
1733902096086435800,9.630435791015625,-0.07821061462163925,-0.1493186056613922,-0.03921232372522354
1733902096096462800,9.640462890625,-0.05937566980719566,-0.13042359054088593,-0.0722443088889122
1733902096106488800,9.65048876953125,-0.048127807676792145,-0.1075422465801239,-0.08556624501943588
1733902096116515800,9.660515869140625,-0.04642113298177719,-0.08574441820383072,-0.08853317052125931
1733902096126542800,9.67054296875,-0.04472390189766884,-0.052366483956575394,-0.0725904256105423
1733902096136569900,9.68056982421875,-0.04529095068573952,-0.024961767718195915,-0.04595886170864105
1733902096146596900,9.690596923828124,-0.050158675760030746,-0.014818585477769375,-0.02470390498638153
1733902096156622800,9.700622802734374,-0.054670024663209915,-0.00978019181638956,-0.024164028465747833
1733902096166649900,9.71064990234375,-0.062493592500686646,-0.021276526153087616,-0.026042090728878975
1733902096176676900,9.7206767578125,-0.07049636542797089,-0.02394556626677513,-0.026921171694993973
1733902096186704000,9.730703857421876,-0.07540403306484222,-0.03499715030193329,-0.029348643496632576
1733902096196731000,9.74073095703125,-0.08249108493328094,-0.04499009624123573,-0.027918362990021706
1733902096206756900,9.7507568359375,-0.09230110049247742,-0.04317035898566246,-0.01687237061560154
1733902096216784000,9.760783935546876,-0.09176157414913177,-0.053969189524650574,-0.00036079948768019676
1733902096226811000,9.770810791015625,-0.08511139452457428,-0.05749468505382538,0.009899561293423176
1733902096236838000,9.780837890625,-0.06705963611602783,-0.07868534326553345,0.014001946896314621
1733902096246864000,9.79086376953125,-0.03935237228870392,-0.035386066883802414,0.015877345576882362
1733902096256891000,9.800890869140625,-0.01309780590236187,0.029113302007317543,0.00945890974253416
1733902096266918000,9.81091796875,0.0008329234551638365,0.07003676891326904,0.009322289377450943
1733902096276945000,9.82094482421875,-0.0005070533370599151,0.09827017039060593,0.03752024099230766
1733902096286972000,9.830971923828125,-0.005801684223115444,0.06863318383693695,0.06746961921453476
1733902096296998000,9.840997802734375,-0.014309283345937729,0.021757494658231735,0.07101335376501083
1733902096307024600,9.851024658203125,-0.009277773089706898,-0.01866289973258972,0.05500056594610214
1733902096317052000,9.861052001953125,0.014958750456571579,-0.02725140191614628,0.03299262747168541
1733902096327079000,9.871078857421875,0.03501554951071739,-0.03497190773487091,0.016521509736776352
1733902096337105700,9.881105712890625,0.04912079498171806,-0.015622504986822605,0.01809844933450222
1733902096347131600,9.891131591796874,0.049250490963459015,0.003042791271582246,0.04133399575948715
1733902096357159000,9.901158935546874,0.039171475917100906,0.003807720262557268,0.06578230857849121
1733902096367186000,9.91118603515625,0.017747944220900536,-0.02075248397886753,0.07727624475955963
1733902096377212700,9.921212646484374,0.014765468426048756,-0.03733598813414574,0.06902977079153061
1733902096387240000,9.931239990234374,0.03659912571310997,-0.03889899700880051,0.043193649500608444
1733902096397266000,9.941265869140626,0.06333853304386139,-0.013070760294795036,0.02638239786028862
1733902096407293000,9.95129296875,0.08037743717432022,0.0103144571185112,0.038935739547014236
1733902096417319700,9.961319580078126,0.08222497999668121,0.025880707427859306,0.06052662804722786
1733902096427347000,9.971346923828126,0.06677491962909698,0.03211437165737152,0.07163627445697784
1733902096437373000,9.981373046875,0.05334771052002907,0.005313443951308727,0.0648198276758194
1733902096447400000,9.99139990234375,0.0424596443772316,-0.017279483377933502,0.05857577919960022
1733902096457426700,10.0014267578125,0.032969631254673004,-0.013017168268561363,0.06925494968891144
1733902096467453700,10.01145361328125,0.024047506973147392,-0.006402941420674324,0.07224833965301514
1733902096477481000,10.02148095703125,0.02070324495434761,0.012550987303256989,0.06425899267196655
1733902096487507000,10.0315068359375,0.02195599675178528,0.049841903150081635,0.05347425118088722
1733902096497533700,10.04153369140625,0.022609751671552658,0.07149796932935715,0.05086935684084892
1733902096507560700,10.051560791015625,0.008991146460175514,0.06502089649438858,0.049507949501276016
1733902096517588000,10.061587890625,-0.011007118970155716,0.055003032088279724,0.057685401290655136
1733902096527614700,10.07161474609375,-0.022089598700404167,0.0281439870595932,0.06788850575685501
1733902096537640700,10.081640625,-0.015319259837269783,-0.006632144097238779,0.059977639466524124
1733902096547667700,10.091667724609374,0.0008554491214454174,-0.002645125612616539,0.03256865218281746
1733902096557695000,10.101695068359374,0.02539072558283806,0.053292252123355865,-0.011257551610469818
1733902096567721700,10.1117216796875,0.027490895241498947,0.08693862706422806,-0.03905829042196274
1733902096577748700,10.121748779296874,0.0004791265819221735,0.10671882331371307,-0.026209739968180656
1733902096587774700,10.131774658203126,-0.03544798120856285,0.1101742759346962,0.011218857020139694
1733902096597802000,10.141802001953126,-0.0641724243760109,0.09766874462366104,0.03572782874107361
1733902096607828700,10.151828857421876,-0.060731083154678345,0.0551987886428833,0.01870410330593586
1733902096617855700,10.161855712890626,-0.04005395248532295,0.043682731688022614,-0.016686566174030304
1733902096627882800,10.1718828125,-0.03432495892047882,0.08268498629331589,-0.029166938737034798
1733902096637909000,10.181908935546875,-0.036383453756570816,0.12440383434295654,-0.019600193947553635
1733902096647935700,10.191935791015625,-0.04256438463926315,0.14585347473621368,-0.006371740717440844
1733902096657962800,10.201962646484375,-0.052914950996637344,0.16289231181144714,0.008469604887068272
1733902096667989800,10.21198974609375,-0.07675103843212128,0.15526235103607178,0.017011161893606186
1733902096678016000,10.22201611328125,-0.08164174854755402,0.0979250967502594,0.007481757085770369
1733902096688042800,10.232042724609375,-0.067111536860466,0.05392914265394211,-0.012644816190004349
1733902096698069800,10.24206982421875,-0.045037392526865005,0.044911302626132965,-0.029406756162643433
1733902096708096800,10.2520966796875,-0.034204453229904175,0.06573855131864548,-0.03835710883140564
1733902096718124000,10.2621240234375,-0.029935622587800026,0.08580276370048523,-0.03893948346376419
1733902096728150000,10.27214990234375,-0.043640781193971634,0.1543184518814087,-0.03941113129258156
1733902096738176800,10.2821767578125,-0.07492967694997787,0.1945909857749939,-0.028301700949668884
1733902096748203500,10.29220361328125,-0.08621002733707428,0.17337864637374878,-0.008763152174651623
1733902096758230800,10.302230712890625,-0.08292624354362488,0.1487094759941101,0.020021194592118263
1733902096768257500,10.312257568359374,-0.06970071792602539,0.11422847956418991,0.03704598546028137
1733902096778283500,10.322283447265624,-0.04021720215678215,0.05697430297732353,0.018393123522400856
1733902096788310500,10.332310546875,0.00135633978061378,0.01514296792447567,-0.03629861772060394
1733902096798337500,10.342337646484374,0.015077309682965279,0.03318377956748009,-0.07894929498434067
1733902096808364500,10.352364501953126,0.0009279358200728893,0.06733828783035278,-0.08617285639047623
1733902096818391600,10.3623916015625,-0.01756417378783226,0.12847566604614258,-0.06997489929199219
1733902096828417500,10.37241748046875,-0.045805931091308594,0.190813347697258,-0.03225548565387726
1733902096838444500,10.382444580078126,-0.07013235986232758,0.2028142213821411,0.008100941777229309
1733902096848471600,10.392471435546875,-0.07252414524555206,0.14939574897289276,0.03517650067806244
1733902096858498600,10.40249853515625,-0.05243277922272682,0.06638158857822418,0.04189453646540642
1733902096868524500,10.412524658203125,-0.016950685530900955,-0.018186287954449654,0.01843741349875927
1733902096878551600,10.422551513671875,0.009260596707463264,-0.07645794749259949,-0.02502385526895523
1733902096888578600,10.43257861328125,0.020833894610404968,-0.05940333008766174,-0.07937045395374298
1733902096898605600,10.44260546875,0.0003158925101161003,0.038429874926805496,-0.10859166830778122
1733902096908632600,10.452632568359375,-0.033143796026706696,0.14790576696395874,-0.0951368436217308
1733902096918658600,10.462658447265625,-0.05136152729392052,0.23327341675758362,-0.05687371641397476
1733902096928685600,10.472685546875,-0.04048304632306099,0.2824433743953705,0.0025840168818831444
1733902096938712600,10.482712646484375,-0.018327197059988976,0.26906618475914,0.05277442932128906
1733902096948739600,10.492739501953125,0.012442965060472488,0.185266375541687,0.06241640821099281
1733902096958766300,10.502766357421875,0.04092169180512428,0.07398675382137299,0.019741857424378395
1733902096968792600,10.51279248046875,0.03142006695270538,0.0010443762876093388,-0.04731041193008423
1733902096978819600,10.522819580078124,-0.014337833970785141,-0.0033801994286477566,-0.09678049385547638
1733902096988846600,10.5328466796875,-0.051002904772758484,0.06038413196802139,-0.11049710214138031
1733902096998873600,10.54287353515625,-0.07434490323066711,0.19366249442100525,-0.0895877480506897
1733902097008900600,10.552900634765624,-0.08250243216753006,0.299103707075119,-0.04247722774744034
1733902097018926600,10.562926513671876,-0.07189349830150604,0.307901531457901,0.000021437881514430046
1733902097028953600,10.57295361328125,-0.03733978793025017,0.236299529671669,0.023842349648475647
1733902097038980600,10.582980712890626,0.009391945786774158,0.11620589345693588,0.012657527811825275
1733902097049007600,10.593007568359376,0.04920060932636261,-0.017300767824053764,-0.03312407433986664
1733902097059034600,10.60303466796875,0.06310492008924484,-0.09087017923593521,-0.08708349615335464
1733902097069060600,10.613060546875,0.04842424392700195,-0.043895743787288666,-0.12095411121845245
1733902097079087600,10.623087646484375,0.019801998510956764,0.08231166005134583,-0.12269174307584763
1733902097089114600,10.633114501953125,-0.0037075886502861977,0.20728528499603271,-0.09106297791004181
1733902097099141600,10.6431416015625,-0.020091960206627846,0.30147460103034973,-0.03290894627571106
1733902097109167600,10.653167724609375,-0.017326533794403076,0.31466495990753174,0.03725549578666687
1733902097119194600,10.663194580078125,0.017439542338252068,0.23335766792297363,0.08931002020835876
1733902097129221600,10.6732216796875,0.06155826896429062,0.09212064743041992,0.08939390629529953
1733902097139248600,10.68324853515625,0.0865871012210846,-0.05999244377017021,0.03665072098374367
1733902097149275600,10.693275634765625,0.08437241613864899,-0.12006589770317078,-0.05708376318216324
1733902097159301600,10.703301513671875,0.05531813204288483,0.00045039551332592964,-0.1374100297689438
1733902097169328600,10.71332861328125,0.01374751515686512,0.1842910647392273,-0.15941758453845978
1733902097179355600,10.723355712890625,-0.01971595548093319,0.34427717328071594,-0.12793508172035217
1733902097189382700,10.733382568359374,-0.03326638787984848,0.46389544010162354,-0.048328936100006104
1733902097199409400,10.743409423828124,-0.026451297104358673,0.44661736488342285,0.05782764405012131
1733902097209435400,10.753435302734376,-0.00007428531534969807,0.28158900141716003,0.1276852786540985
1733902097219462700,10.763462646484374,0.035150036215782166,0.05116111412644386,0.12995672225952148
1733902097229489700,10.77348974609375,0.05619273707270622,-0.15391427278518677,0.06724940240383148
1733902097239516400,10.783516357421876,0.04525678604841232,-0.22328592836856842,-0.03605109825730324
1733902097249543700,10.793543701171876,0.005256373435258865,-0.12353244423866272,-0.12768249213695526
1733902097259569700,10.803569580078126,-0.029682405292987823,0.08073827624320984,-0.1613120585680008
1733902097269596700,10.8135966796875,-0.04667656868696213,0.30448535084724426,-0.1330053210258484
1733902097279623400,10.82362353515625,-0.043844062834978104,0.4397578239440918,-0.05776624754071236
1733902097289650700,10.833650634765625,-0.013835562393069267,0.44267505407333374,0.020337341353297234
1733902097299677700,10.843677734375,0.027332652360200882,0.30655813217163086,0.06612879782915115
1733902097309703700,10.85370361328125,0.06419133394956589,0.10822851210832596,0.06158357486128807
1733902097319730400,10.86373046875,0.07229839265346527,-0.06970707327127457,0.015546446666121483
1733902097329757700,10.8737578125,0.04088108241558075,-0.14128325879573822,-0.05018116906285286
1733902097339784700,10.88378466796875,-0.00682984571903944,-0.07514610886573792,-0.0991206169128418
1733902097349811500,10.8938115234375,-0.034933120012283325,0.04830126464366913,-0.11882853507995605
1733902097359837400,10.90383740234375,-0.052524443715810776,0.21120406687259674,-0.0960167795419693
1733902097369864400,10.913864501953125,-0.05584407597780228,0.30870211124420166,-0.03348948806524277
1733902097379891700,10.9238916015625,-0.039544329047203064,0.2775319218635559,0.0418781042098999
1733902097389918500,10.93391845703125,-0.0050345528870821,0.17248697578907013,0.09313462674617767
1733902097399944400,10.9439443359375,0.021563973277807236,0.02781740203499794,0.09353166073560715
1733902097409971500,10.953971435546874,0.026015980169177055,-0.10952101647853851,0.04265649616718292
1733902097419998700,10.963998779296874,0.009026454761624336,-0.13656970858573914,-0.03558627516031265
1733902097430025500,10.974025390625,-0.013467669486999512,-0.029661905020475388,-0.09926965087652206
1733902097440052500,10.984052490234374,-0.015072173438966274,0.10978090018033981,-0.13091567158699036
1733902097450078500,10.994078369140626,-0.005197438411414623,0.24092161655426025,-0.1187325045466423
1733902097460105700,11.004105712890626,0.0075779566541314125,0.2985387146472931,-0.06399208307266235
1733902097470132500,11.014132568359376,0.029823075979948044,0.2444472461938858,-0.0014112573117017746
1733902097480159500,11.024159423828126,0.05001961067318916,0.11489050090312958,0.029132457450032234
1733902097490186800,11.034186767578126,0.058218151330947876,-0.03108109161257744,0.012093020603060722
1733902097500212700,11.044212646484375,0.049500349909067154,-0.13796651363372803,-0.04686558619141579
1733902097510239500,11.054239501953125,0.02486504800617695,-0.11164196580648422,-0.11189012974500656
1733902097520266500,11.0642666015625,0.004203171469271183,0.00288935168646276,-0.14822736382484436
1733902097530293500,11.07429345703125,0.013948209583759308,0.12537531554698944,-0.15098853409290314
1733902097540320500,11.084320556640625,0.023029325529932976,0.24198438227176666,-0.11848437786102295
1733902097550346500,11.094346435546875,0.03081267885863781,0.27394524216651917,-0.05823781341314316
1733902097560373500,11.10437353515625,0.032256271690130234,0.19592967629432678,-0.002339233411476016
1733902097570400500,11.114400390625,0.02759041264653206,0.07396809011697769,0.01646800898015499
1733902097580427500,11.124427490234375,0.016604028642177582,-0.03576550632715225,-0.009298664517700672
1733902097590454500,11.13445458984375,0.0049582901410758495,-0.09675083309412003,-0.06773267686367035
1733902097600480500,11.14448046875,-0.009981527924537659,-0.06473519653081894,-0.12652119994163513
1733902097610507500,11.154507568359374,-0.02478577382862568,0.03784390538930893,-0.15579305589199066
1733902097620534800,11.16453466796875,-0.03223313018679619,0.14813192188739777,-0.15135231614112854
1733902097630561500,11.1745615234375,-0.03116760030388832,0.24316656589508057,-0.11660898476839066
1733902097640587500,11.18458740234375,-0.019838009029626846,0.27655163407325745,-0.06461823731660843
1733902097650614500,11.194614501953126,0.004049480892717838,0.22978520393371582,-0.025731028988957405
1733902097660641800,11.204641845703126,0.030294938012957573,0.13402119278907776,-0.01662834733724594
1733902097670668500,11.21466845703125,0.04306692257523537,0.025790318846702576,-0.04250335320830345
1733902097680695600,11.224695556640626,0.04110225290060043,-0.05344592034816742,-0.09336178749799728
1733902097690721500,11.234721435546875,0.02495630644261837,-0.04491421952843666,-0.1517939418554306
1733902097700748800,11.244748779296875,0.0012514363043010235,0.042319707572460175,-0.1851075142621994
1733902097710775600,11.254775634765625,-0.022903967648744583,0.1471497118473053,-0.17375019192695618
1733902097720802600,11.264802490234375,-0.037984833121299744,0.23822645843029022,-0.12839248776435852
1733902097730829600,11.27482958984375,-0.032105639576911926,0.2975054979324341,-0.057708196341991425
1733902097740856300,11.284856201171875,-0.0050889430567622185,0.2750638723373413,-0.0030044640880078077
1733902097750883300,11.29488330078125,0.019977528601884842,0.17581374943256378,0.011381133459508419
1733902097760910300,11.304910400390625,0.03216798976063728,0.05116141214966774,-0.02514934167265892
1733902097770937300,11.314937255859375,0.02558944746851921,-0.046054620295763016,-0.09652739018201828
1733902097780964400,11.32496435546875,-0.00347670866176486,-0.04235296696424484,-0.16189563274383545
1733902097790990300,11.334990234375,-0.03801710903644562,0.03541133552789688,-0.18799301981925964
1733902097801017300,11.345017333984375,-0.054658934473991394,0.12627413868904114,-0.1712619811296463
1733902097811044400,11.35504443359375,-0.05132758617401123,0.22894032299518585,-0.12498342245817184
1733902097821071400,11.3650712890625,-0.03250338137149811,0.2947043478488922,-0.06951864808797836
1733902097831098400,11.375098388671875,-0.003760415827855468,0.256399542093277,-0.03381657972931862
1733902097841124400,11.385124267578124,0.016484830528497696,0.16630420088768005,-0.041582994163036346
1733902097851151400,11.3951513671875,0.026939868927001953,0.07306453585624695,-0.08450356870889664
1733902097861178400,11.405178466796874,0.013646421954035759,0.003911248408257961,-0.1433676779270172
1733902097871205400,11.415205322265624,-0.013548181392252445,-0.008539295755326748,-0.1808793693780899
1733902097881232400,11.425232421875,-0.040149398148059845,0.05472438782453537,-0.17933949828147888
1733902097891258400,11.43525830078125,-0.06023549288511276,0.18338383734226227,-0.12482219934463501
1733902097901285400,11.445285400390626,-0.06142302602529526,0.2796388566493988,-0.047584693878889084
1733902097911312400,11.4553125,-0.03609689697623253,0.29526203870773315,0.025899110361933708
1733902097921339400,11.46533935546875,0.005159303080290556,0.24198102951049805,0.06541173905134201
1733902097931365400,11.475365478515625,0.03569217771291733,0.13149286806583405,0.05733064189553261
1733902097941392400,11.485392333984375,0.04775017499923706,-0.012551647610962391,0.010697628371417522
1733902097951419400,11.49541943359375,0.03959903493523598,-0.12135215848684311,-0.06040984019637108
1733902097961446400,11.5054462890625,0.004856687970459461,-0.130944162607193,-0.11772966384887695
1733902097971473400,11.515473388671875,-0.034527737647295,-0.051840558648109436,-0.13251793384552002
1733902097981499400,11.52549951171875,-0.05518672987818718,0.05418296158313751,-0.1036682277917862
1733902097991526400,11.5355263671875,-0.05121302604675293,0.18243227899074554,-0.04779350757598877
1733902098001553400,11.545553466796875,-0.0293098334223032,0.2791002094745636,0.011503662914037704
1733902098011580400,11.555580322265625,0.012404057197272778,0.28965139389038086,0.042910054326057434
1733902098021607400,11.565607421875,0.054376017302274704,0.2258138656616211,0.02619152143597603
1733902098031633400,11.57563330078125,0.08004570007324219,0.12457647174596786,-0.024982448667287827
1733902098041660400,11.585660400390625,0.0764378234744072,0.030954379588365555,-0.08264422416687012
1733902098051687400,11.5956875,0.04523809254169464,-0.01720702461898327,-0.1199849396944046
1733902098061714400,11.60571435546875,0.0046227797865867615,-0.019544392824172974,-0.12952488660812378
1733902098071741400,11.615741455078124,-0.03243643790483475,0.03835752233862877,-0.1087128147482872
1733902098081767400,11.625767333984374,-0.0484294630587101,0.11020535230636597,-0.07120213657617569
1733902098091794200,11.635794189453126,-0.039743561297655106,0.164448082447052,-0.036049745976924896
1733902098101821400,11.645821533203126,-0.014779510907828808,0.19079309701919556,-0.025243597105145454
1733902098111848400,11.655848388671876,0.01569024659693241,0.17630790174007416,-0.04578482359647751
1733902098121875200,11.665875244140626,0.03581433743238449,0.12307079881429672,-0.09206744283437729
1733902098131901200,11.675901123046875,0.04791813716292381,0.043942421674728394,-0.14580976963043213
1733902098141928400,11.685928466796875,0.03872879222035408,-0.03170261159539223,-0.1912524700164795
1733902098151955500,11.69595556640625,0.0008562479633837938,-0.04914844408631325,-0.20271843671798706
1733902098161982200,11.705982177734375,-0.04339979216456413,-0.022391483187675476,-0.17512105405330658
1733902098172009500,11.716009521484375,-0.06763322651386261,0.017320243641734123,-0.12859269976615906
1733902098182035500,11.726035400390625,-0.06778082996606827,0.0745311826467514,-0.08252090215682983
1733902098192062500,11.7360625,-0.054536134004592896,0.11643948405981064,-0.05498514324426651
1733902098202089200,11.746089111328125,-0.03832396864891052,0.10493660718202591,-0.06642642617225647
1733902098212116500,11.756116455078125,-0.021787598729133606,0.057626087218523026,-0.10723244398832321
1733902098222143500,11.7661435546875,-0.006162117701023817,-0.00480425450950861,-0.1632411926984787
1733902098232169500,11.77616943359375,-0.00878293439745903,-0.05904006212949753,-0.21455338597297668
1733902098242196200,11.7861962890625,-0.039066657423973083,-0.0679914802312851,-0.2361626774072647
1733902098252223200,11.79622314453125,-0.07340732216835022,-0.04629417508840561,-0.2151559293270111
1733902098262250500,11.80625048828125,-0.08834122121334076,0.006233653519302607,-0.1610678732395172
1733902098272277200,11.81627734375,-0.07780442386865616,0.09361489862203598,-0.0896056666970253
1733902098282303200,11.82630322265625,-0.046797532588243484,0.1516123265028,-0.03479864075779915
1733902098292330200,11.836330322265624,-0.003630354069173336,0.1526070237159729,-0.02615029364824295
1733902098302357500,11.846357421875,0.02758466824889183,0.11662768572568893,-0.06206105276942253
1733902098312384300,11.85638427734375,0.04422569274902344,0.06383291631937027,-0.11849769949913025
1733902098322411300,11.866411376953126,0.033827997744083405,0.008874950930476189,-0.1684928834438324
1733902098332437200,11.876437255859376,0.004675171338021755,-0.03205623850226402,-0.19557854533195496
1733902098342464500,11.886464599609376,-0.034795086830854416,-0.04233533516526222,-0.18790394067764282
1733902098352491300,11.8964912109375,-0.066828653216362,-0.013332178816199303,-0.15910211205482483
1733902098362518300,11.906518310546875,-0.0821758583188057,0.04189284145832062,-0.11129139363765717
1733902098372545500,11.916545654296876,-0.08105200529098511,0.09840485453605652,-0.06499660015106201
1733902098382571500,11.926571533203125,-0.06328108161687851,0.11636751145124435,-0.0437806099653244
1733902098392598300,11.936598388671875,-0.0455193966627121,0.10335370898246765,-0.058178722858428955
1733902098402625300,11.946625244140625,-0.03069715015590191,0.06661410629749298,-0.09811745584011078
1733902098412652300,11.95665234375,-0.022322574630379677,0.015535475686192513,-0.14684158563613892
1733902098422679600,11.966679443359375,-0.022048745304346085,-0.0423242449760437,-0.1878584772348404
1733902098432705300,11.976705322265625,-0.028145253658294678,-0.08730849623680115,-0.21972665190696716
1733902098442732300,11.986732177734375,-0.05392657592892647,-0.10576912015676498,-0.22795695066452026
1733902098452759300,11.99675927734375,-0.08697906136512756,-0.0709376335144043,-0.21446830034255981
1733902098462786600,12.00678662109375,-0.10721781104803085,-0.004697473719716072,-0.18342015147209167
1733902098472813300,12.016813232421875,-0.09907519817352295,0.07085241377353668,-0.14308951795101166
1733902098482839300,12.02683935546875,-0.06899608671665192,0.14268215000629425,-0.11087588965892792
1733902098492866300,12.0368662109375,-0.03267669677734375,0.1765514314174652,-0.09265640377998352
1733902098502893600,12.0468935546875,-0.0034525052178651094,0.15868093073368073,-0.09514140337705612
1733902098512920300,12.05692041015625,0.015131033025681973,0.11420828104019165,-0.10984710603952408
1733902098522947300,12.066947265625,0.013699301518499851,0.05800723284482956,-0.12530812621116638
1733902098532973300,12.076973388671876,-0.004987035412341356,0.0013277095276862383,-0.13177214562892914
1733902098543000600,12.08700048828125,-0.0317428857088089,-0.0408998504281044,-0.12980127334594727
1733902098553027300,12.09702734375,-0.054764583706855774,-0.04888667166233063,-0.11229445040225983
1733902098563054300,12.107054443359376,-0.06376630812883377,-0.008432208560407162,-0.07191291451454163
1733902098573081300,12.117081298828126,-0.04979563504457474,0.062410272657871246,-0.01934930309653282
1733902098583107600,12.127107666015625,-0.016113972291350365,0.12488062679767609,0.022193748503923416
1733902098593134300,12.13713427734375,0.019038956612348557,0.1533396989107132,0.03761504963040352
1733902098603161300,12.147161376953125,0.04788082838058472,0.14701557159423828,0.012889569625258446
1733902098613188400,12.157188232421875,0.06895176321268082,0.11131562292575836,-0.03986259177327156
1733902098623215400,12.16721533203125,0.07240909337997437,0.06360168009996414,-0.0902024656534195
1733902098633241300,12.177241455078125,0.0658598467707634,0.019271500408649445,-0.1230166107416153
1733902098643268400,12.187268310546875,0.054258447140455246,-0.015407328493893147,-0.13530509173870087
