time,seconds_elapsed,z,y,x
1733851433741893400,0.016893310546875,-1.8432132067590952,-0.10375380446314811,-1.6025304734617472
1733851433751862300,0.0268623046875,-2.03830206361711,-0.48169572146236894,-1.1084335355877875
1733851433761830100,0.036830078125,-1.8334657197266817,-0.3053668023929,-1.0723252803742884
1733851433771799000,0.046799072265625,-1.651401179614663,-0.2611728558793664,-0.9379390217602253
1733851433781767200,0.05676708984375,-2.1474989359170196,-1.3295929455086588,-1.3672960686981677
1733851433791736000,0.066736083984375,-3.381411201041937,-1.4954787964969873,-1.4937193856090307
1733851433801704200,0.0767041015625,-4.404321585384011,-1.0744979482382535,-1.3664379905641078
1733851433811673000,0.086673095703125,-5.5299318812221285,-1.1750400971785186,-1.4189701418340206
1733851433821641200,0.09664111328125,-6.538784514117241,-1.4140955215349793,-1.7554186034500598
1733851433831610000,0.106610107421875,-6.099171446102857,-0.5601464501038194,-2.145855844885111
1733851433841579300,0.116579345703125,-4.961700616601109,-0.5891948499336839,-3.0057991882950064
1733851433851547100,0.126547119140625,-4.179580517584085,-1.1138687123790383,-3.933998321807384
1733851433861516300,0.136516357421875,-4.839219315314293,-2.424841420830786,-2.5448557474821802
1733851433871484200,0.146484130859375,-5.053536604255438,-2.5043659161835907,-0.7687064906924963
1733851433881453300,0.156453369140625,-4.104028725254535,-1.7161232426330446,0.17719371920526025
1733851433891422200,0.166422119140625,-1.8302564022913574,-0.7835387336432933,0.1788788958132267
1733851433901390000,0.17639013671875,-0.6053215166091919,-0.03810264390110969,-0.21199849060475826
1733851433911359000,0.18635888671875,0.09557312835603952,0.30056612411290407,1.7985615796059369
1733851433921327000,0.1963271484375,0.86461659591794,1.2540011134296656,2.717983532422781
1733851433931296000,0.2062958984375,0.9313622737184166,2.896162171012163,1.150505083119869
1733851433941264100,0.21626416015625,0.6804021842956542,2.7485531504705545,0.4508236133366823
1733851433951233000,0.22623291015625,0.17679507527649402,1.3841843673959373,0.3460229301691055
1733851433961202200,0.2362021484375,-0.29030688816607,0.056532180691510434,-1.0464496653616429
1733851433971170300,0.24617041015625,1.1527192520380019,-0.5710561127834022,-2.4744161835998297
1733851433981139200,0.25613916015625,4.291050595512986,-0.37305823661088944,-3.1370372120112178
1733851433991107300,0.266107421875,5.722067148971557,0.7075763146862387,-2.155831295454502
1733851434001075700,0.27607568359375,6.1463575601696965,0.8784861313164234,-1.0642390045523642
1733851434011043800,0.2860439453125,5.593444276189803,0.9358585622243583,-1.6231243486791849
1733851434021012700,0.2960126953125,4.1692987775444985,1.1932118598155677,-2.4114123226761817
1733851434030982000,0.30598193359375,2.4971523315429685,1.0335334121000022,-2.4972622216582296
1733851434040949800,0.31594970703125,0.13108312541544437,0.7275183749314397,-2.693941562578082
1733851434050919000,0.3259189453125,-2.9803873914018273,0.7322058020953088,-3.811398947098851
1733851434060886800,0.33588671875,-0.7371157129034399,1.2281857041716575,-4.332639327964187
1733851434070856000,0.34585595703125,-1.5538994212836026,1.6468763956665993,-4.545577729767561
1733851434080823600,0.355823486328125,-3.1041502569317814,2.2466570831529795,-4.486110810798406
1733851434090792700,0.365792724609375,-3.586607610416412,3.092108521482348,-4.3960564458638425
1733851434100761600,0.37576171875,-2.432168694978952,4.295111269080639,-2.866463198319077
1733851434110729700,0.385729736328125,-0.9771014038473367,5.0106303594648836,-0.9830997674793004
1733851434120698600,0.39569873046875,-0.9542869299709796,4.621655884058773,-0.39164778626859187
1733851434130666800,0.405666748046875,-1.8131451084926724,3.4106679829254745,-0.704918201392889
1733851434140635600,0.4156357421875,-2.5209444182798264,2.092823927399516,-1.419981949225068
1733851434150603800,0.425603759765625,-2.770953490588069,1.131382595629245,-2.246470766800642
1733851434160572700,0.43557275390625,-3.3181390445709225,0.6922599414803088,-2.81740836777091
1733851434170541800,0.445541748046875,-4.072908195325732,1.5463998593084514,-2.4309604882329703
1733851434180509700,0.455509765625,-4.654274251329898,3.668851009339094,-0.03378068904876709
1733851434190478800,0.465478759765625,-4.422728179690242,5.236122537893056,2.736514045369625
1733851434200446700,0.47544677734375,-4.244700932270288,5.5473523871004575,4.021036553791165
1733851434210415900,0.485415771484375,-4.2184734350800515,5.323351324012875,4.70026151100099
1733851434220384000,0.495384033203125,-3.5546313404411074,4.48503207565099,4.5599704122573135
1733851434230353000,0.505352783203125,-3.0431682572245595,3.3863632704913615,3.0570015522658824
1733851434240321800,0.51532177734375,-2.9246400774776933,2.251356785276532,1.49758132173419
1733851434250289700,0.52528955078125,-2.6738480380982157,1.7800586853183804,0.410053211531043
1733851434260258600,0.535258544921875,-2.256568966966867,1.9883802409760654,0.03557926290333271
1733851434270226700,0.545226806640625,-1.689756921494007,2.2236017862580715,0.28456629868745803
1733851434280195800,0.55519580078125,-1.0406441939532756,2.393801116531342,0.8756886095523834
1733851434290163700,0.565163818359375,-0.6091156481951475,2.5776985711589453,1.467082723096013
1733851434300132900,0.5751328125,-0.38778292753398413,2.6143366954654454,1.7042454655736683
1733851434310101800,0.585101806640625,-0.3678735274493694,2.5661200693070887,1.3612684789717198
1733851434320070000,0.59506982421875,-0.574054271686077,2.499063718122244,0.7784212444990873
1733851434330038800,0.605038818359375,-0.3942997620820999,2.4716128166168927,0.372557301351428
1733851434340007000,0.6150068359375,0.30323651236593724,2.2860578040406105,0.2853518961071968
1733851434349975800,0.624975830078125,0.8908855941623449,2.017593329848349,0.22680326102674006
1733851434359944000,0.63494384765625,1.8273212256222962,1.7009611832059919,0.42684418733417984
1733851434369912800,0.644912841796875,3.458260047444701,1.339999480971694,0.7125058800429105
1733851434379882000,0.654882080078125,6.905813407436013,0.7936819419950246,0.8607423848330974
1733851434389849600,0.664849609375,13.60027422095537,0.18631401425004004,1.267387249225378
1733851434399818800,0.67481884765625,10.137765283894538,-0.42228608563840386,0.9357879812061786
1733851434409786600,0.68478662109375,0.6770803463965654,0.43817543642669915,-0.8041530671268701
1733851434419755800,0.694755859375,-0.8870739269196987,1.9093287699624895,-1.6388672767341137
1733851434429723600,0.7047236328125,-2.2363760737657548,1.9427029240369795,-1.131827270656824
1733851434439692800,0.71469287109375,-2.7945670058876275,1.6921106450133026,-0.7770078705698251
1733851434449661700,0.72466162109375,-1.858521250528097,1.5790191033624112,-1.087044710600376
1733851434459629800,0.7346298828125,0.4778659340411424,1.1132380132600666,-1.5500123507171868
1733851434469598700,0.7445986328125,1.8464251545429229,0.12168956638723612,-1.3237585402667522
1733851434479566800,0.75456689453125,-1.22174661103487,-1.1605851631075144,-3.2163807978391645
1733851434489535700,0.76453564453125,-0.9066022187322378,-0.137352122682333,-1.8151497263133525
1733851434499503900,0.77450390625,3.563091710272431,0.491575456572324,2.1394448087990283
1733851434509472800,0.78447265625,4.5844724008291955,-0.4891550975576043,0.4580068028390407
1733851434519442000,0.79444189453125,0.9093255062162876,0.6921088425718247,0.6200684193640947
1733851434529409500,0.804409423828125,-1.1855500930160283,1.034977546493709,0.40633448326885696
1733851434539379000,0.81437890625,-2.0267863978683947,0.8672647723391652,0.5297124411344528
1733851434549346600,0.8243466796875,0.42376434149742126,0.6960317151039839,0.5508265408337116
1733851434559315700,0.834315673828125,1.298165249326825,0.31169717445820566,0.39768765095472336
1733851434569283800,0.844283935546875,0.5531237118601798,0.46622079669386146,0.2835825483471155
1733851434579252700,0.854252685546875,-0.42097909469306466,0.7587363008201122,0.03642214346826076
1733851434589221600,0.8642216796875,-0.9256003491908311,0.6764686442390084,-0.022454992914199827
1733851434599189800,0.874189697265625,-0.7786229045510291,0.4479708542540669,0.13128887712061404
1733851434609158700,0.88415869140625,-0.0013210194706916808,0.39904228043407197,0.047183191457390784
1733851434619126800,0.894126708984375,-0.8087538389205932,0.7363990890666842,-0.12406944726109503
1733851434629095700,0.904095703125,-0.9561083001792431,0.8746025678813457,-0.2851040588259697
1733851434639063800,0.914063720703125,-1.1448024875640868,0.9730027363568544,-0.09671382282376288
1733851434649032700,0.92403271484375,-1.2437187888681889,1.1109843891143798,0.1458738673120737
1733851434659001900,0.934001953125,-1.3915887984335422,0.975422364719212,0.3789110542923212
1733851434668970000,0.943969970703125,-1.3925351393729448,0.7836927551612257,0.6458008265137672
1733851434678939000,0.95393896484375,-1.3924211576044558,0.5909545530825853,0.9334884720921516
1733851434688906800,0.96390673828125,-1.3249796064943073,0.46235126178413627,1.206110650485754
1733851434698875600,0.973875732421875,-1.2133856099247933,0.3120551941156387,1.1308885285019874
1733851434708844500,0.983844482421875,-1.07493341704607,0.25278788937181235,0.8323743684828281
1733851434718812700,0.993812744140625,-0.9101438368618487,0.35913960137367246,0.8156126187741756
1733851434728781800,1.00378173828125,-0.8551584472209215,0.4869166709810495,0.727231155487895
1733851434738749700,1.013749755859375,-0.8870786030948161,0.5268076596036553,0.4151303686648607
1733851434748718800,1.02371875,-0.9954279186546802,0.5214525623112917,0.17197160064280032
1733851434758686700,1.033686767578125,-1.107000287914276,0.48661710351258514,-0.09448913251161575
1733851434768656000,1.04365576171875,-1.0346645350217818,0.47693449840992685,-0.28783552961647507
1733851434778624800,1.053624755859375,-0.9444014957726001,0.5354349104344844,-0.2274286994487047
1733851434788593000,1.063593017578125,-0.7884089700281619,0.6426812331885099,-0.0493523521900177
1733851434798561800,1.073561767578125,-0.6703115829139947,0.682675974446535,0.0954366424947977
1733851434808530000,1.083530029296875,-0.5517968471705913,0.6381944431632757,0.2862754406929016
1733851434818498800,1.093498779296875,-0.5644055688530206,0.6315221257925033,0.5219178417354822
1733851434828466700,1.103466796875,-0.6352513754487037,0.6047440089821815,0.4298047907054424
1733851434838435600,1.113435546875,-0.695899028635025,0.6752136757418513,0.304169409301877
1733851434848404700,1.12340478515625,-0.7281383334606886,0.6856514831259847,0.30454116522371766
1733851434858372600,1.13337255859375,-0.8115858474761247,0.727003484211862,0.3131149323016405
1733851434868341800,1.143341796875,-0.8637450737804174,0.7203241525784134,0.20771862132847307
1733851434878309600,1.1533095703125,-0.9662766429722308,0.5338944029942154,-0.0638479105323553
1733851434888278800,1.16327880859375,-1.0184376228421925,0.39003421359211204,-0.18995149396955965
1733851434898246700,1.17324658203125,-1.0996364811480044,0.45044089762941,-0.09982347927689551
1733851434908215800,1.1832158203125,-1.3325976802825927,0.5800919444151222,0.0896288329988718
1733851434918184700,1.193184814453125,-1.4301836097657679,0.6232973182827234,0.22751053251326084
1733851434928152800,1.20315283203125,-1.3496838396400213,0.5442328416571021,0.2639852829515934
1733851434938121700,1.213121826171875,-1.109246021014452,0.36893121980875726,0.32942543111145495
1733851434948089900,1.22308984375,-0.8624562030136584,0.14690160292461513,0.47691024075150484
1733851434958058800,1.233058837890625,-0.7204547932207584,-0.11347191927060485,0.3991735055983066
1733851434968027000,1.24302685546875,-0.5459866995871067,-0.2889806079983711,0.18479659542441368
1733851434977995800,1.252995849609375,-0.3952934492945671,-0.24701997349485755,0.06569149257242679
1733851434987965000,1.26296484375,-0.33345570954084397,-0.15047317780107258,0.09223580062687396
1733851434997932800,1.272932861328125,-0.2699538359671831,-0.07995791833400726,0.054877253091335294
1733851435007902000,1.28290185546875,-0.24447628036141394,-0.025671763003617523,-0.13406535609662532
1733851435017869800,1.292869873046875,-0.1874187606215477,-0.1342800217606127,-0.47666298799216744
1733851435027839000,1.3028388671875,-0.07799801643788815,-0.2871769195772707,-0.6647995414942502
1733851435037807000,1.31280712890625,0.03862345290482044,-0.47762657232731576,-0.5591589003711939
1733851435047776000,1.32277587890625,0.13065174826085565,-0.7000055871710181,-0.5352928716152906
1733851435057745000,1.332744873046875,0.20117431425154209,-0.9010447307355701,-0.6494634406745433
1733851435067712800,1.342712646484375,0.3139291712939739,-1.0243119217030703,-0.8390355799376964
1733851435077681700,1.352681640625,0.3938847515404224,-1.0464692468449472,-0.8542723120361566
1733851435087649800,1.36264990234375,0.3758066585361957,-0.9897605405427515,-0.6853893250584602
1733851435097619000,1.372618896484375,0.29148411525189877,-0.9435469247698783,-0.4309142132520675
1733851435107586800,1.3825869140625,0.18336919296979903,-0.9862167304560542,-0.3697819914191961
1733851435117556000,1.392555908203125,0.17297405568361282,-1.1317900073863565,-0.5915478428006172
1733851435127524900,1.40252490234375,0.216745392870903,-1.2737969701372087,-0.8103694574236869
1733851435137493000,1.412492919921875,0.2589648244410753,-1.3590690692313014,-0.9750701902806759
1733851435147462000,1.4224619140625,0.4138987810432911,-1.5483680906414985,-1.1496651251643895
1733851435157430000,1.432429931640625,0.5887187568545341,-1.7491401077024638,-1.3984370568931102
1733851435167399000,1.44239892578125,0.6708171943485737,-1.8290313905410467,-1.4355635492384433
1733851435177367000,1.452366943359375,0.5971081072762608,-1.82882461592257,-1.3387988730102778
1733851435187336000,1.4623359375,0.4095528607934713,-1.6375544405698774,-1.2101309920430183
1733851435197305000,1.47230517578125,0.20398118836581705,-1.2892796398207544,-1.031626190239191
1733851435207273000,1.48227294921875,-0.018472353018820286,-0.9754890732798724,-0.798711168333888
1733851435217242000,1.4922421875,-0.1420616155475378,-0.5077057765096425,-0.4762327798813581
1733851435227209700,1.502209716796875,-0.10160977817177771,-0.06370623703934251,-0.28438334333598614
1733851435237179000,1.512178955078125,-0.14439502693116665,0.09375891854092479,-0.2729886736184358
1733851435247147800,1.522147705078125,-0.1636813266813755,-0.028584529194759668,-0.42152386909425255
1733851435257116000,1.532115966796875,-0.21130174051225184,-0.19305223646387457,-0.4137561577022075
1733851435267084800,1.542084716796875,-0.2502560328066349,-0.35485673642270266,-0.3429530212044716
1733851435277053000,1.552052978515625,-0.40851416539549823,-0.44725861433148384,-0.232348035672307
1733851435287021800,1.562021728515625,-0.5816068790227175,-0.3357642787441611,-0.20562311035394668
1733851435296990000,1.571989990234375,-0.7870406042844057,0.03802387957647443,-0.35680443642437454
1733851435306958800,1.581958740234375,-0.9600164135336875,0.7877053518034517,-0.4426239402681589
1733851435316928000,1.591927978515625,-1.0861506843701005,1.540478944826871,-0.3251058143466711
1733851435326895900,1.601895751953125,-1.1894219660133123,1.9961194569259881,0.0012163900524377821
1733851435336865000,1.611864990234375,-1.1639508401483296,2.223389604812115,0.10653028343915939
1733851435346833000,1.6218330078125,-1.0928981128036974,2.0236910622015594,0.052289574685692786
1733851435356802000,1.631802001953125,-1.119266479769349,1.6484820772975681,-0.044133740758895874
1733851435366769700,1.641769775390625,-1.0602122332543134,1.5371692357569933,-0.0939034415781498
1733851435376738800,1.65173876953125,-1.0733213056743145,1.6974794785700738,0.10964695415496825
1733851435386707700,1.661707763671875,-1.1132803910970688,2.063461054793,0.32852292931377886
1733851435396675800,1.67167578125,-1.0402230459317565,2.2993702900782225,0.4178086479634046
1733851435406644700,1.681644775390625,-0.9051616645351052,2.097906052969396,0.2045931827843189
1733851435416612900,1.69161279296875,-0.858279501850903,1.7597648159608243,-0.23799685521423816
1733851435426581800,1.701581787109375,-0.8625096867665648,1.8415011421442031,-0.5471189184874296
1733851435436550000,1.7115498046875,-0.864331349235773,2.170833342014253,-0.506356699988246
1733851435446518800,1.721518798828125,-0.8340747426599263,2.5066905597388742,-0.4575029449701309
1733851435456488000,1.731488037109375,-0.7958490569010377,2.845968984083831,-0.42395021945834155
1733851435466456000,1.7414560546875,-0.7556339508906006,3.1515631654918193,-0.14298632917702198
1733851435476425000,1.751425048828125,-0.6166504276141523,3.120481798529625,0.19890403123199937
1733851435486393000,1.76139306640625,-0.4053139080494642,2.8020176141545177,0.29384149203300475
1733851435496362000,1.771362060546875,-0.16004618504941462,2.2820246030017732,0.2959925325870514
1733851435506329900,1.781329833984375,-0.0402589451521635,1.8353613242149351,0.4566004431724548
1733851435516298800,1.791298828125,0.034328970581293104,1.6259551881909369,0.7006886009991169
1733851435526268000,1.801267822265625,0.12691051590591668,1.5443009873330593,0.8763082027554512
1733851435536235800,1.81123583984375,0.2741933732330799,1.2412065137863157,0.9369850820362567
1733851435546205000,1.821204833984375,0.44090223104208703,0.821703044603765,0.8285001573979854
1733851435556172800,1.8311728515625,0.5637438900738955,0.6520239388123155,0.8263853572010994
1733851435566142000,1.841141845703125,0.6405962436079978,0.6936474503159522,0.7808417496442794
1733851435576109800,1.85110986328125,0.6932865080490708,0.7710884173929691,0.4963157829672098
1733851435586079000,1.861078857421875,0.6609241613656281,1.0307631436690687,0.35184710627794263
1733851435596048000,1.8710478515625,0.6512634758338331,1.195591886819899,0.2902589573711157
1733851435606016000,1.88101611328125,0.6793512139379978,1.1596449596479534,0.19913257929086683
1733851435615985000,1.89098486328125,0.8503899176448583,0.9232353736251592,-0.12911854734420775
1733851435625953000,1.900953125,0.8989449819773435,0.34445904185324905,-0.6067530107170344
1733851435635922000,1.910921875,0.8693617446184158,0.14296587091088295,-0.8450783672332763
1733851435645890000,1.92089013671875,0.7550199106454849,0.10499415991306305,-0.6375806951791048
1733851435655859000,1.93085888671875,0.6513166673257946,0.13050707909315823,-0.35181671113967894
1733851435665828000,1.940828125,0.5606617061495781,0.18979864149540662,-0.12208733353316784
1733851435675795700,1.950795654296875,0.48892187332361936,-0.010720715978741645,0.11277297722101211
1733851435685764900,1.960764892578125,0.42990620525330303,-0.048718145939707753,0.07999123608171939
1733851435695732700,1.970732666015625,0.45175563348978753,0.045429918049275875,-0.0012076222240924835
1733851435705702000,1.980701904296875,0.30979104857593776,0.16302023242413996,-0.21740414904057978
1733851435715669800,1.990669677734375,0.049697220104932785,0.6146843882381916,-0.5084662394881249
1733851435725639000,2.000638916015625,-0.20223580600321292,0.9264631035000085,-0.7741530656605958
1733851435735607800,2.01060791015625,-0.34595863276124,0.9196209825202822,-0.9687094230771064
1733851435745576000,2.020575927734375,-0.293467982545495,0.620141630730778,-1.0156061988085507
1733851435755544800,2.030544921875,-0.14418927522599695,-0.1741493830733001,-1.0935901867210864
1733851435765513000,2.040512939453125,0.05046586638987064,-0.805746912189573,-1.0924784260869025
1733851435775481900,2.05048193359375,0.17844459604918955,-0.8755896792225539,-0.6828881558924913
1733851435785451000,2.060450927734375,0.03590250350832939,-0.6947074807628989,-0.24316812037229538
1733851435795419000,2.0704189453125,-0.2586754861056805,-0.3990894805766642,0.19917992556393146
1733851435805388000,2.080387939453125,-0.44059915644228453,-0.2658762112647295,0.4512573285788297
1733851435815356000,2.09035595703125,-0.5201809349402785,-0.45173269100561736,0.23069851489961146
1733851435825324800,2.10032470703125,-0.47102995054125785,-0.37408721433244646,-0.07551730553805827
1733851435835293000,2.11029296875,-0.427229971781373,-0.03036488925591111,0.06690554453730582
1733851435845261800,2.12026171875,-0.5001631060451269,0.2057717250443995,0.16985680044591425
1733851435855230700,2.130230712890625,-0.56241118016541,0.14743790175840257,-0.061604515519738196
1733851435865198800,2.14019873046875,-0.42491058892309663,-0.3056686348836869,-0.49225043322443957
1733851435875167700,2.150167724609375,-0.3288362330466509,-0.7848874448385089,-1.06406072537601
1733851435885136000,2.160135986328125,-0.05588263074159622,-0.9944257558748125,-1.0767512801229953
1733851435895104800,2.170104736328125,0.2178033774912357,-1.1261905799441039,-0.51574879771173
1733851435905073000,2.180072998046875,0.2969417961359024,-1.1360836129270493,0.11951426817476749
1733851435915042000,2.1900419921875,0.3183691995680332,-1.0534696271263062,0.45715632348954677
1733851435925011000,2.200010986328125,0.39244858125746246,-0.9196481627881526,0.43289749602377414
1733851435934979000,2.20997900390625,0.4479863440841436,-0.7849954352576285,0.3363414941102266
1733851435944948000,2.219947998046875,0.489299182203412,-0.750099697639048,-0.09804010299146175
1733851435954916000,2.229916015625,0.5236509491384029,-0.7973004978183656,-0.7381622993469238
1733851435964885000,2.239885009765625,0.30382804851830003,-0.7174605067756027,-1.4461223526537417
1733851435974852900,2.249852783203125,0.05315934325754642,-0.4829478404153138,-1.6286673697590828
1733851435984821800,2.25982177734375,-0.34602234564721585,-0.3998051545653492,-0.9555816459566354
1733851435994791000,2.269791015625,-0.7959054632633924,-0.5707447087466716,0.17738076620995996
1733851436004758800,2.2797587890625,-1.2527052284002302,-0.8510191554591059,1.036450833916664
1733851436014728000,2.28972802734375,-1.5128040253072976,-1.1131202320992946,1.4824235000908375
1733851436024695800,2.29969580078125,-1.5908581558465957,-1.1789352049209176,1.425840027603507
1733851436034665000,2.3096650390625,-1.522784736573696,-1.1247491489641368,1.2050760467410087
1733851436044632600,2.319632568359375,-1.3628729915589093,-1.0367574156478048,0.9095230746150016
1733851436054601700,2.329601806640625,-1.1640127994686364,-0.9512387944467365,0.6900175693809986
1733851436064570600,2.339570556640625,-0.9908154564231634,-0.8138998235069215,0.4453425515770912
1733851436074538800,2.349538818359375,-0.8550468035399913,-0.4506164003267884,0.21154256353080272
1733851436084507600,2.359507568359375,-0.7024363214492797,0.053084378325194116,0.011059154152870178
1733851436094475800,2.369475830078125,-0.4750958848059177,0.40033421994075175,-0.17003741770982742
1733851436104444700,2.379444580078125,-0.22219430592656134,0.5577427499629557,-0.32466274675428863
1733851436114412800,2.389412841796875,0.002883446481823921,0.5627582400374114,-0.49402971785664557
1733851436124381700,2.399381591796875,0.18574702801704407,0.5563720461316406,-0.6175093825310468
1733851436134350800,2.409350830078125,0.29734044006466864,0.5985245499454438,-0.6594646102070808
1733851436144318700,2.419318603515625,0.40900224117338657,0.4850267655812204,-0.5758399860590696
1733851436154287900,2.429287841796875,0.5468903704285621,0.2758914093226194,-0.5984849485874175
1733851436164255700,2.439255859375,0.6128016432315111,0.16487784298956393,-0.5935504147946834
1733851436174225000,2.449224853515625,0.6152893683940172,0.22831541915535924,-0.5765472575455903
1733851436184193800,2.45919384765625,0.5100689985096454,0.6488923627883195,-0.43350598331093787
1733851436194161700,2.46916162109375,0.3857967221528292,1.089454694351554,-0.1473725814372301
1733851436204130600,2.479130615234375,0.1999742908120155,1.4185542545095084,0.07825812867879867
1733851436214098700,2.4890986328125,0.10891221013963222,1.448701263231039,0.14801906264722348
1733851436224067600,2.499067626953125,0.11984569208621978,1.1366662351205945,0.0383159943908453
1733851436234035700,2.50903564453125,0.14167933823168277,0.5375871200323105,-0.17084581148326397
1733851436244004600,2.519004638671875,0.11976853519678116,0.11541940007656812,-0.23957857144773004
1733851436253973800,2.528973876953125,0.02257131277024746,0.06350012000799178,-0.16361469118595123
1733851436263942000,2.53894189453125,-0.009631751698255538,0.20180062945634125,-0.130319155305624
1733851436273910800,2.548910888671875,-0.04743745847940445,0.3641758419752121,-0.011077858853340148
1733851436283879000,2.55887890625,-0.05445522828698158,0.555322390948236,0.042590602970123285
1733851436293847800,2.568847900390625,-0.17142507267594337,0.7380553318411112,-0.14715338572859762
1733851436303816000,2.57881591796875,-0.2988888385504484,0.6983359003931283,-0.33933249261975285
1733851436313784800,2.588784912109375,-0.31566520130634307,0.49161827280074355,-0.39156887581348415
1733851436323753700,2.598753662109375,-0.3036988691806793,0.28766981766074895,-0.37262452136874197
1733851436333721900,2.608721923828125,-0.3476686515495181,0.06790946088284254,-0.3460053945124149
1733851436343690800,2.618690673828125,-0.4834872810542583,-0.2829547718375921,-0.33237083691358565
1733851436353658600,2.62865869140625,-0.6766258806273341,-0.5623837076365947,-0.2787894688516855
1733851436363627800,2.638627685546875,-0.9030895344361662,-0.6175882929861545,-0.1228816987812519
1733851436373595600,2.648595703125,-1.0413716314449906,-0.639150720974803,0.06634381900131701
1733851436383564800,2.658564697265625,-1.1832201887637377,-0.5975345159947871,-0.1217880583256483
1733851436393533700,2.66853369140625,-1.3642381424322723,-0.4274094200015068,-0.21078794577121734
1733851436403501800,2.678501708984375,-1.3871438017234206,-0.3386293127864599,-0.2904536031603813
1733851436413470700,2.688470703125,-1.3486796310335396,-0.35127485934793945,-0.4142378037393093
1733851436423438800,2.69843896484375,-1.3217369713112712,-0.5607289261668921,-0.354645797085762
1733851436433407700,2.70840771484375,-1.4633537657007574,-0.7481383344382048,-0.209779645511508
1733851436443377000,2.718376953125,-1.758618568535149,-0.8590285666525364,-0.018516484421491623
1733851436453344800,2.7283447265625,-2.0582199392691254,-0.8626403274089097,0.14396832595169543
1733851436463314000,2.73831396484375,-2.1984958404436705,-0.9629483753323554,0.07149228780567646
1733851436473281800,2.74828173828125,-2.058233091011643,-0.996107133090496,0.13721125290691852
1733851436483251000,2.7582509765625,-1.7761986488893626,-1.0913789404124021,0.4865951839417219
1733851436493218600,2.768218505859375,-1.6115642592668533,-1.117970594739914,0.9569885901451111
1733851436503187700,2.778187744140625,-1.4590157364964484,-1.3396388309657572,1.274727675116062
1733851436513156600,2.788156494140625,-1.2925688906244932,-1.6689876897096634,1.220247312387824
1733851436523124700,2.798124755859375,-1.3170154957473277,-1.8873609760433434,0.6457640016347169
1733851436533093600,2.80809375,-1.6374236537970601,-1.65892280729115,0.25144670389592644
1733851436543061800,2.818061767578125,-1.9746200111709533,-1.217432839488983,0.19408990894854067
1733851436553030700,2.82803076171875,-2.2291303404211997,-0.819627115112543,0.23213760779201983
1733851436562998800,2.837998779296875,-2.1080926620714364,-0.864269974437356,0.4520639687865972
1733851436572967700,2.8479677734375,-1.8158347859680652,-1.0715051961630582,0.3884124576091766
1733851436582936800,2.857936767578125,-1.3643876339055596,-1.4051432765334844,0.4936854344636202
1733851436592904700,2.86790478515625,-0.8578248899511992,-1.4644301627606153,0.6180202546626329
1733851436602873900,2.877873779296875,-0.5351479101866483,-1.0902297703772783,0.56836044395864
1733851436612841700,2.887841796875,-0.36659101335816086,-0.5644786340892315,0.4930751936107874
1733851436622811000,2.897810791015625,-0.36620362147577107,-0.019774375528097153,0.6108358961164951
1733851436632779800,2.90777978515625,-0.400707217971608,0.35721418626904483,0.857149328777194
1733851436642748000,2.917747802734375,-0.4448888895254582,0.615686843279004,0.9330839829444885
1733851436652716800,2.927716796875,-0.5901653754662722,0.57154959538877,0.7649369090259075
1733851436662684700,2.9376845703125,-0.7010761390119791,0.32251053715646266,0.4483095846891403
1733851436672653600,2.947653564453125,-0.5198626627713442,-0.036656536746025085,0.1902501846551895
1733851436682621700,2.95762158203125,-0.14946867693364618,-0.48050621941685673,0.1414087045967579
1733851436692590600,2.967590576171875,0.25909049664735795,-0.8742395797878503,0.06459142237603664
1733851436702559700,2.977559814453125,0.5552413616012781,-1.095836504343152,-0.09716039754748344
1733851436712528000,2.98752783203125,0.6147136143326759,-1.251404082673788,-0.3348398573756218
1733851436722496800,2.997496826171875,0.5019277776300907,-1.3045610878437757,-0.35274317833483215
1733851436732465000,3.00746484375,0.34009354012012477,-1.2979068906515836,-0.2596241651326418
1733851436742433800,3.017433837890625,0.11147358506023883,-1.2566916676878928,-0.2617670223802328
1733851436752402000,3.02740185546875,-0.09570720306448638,-1.313346451845765,-0.2733265272706747
1733851436762370800,3.037370849609375,-0.2395816401876509,-1.3664929356217383,-0.2392272737920284
1733851436772339700,3.047339599609375,-0.40293300426229833,-1.2612713966935871,-0.27083763306438924
1733851436782307800,3.057307861328125,-0.3989565018467605,-1.0055395628243684,-0.41514498171210285
1733851436792276700,3.06727685546875,-0.23265008735880255,-0.6280354527205229,-0.6921206791400909
1733851436802244600,3.07724462890625,-0.15435922545418143,-0.3111439244896173,-0.9531056112319231
1733851436812213800,3.0872138671875,-0.098233579736948,-0.005649988585710525,-0.9478104274332523
1733851436822182700,3.0971826171875,-0.1210946692340076,0.03979834190309047,-0.8276713053584098
1733851436832150800,3.10715087890625,-0.14642039527893067,-0.19403554841279982,-1.0215630613863467
1733851436842119700,3.11711962890625,-0.09977145682871341,-0.20341829378604886,-1.0784721125662327
1733851436852087800,3.127087890625,-0.18819208308160304,-0.25078502511680123,-0.9057686905175447
1733851436862056700,3.137056640625,-0.25111031154841185,0.03533727084100246,-0.7974228820890188
1733851436872024800,3.14702490234375,-0.4235506987467408,0.2866770072311163,-0.6563035158276558
1733851436881993700,3.15699365234375,-0.6533665855929255,0.591658317437768,-0.655109337607026
1733851436891963000,3.166962890625,-0.7654892822116613,0.7056886012434959,-0.9533598782539368
1733851436901930800,3.1769306640625,-0.8013497001439333,0.75532736915946,-1.1626543705970047
1733851436911900000,3.18689990234375,-0.7111877831816673,0.8831015161573886,-1.0027911408990622
1733851436921867800,3.19686767578125,-0.6169014797657728,1.070530213651061,-0.5876619412779808
1733851436931837000,3.2068369140625,-0.48781215851604937,1.156387711417675,-0.30156185715198514
1733851436941804500,3.216804443359375,-0.3738727678641677,1.2401514517754315,-0.213683082690835
1733851436951774000,3.22677392578125,-0.30883272493779657,1.2934645242899656,-0.32025369814038274
1733851436961742800,3.236742919921875,-0.20663433322310445,1.4012462690949439,-0.45191725379228587
1733851436971710700,3.246710693359375,-0.14081424583494662,1.5348311481982468,-0.2974345480889082
1733851436981679600,3.2566796875,0.006261983004212379,1.5500006602793932,-0.2330102989733219
1733851436991647700,3.266647705078125,0.23018939633369445,1.4127765478909016,-0.5130833778947591
1733851437001616600,3.27661669921875,0.40405426337718964,1.1562319363340734,-0.927521672642231
1733851437011585800,3.286585693359375,0.37662148205041884,0.7104021857619285,-1.3030688034594058
1733851437021553700,3.2965537109375,0.35933132455348965,0.11290127977579831,-1.21249655213058
1733851437031522800,3.306522705078125,0.2989496288269758,-0.22930647601932286,-0.6678653588056563
1733851437041490700,3.31649072265625,-0.005571078130602836,0.005846387940645218,0.10277005412280558
1733851437051459800,3.3264599609375,-0.5525912124186754,0.629713615065813,1.0506196445226668
1733851437061427700,3.336427734375,-1.0840426061749457,1.5219357185289262,1.8876082288026808
1733851437071396900,3.34639697265625,-1.2378922746717929,2.1099755532085895,1.9561574488937854
1733851437081365800,3.35636572265625,-1.2240005274415016,2.2643258647039533,1.4041355607956647
1733851437091334000,3.366333984375,-1.1964379822552202,2.205649219329655,0.8346715395092964
1733851437101302800,3.376302734375,-1.1324690756917,2.0078163244605065,0.4369330351501703
1733851437111271000,3.38627099609375,-1.068426519370079,1.7968655893430112,0.3864093010932207
1733851437121239800,3.39623974609375,-0.8778414036720991,1.6773673955202102,0.4781897591680288
1733851437131209000,3.406208984375,-0.5335772998690604,1.518584946796298,0.5491115536093711
1733851437141176600,3.416176513671875,-0.16718495088815688,1.255809039634466,0.3758990129947662
1733851437151145700,3.426145751953125,0.1815449001520872,0.8984674275934695,0.08410802375078201
1733851437161113900,3.43611376953125,0.42678807323276996,0.41605771264284847,-0.01447626911997795
1733851437171082800,3.446082763671875,0.6011328327476978,0.06063172496482729,-0.05618775116801262
1733851437181051000,3.45605078125,0.6096124918013811,-0.21580855041220784,-0.08387187690734862
1733851437191019800,3.466019775390625,0.5363514407575131,-0.4336332629524171,-0.24217443315982817
1733851437200988700,3.47598876953125,0.5610007288455963,-0.48135275324359533,-0.4884796825140714
1733851437210956800,3.485956787109375,0.5236480265289545,-0.535607344391942,-0.7529448579370975
1733851437220925700,3.49592578125,0.44476913560330866,-0.5518395172685384,-0.939455856063962
1733851437230893800,3.505893798828125,0.3469546580612659,-0.4629435285888612,-1.051934234252572
1733851437240862700,3.51586279296875,0.1475029298186302,-0.45093671832233667,-1.0034645101159811
1733851437250832000,3.525831787109375,-0.029511341166496275,-0.5090349792867899,-0.678487290585041
1733851437260800000,3.535800048828125,-0.1787000321149826,-0.6422757211275398,-0.43144963530302044
1733851437270769000,3.545768798828125,-0.35776948206424714,-0.8362326513461769,-0.23461071990728377
1733851437280737000,3.555737060546875,-0.4466226545155048,-0.9550501694284379,-0.048557986941933626
1733851437290706000,3.565705810546875,-0.5068798470795154,-0.8715361660480498,0.15387071128487587
1733851437300673800,3.575673828125,-0.6864759512513876,-0.697634327995032,0.3387508933395147
1733851437310642700,3.585642578125,-0.7749801641345023,-0.4556815747618675,0.405239673769474
1733851437320611800,3.59561181640625,-0.9138976364374161,-0.116374508844316,0.28156302521824833
1733851437330579700,3.605579833984375,-1.0263637396663428,0.07452084184661507,-0.009629413610696792
1733851437340548900,3.615548828125,-1.1102309403985737,0.17354849457070232,-0.3294675166875124
1733851437350516700,3.625516845703125,-1.1681418620973825,0.3922557620991021,-0.41003918300569053
1733851437360486000,3.63548583984375,-1.2336176660925149,0.5370575432002545,-0.40372634659707546
1733851437370454800,3.645454833984375,-1.2012526890605688,0.5859445429008454,-0.3141372610867023
1733851437380423000,3.6554228515625,-1.0995265910327434,0.5005971866134554,-0.31288521519899365
1733851437390391800,3.665391845703125,-0.9818523977667093,0.39685317289195954,-0.35488954271376133
1733851437400360000,3.67535986328125,-0.8758189579337835,0.04514236981216818,-0.5193114586293697
1733851437410328800,3.685328857421875,-0.9371382267713546,0.053534387115016575,-0.8313350885629653
1733851437420297000,3.695296875,-1.1004027893453836,0.3506292549207806,-1.0478367358058691
1733851437430265900,3.705265869140625,-1.185095919507742,0.7982418703217059,-1.1878174534261225
1733851437440235000,3.715235107421875,-1.3106710951566696,1.2890971228606998,-1.2817594734489917
1733851437450202600,3.72520263671875,-1.3697732724666594,1.9551485641121864,-1.1604781956017016
1733851437460171800,3.735171875,-1.249085868859291,2.5122335808187723,-0.7118266656070947
1733851437470139600,3.7451396484375,-0.9215063578754663,2.7806296659499403,-0.24780045634806155
1733851437480108800,3.75510888671875,-0.4209457769453525,2.9275530423149463,-0.24272037660479545
1733851437490077700,3.76507763671875,-0.03924304610788822,2.9543621387854215,-0.35884324877560136
1733851437500045800,3.7750458984375,0.16252338881790637,2.7709727798104287,-0.5222463430374861
1733851437510014700,3.7850146484375,0.14437339962124823,2.6505250301778314,-0.4364414522409439
1733851437519982800,3.79498291015625,0.040106384938955304,2.5348627612560986,-0.2948024460196495
1733851437529951700,3.80495166015625,-0.029397943919897078,2.593121181218326,-0.2172293769955635
1733851437539920000,3.814919921875,-0.21553367899358272,2.6913281652092933,-0.1625835945725441
1733851437549888800,3.824888671875,-0.20158523313999174,2.690435308022797,-0.16751403671205042
1733851437559858000,3.83485791015625,-0.09751169520318508,2.4141449625104663,0.09144143537878989
1733851437569825800,3.84482568359375,0.0000935235023498535,1.8507550004407762,0.5384200637251139
1733851437579795000,3.854794921875,-0.024449381601810455,1.3288310212254524,0.9514128358393907
1733851437589762600,3.864762451171875,-0.046700376376509665,0.7937406864449381,1.090103513649106
1733851437599732000,3.87473193359375,-0.0636170243859291,0.42972763381600376,1.061507533761859
1733851437609700900,3.884700927734375,-0.08199556164145469,0.28560879347771406,1.0155822334110736
1733851437619668700,3.894668701171875,-0.009454057043790817,0.2968558714181185,0.8642968624442815
1733851437629637600,3.9046376953125,0.023337036445736883,0.5175491251319646,0.7005354562640189
1733851437639605800,3.914605712890625,0.1314081195861101,0.8695093363955616,0.7495709975898266
1733851437649574700,3.92457470703125,0.3091419370174408,1.0714262857079506,0.7467752293914556
1733851437659542800,3.934542724609375,0.466495814242959,0.910466200684011,0.6558072567433119
1733851437669511700,3.94451171875,0.5117074133664369,0.9312436157748103,0.4684738363176584
1733851437679480800,3.954480712890625,0.49250236215889454,1.1099027313575147,0.2830155621141195
1733851437689449000,3.964448974609375,0.5248375285744666,1.2001318683370947,0.19569851318895815
1733851437699417900,3.97441796875,0.6633072571098804,1.2195838800430296,0.14757950218617916
1733851437709386000,3.984385986328125,0.8243477138936519,1.0681833582639693,-0.02667991713285446
1733851437719355000,3.99435498046875,0.8930530013293028,0.9538003154978155,-0.42614685271978375
1733851437729323800,4.00432373046875,0.905229176813364,0.9762015323981642,-0.8112298736453056
1733851437739292000,4.0142919921875,0.8374889350175857,0.9661194065839052,-0.9852087224572896
1733851437749260800,4.0242607421875,0.7130524080097674,0.9780983059301972,-0.9798153389811515
1733851437759228700,4.034228759765625,0.5658528450518846,1.0342235132560134,-1.0903811615467072
1733851437769197800,4.04419775390625,0.5444201809227466,1.1514049545690417,-1.3457353942751884
1733851437779166700,4.054166748046875,0.4873404493510723,1.2399950921699403,-1.5338357074201106
1733851437789134800,4.064134765625,0.2857312508136034,1.3185907822400331,-1.4155109412908553
1733851437799103700,4.074103759765625,0.07288052729368209,1.4740274276673793,-0.8472709088414907
1733851437809071900,4.08407177734375,-0.05290975241065025,1.6203177668258546,-0.26312311316430564
1733851437819040800,4.094040771484375,-0.12305004108548163,1.529219884187728,0.1012970589607954
1733851437829009000,4.1040087890625,-0.10901508599221706,0.9255331291735172,-0.007099018350243568
1733851437838977800,4.113977783203125,-0.14778876102268695,0.24633301414400338,-0.2974988454967737
1733851437848946700,4.12394677734375,-0.27817221373617645,-0.13580372419655323,-0.29160803389251233
1733851437858914800,4.133914794921875,-0.4009469450116157,-0.40695188451483844,0.10524667336940764
1733851437868884000,4.143884033203125,-0.3504296406954527,-0.6421816131033002,0.34125790772438047
1733851437878851800,4.153851806640625,-0.17268471734821794,-0.958114233174175,0.3699783907741308
1733851437888821000,4.163821044921875,-0.10464636938869952,-1.1136576999768615,0.3288070069521665
1733851437898790000,4.173789794921875,-0.10493220059275626,-0.847253007858619,0.18454349744617937
1733851437908758000,4.183758056640625,-0.19849661947488784,-0.5026023889560252,0.07120704112350941
1733851437918727000,4.193726806640625,-0.41173780361711976,-0.08122370048612355,-0.050205169627070424
1733851437928694800,4.20369482421875,-0.7541033803224563,0.2835378689551726,-0.24914076504111288
1733851437938663700,4.21366357421875,-1.0332739574462175,0.339963995456323,-0.5314256747931242
1733851437948632800,4.2236328125,-1.2636655983537435,0.16809015609957276,-0.725530196788907
1733851437958600700,4.2336005859375,-1.6313164229631423,0.2597681767132133,-0.6016577334046364
1733851437968569900,4.24356982421875,-1.949796681690216,0.4738382494276389,-0.49389410877823825
1733851437978537700,4.253537841796875,-1.9384581260740756,0.5455957275081426,-0.44444764856398106
1733851437988507000,4.2635068359375,-1.7922329611063001,0.6089397071063518,-0.5612018043756485
1733851437998474500,4.273474609375,-1.5994003587424754,0.3631903380692005,-0.8254816863596439
1733851438008443600,4.283443603515625,-1.754125641030073,0.30013971539437767,-0.18622575144469736
1733851438018412500,4.29341259765625,-1.8921014485687015,-0.06471665619090199,0.9935305606007575
1733851438028380700,4.303380615234375,-1.8935867186903952,-0.5877227315545082,1.7521961342722177
1733851438038349600,4.313349609375,-1.981443865841627,-0.9207241214565932,1.806409370496869
1733851438048317700,4.323317626953125,-1.9845067605435847,-0.8817175144530832,1.4714321504771708
1733851438058286600,4.33328662109375,-1.6793921793460844,-0.961416051198542,0.8799100266396999
1733851438068255700,4.343255859375,-1.3270008831888436,-0.963678443172574,0.09812836579680442
1733851438078223600,4.3532236328125,-1.0843477266013621,-0.667808367921412,-0.4188309767484665
1733851438088192800,4.36319287109375,-1.036848308801651,-0.47778906941264865,-0.693504242452979
1733851438098160600,4.37316064453125,-1.0717501108348368,-0.19244974052608013,-0.9144687143236399
1733851438108129800,4.3831298828125,-1.0350994193077088,-0.13496318171918392,-1.0209504824459552
1733851438118097700,4.39309765625,-1.0064099159181117,-0.28216917441785333,-1.2112591192901134
1733851438128066800,4.40306689453125,-0.9164297852635384,-0.4375055743411183,-1.3820464785844087
1733851438138035700,4.41303564453125,-0.8446826459139585,-0.7008458373874425,-1.4482891752988098
1733851438148003600,4.423003662109375,-0.8206634724229573,-0.9011994829058647,-1.3000444872021675
1733851438157972500,4.432972412109375,-0.7142799039781094,-1.0267743662938476,-1.0633867716372012
1733851438167940600,4.442940673828125,-0.5746954921990632,-1.1135749901294707,-1.0240630615085362
1733851438177909500,4.452909423828125,-0.47785190551578993,-1.1135939870908855,-1.0161398672938347
1733851438187878700,4.462878662109375,-0.38166941308975216,-1.0287786918535828,-0.906404065811634
1733851438197846500,4.472846435546875,-0.18705168087482452,-0.8713993879258632,-0.7963345023304224
1733851438207815700,4.482815673828125,0.020002923586964608,-0.7486351780444384,-0.6643202335447073
1733851438217783800,4.49278369140625,0.20426818861365317,-0.34240006349682806,-0.6549018323361874
1733851438227752700,4.502752685546875,0.17327216184735297,0.34957214708328244,-0.9629869537770748
1733851438237721600,4.5127216796875,-0.13584697881639002,0.8526350662231444,-1.1329209111124277
1733851438247689700,4.522689697265625,-0.42745267462134356,1.0462100113868713,-1.1429548138707875
1733851438257658600,4.53265869140625,-0.5816174004167318,1.0186199936717748,-1.1643459769457578
1733851438267626800,4.542626708984375,-0.730918319568038,1.1785369993835686,-1.208887713983655
1733851438277595600,4.552595703125,-1.0178431640803813,1.1972644962072372,-1.2960124552071093
1733851438287563500,4.5625634765625,-1.5387144193723796,0.7782096475750208,-1.3443407250463961
1733851438297532700,4.57253271484375,-2.284568734526634,0.10525836380720138,-0.9212368932843208
1733851438307501800,4.582501708984375,-2.6893752775758504,-0.4142617691367864,-0.06539104832112788
1733851438317469700,4.5924697265625,-2.9932793139398095,-0.9677695118784904,0.7832125704288482
1733851438327438600,4.6024384765625,-3.0010867728203534,-1.4674211612701415,1.4564350723534822
1733851438337406700,4.61240673828125,-2.783536785568297,-1.7564134597063064,1.5752444071292877
1733851438347375600,4.622375732421875,-2.6492881818592546,-1.9537392818361519,1.3216384793728588
1733851438357344500,4.632344482421875,-2.574418818835914,-2.385166120785475,1.0594196215718985
1733851438367312600,4.642312744140625,-2.3429390904307366,-2.714846987962723,0.6989788744717836
1733851438377281800,4.65228173828125,-2.1177119926795362,-2.899353076007962,0.2768909417539835
1733851438387249700,4.662249755859375,-2.106007526360452,-3.0302398020684715,-0.14001520441174506
1733851438397218800,4.67221875,-2.242076038973033,-2.8366823925614355,-0.6669651950955391
1733851438407187700,4.682187744140625,-2.136325507734716,-2.785556016436219,-1.1596072579860686
1733851438417155800,4.69215576171875,-2.004720696532726,-2.507784200194478,-1.3683318414866923
1733851438427124700,4.702124755859375,-2.007693136472255,-2.172120751476288,-1.0842764149308204
1733851438437092900,4.7120927734375,-1.962661423960328,-2.109547683185339,-0.3650011868834495
1733851438447061800,4.722061767578125,-1.9519092899300157,-1.7697125017404556,0.3641583063185215
1733851438457029600,4.732029541015625,-1.854485419140756,-1.3580717287570236,1.2725409787267445
1733851438466998500,4.74199853515625,-1.4675088395535945,-1.0841770462095737,1.862258683490753
1733851438476967700,4.7519677734375,-1.2707067490369082,-0.6796358760982751,1.7284329813688992
1733851438486935600,4.761935546875,-1.219520167157054,-0.32176234913766383,1.44286188955307
1733851438496904700,4.77190478515625,-1.1255648492611945,-0.12549626519381998,1.1242302396565675
1733851438506872600,4.78187255859375,-1.1266386159725486,0.07202887890040874,0.9549462706625461
1733851438516841700,4.791841796875,-1.164891920390725,0.2868038484811783,1.0414087485849857
1733851438526810600,4.801810546875,-1.0260095194011927,0.4139630784511566,0.8135311363250016
1733851438536778800,4.81177880859375,-0.674378686222434,0.20922785684764383,0.45192368353307244
1733851438546747600,4.82174755859375,-0.15121172120869159,-0.13204407940208912,0.4561591291457414
1733851438556715800,4.8317158203125,0.07956701932027936,-0.3497229537308216,0.5393506225734949
1733851438566684700,4.8416845703125,0.17474639911837875,-0.5550777685374021,0.5953291149049997
1733851438576653800,4.85165380859375,0.29727906526625153,-0.7651841617852448,0.6435311280161142
1733851438586621700,4.86162158203125,0.19863164403140543,-0.8824035970211028,0.5697814166724682
1733851438596590800,4.8715908203125,0.025454174730181692,-0.8576064248949289,0.5559855310320854
1733851438606558700,4.881558837890625,-0.03467223106101155,-0.8262836503922939,0.5009802676469087
1733851438616528000,4.89152783203125,0.02723762408085167,-1.0863386081576347,0.1629220327466726
1733851438626495500,4.90149560546875,0.14646072728931903,-1.0251444270044565,-0.37178923958837984
1733851438636464600,4.911464599609375,0.06337269423604011,-0.8119400677412748,-0.7431973709046841
1733851438646433500,4.92143359375,0.08943944790661335,-1.0619739822298289,-0.5009463653773069
1733851438656401700,4.931401611328125,0.17048808408677577,-1.2544167084932327,-0.4312959060460329
1733851438666370600,4.94137060546875,0.13866846597790716,-1.2239543502122163,-0.4883937577962875
1733851438676338700,4.951338623046875,0.055012862169742584,-1.1761498119860887,-0.39732115572988985
1733851438686307600,4.9613076171875,-0.006199439162015915,-1.1034838042259216,-0.6275766030371189
1733851438696276700,4.97127685546875,0.02226093164682388,-0.909307970559597,-1.1423662003278732
1733851438706244600,4.98124462890625,0.17883564119338988,-0.3241770090639591,-1.639631246843934
1733851438716213800,4.9912138671875,0.25138269874900576,0.09813187292814254,-1.7520599406719206
1733851438726181600,5.001181640625,0.32291151917278765,0.03520224628448486,-1.3892460346996784
1733851438736150800,5.01115087890625,0.2886728572234511,-0.029212065958976744,-0.8946931697517633
1733851438746119700,5.02111962890625,0.028464462462067602,0.13211129941940306,-0.7076023259103298
1733851438756087800,5.031087890625,-0.23009762639701364,0.5127350028485059,-0.74559215708673
1733851438766056700,5.041056640625,-0.3444195866256952,0.9984007969856261,-0.5766372739166021
1733851438776024600,5.051024658203125,-0.3150169665306806,1.5091542706280945,-0.18034136958122252
1733851438785993500,5.060993408203125,-0.1062245784908533,1.7026029590636491,-0.23049977745711803
1733851438795961600,5.070961669921875,0.10711188271939753,1.553510714226961,-0.4109440228909254
1733851438805930500,5.080930419921875,0.11154577351361512,1.287814535704255,-0.12123743870556354
1733851438815899600,5.090899658203125,0.10531740051805973,1.2681851216048001,0.26562837398350236
1733851438825867800,5.10086767578125,0.08751403280198573,1.2055074238955974,0.6181967802733183
1733851438835836700,5.110836669921875,-0.016156185030937194,1.3409107505977154,0.6483212849020957
1733851438845804800,5.1208046875,-0.07621814728379249,1.6900152801692485,0.33967151531577106
1733851438855773700,5.130773681640625,0.050935237467288966,1.9646090508967637,-0.32640579102933404
1733851438865742600,5.14074267578125,0.13688684325814246,2.107076909157634,-1.003265188151598
1733851438875710700,5.150710693359375,0.20917232726812363,1.8990186806112526,-1.2910212227910756
1733851438885679600,5.1606796875,0.35649931599795814,1.8275392522871494,-1.2681418669849633
1733851438895647700,5.170647705078125,0.559789014968276,1.9187042088121176,-1.081095446807146
1733851438905616600,5.18061669921875,0.6676601916223764,2.0480665017843247,-0.9277876301020384
1733851438915585800,5.190585693359375,0.6810299608051776,2.320676989740133,-0.5687023892641068
1733851438925554000,5.200553955078125,0.6240250480353832,2.5003937976822255,-0.19667524926662444
1733851438935522800,5.210522705078125,0.5938146186888218,2.54146259791255,0.07123918982744216
1733851438945490700,5.22049072265625,0.49160395201444623,2.2833389004707336,0.16253975543081758
1733851438955459600,5.23045947265625,0.46310967893600463,1.8857789675489067,-0.05913491053581237
1733851438965428500,5.240428466796875,0.3509516187429428,1.4544611419320106,-0.1958230163514614
1733851438975396600,5.250396728515625,0.22184651540219782,1.0939224874153732,-0.21837796250879762
1733851438985365500,5.260365478515625,0.022185528323054312,0.6970438147559762,-0.25177520519793034
1733851438995333600,5.270333740234375,-0.13275719610750675,0.2814695017158985,-0.20023440305292606
1733851439005302500,5.280302490234375,-0.08118249169290065,-0.22467793943583964,-0.03748714235126972
1733851439015271400,5.290271484375,0.03054594491124153,-0.5309554269328713,-0.05113923560678959
1733851439025239600,5.300239501953125,0.11322539716362953,-0.7612038599774241,-0.09266659325957298
1733851439035208400,5.31020849609375,-0.006488192975521087,-1.024440662649274,-0.20100597194731235
1733851439045176600,5.320176513671875,-0.19921908853054046,-1.1723065805613995,-0.2638683785736561
1733851439055145500,5.3301455078125,-0.42320378500521183,-1.1768199663326144,-0.2289882038503885
1733851439065113600,5.340113525390625,-0.4858849898457527,-1.06437753624022,-0.10544657985568046
1733851439075082500,5.35008251953125,-0.5944026477098464,-0.8520064129307866,0.06650982321798801
1733851439085051600,5.3600517578125,-0.5019172562360763,-0.5145718628868461,0.0867144068568945
1733851439095019500,5.37001953125,-0.3985270243883133,-0.1663283340588212,-0.21744857270419596
1733851439104988700,5.37998876953125,-0.6278302855372428,0.03247048323303461,-0.47450376413166523
1733851439114956500,5.38995654296875,-0.879755128338933,0.05067512522637844,-0.5343032760560512
1733851439124925700,5.39992578125,-0.6995324167013168,0.07109481292068957,-0.5236410122662782
1733851439134894600,5.40989453125,-0.33069325909018515,0.13029168277680872,-0.4809463643997907
1733851439144862500,5.419862548828125,-0.02109948665201664,0.19367036836221813,-0.4655313531249761
1733851439154831400,5.429831298828125,0.13971826729178427,0.19526099855452775,-0.625741204303503
1733851439164799500,5.439799560546875,0.22393793472349643,-0.02372033667489886,-0.7703659483373164
1733851439174768400,5.449768310546875,-0.04066109621226787,-0.08259045879468321,-0.6926502559721469
1733851439184737500,5.459737548828125,-0.24791034646332263,-0.1250844695225358,-0.28407705386579035
1733851439194705400,5.469705322265625,-0.4344447254657745,-0.17524331578984856,0.18793547797203064
1733851439204674600,5.479674560546875,-0.7014648460686207,-0.45668845024947075,0.17959084347486495
1733851439214642400,5.489642333984375,-1.0626128646552562,-0.7249854954529553,-0.40726738020479675
1733851439224611600,5.499611572265625,-1.3638520657241344,-0.992939097513631,-1.0794354046404362
1733851439234580500,5.50958056640625,-1.4631816240042448,-0.43697921237945553,-1.504470496726036
1733851439244548600,5.519548583984375,-1.3270511520713566,0.6653982380397617,-1.0304629916787147
1733851439254517500,5.529517578125,-1.1936837151110171,1.523340909151733,-0.0076852938055992125
1733851439264485600,5.539485595703125,-1.0993044727146626,2.0977939708970488,0.840694453060627
1733851439274454500,5.54945458984375,-1.1213321801275014,2.4097873518228528,1.298847970893979
1733851439284423700,5.559423583984375,-1.1253361550718546,2.537961896315217,1.2218179227054118
1733851439294391600,5.5693916015625,-0.993130747628212,2.759215998782217,0.7843050418406724
1733851439304360700,5.579360595703125,-0.7320283266365528,2.930898261089623,0.2430488779067993
1733851439314328300,5.589328369140625,-0.5139636678606272,2.928316720163822,-0.19974165109992026
1733851439324297500,5.59929736328125,-0.33576515552699565,2.827300523971021,-0.7321703654557467
1733851439334265300,5.609265380859375,-0.13585925377607344,2.4880738298133016,-1.8568045097380876
1733851439344234500,5.619234375,0.1498562149465084,1.8969655474737286,-1.1339525922477245
1733851439354203400,5.629203369140625,0.5267705424636602,2.0550480312347412,-0.6649743135392665
1733851439364171500,5.639171630859375,0.5718260742425918,2.0761030942231415,-0.4958925891190767
1733851439374140400,5.649140380859375,0.5722422538280487,1.7391411301270125,0.0630681583315134
1733851439384108500,5.659108642578125,0.46392742505967616,1.5519582240879535,0.5567296273976564
1733851439394077400,5.669077392578125,0.30912907753586766,1.4703323725417254,0.8503150988429784
1733851439404046600,5.679046630859375,0.20393734922409057,1.2421285970672964,0.7108844163209199
1733851439414014500,5.689014404296875,0.11549158852994441,1.0360673875570297,0.4489812003403902
1733851439423983600,5.698983642578125,0.14919687425494194,0.8416513153940439,0.3049719578564167
1733851439433951700,5.70895166015625,0.321465412017703,0.6442950981259346,0.20060908158421514
1733851439443920600,5.718920654296875,0.44669396618604656,0.3896431684479117,0.243968915361166
1733851439453889500,5.7288896484375,0.5077344180822372,0.17025573663562535,0.309803615796566
1733851439463857400,5.738857421875,0.5044400527119636,0.026153847432136536,0.3912000425010919
1733851439473826300,5.748826416015625,0.5116740956187248,-0.1672498328179121,0.6409387734353542
1733851439483794400,5.75879443359375,0.49550972728133197,-0.38171968197226525,0.9022241497784852
1733851439493763300,5.768763427734375,0.4879641342073679,-0.353843833053112,0.9884434665948152
1733851439503732500,5.778732421875,0.5288146155118942,-0.29258652353584763,0.7408581143021583
1733851439513700600,5.78870068359375,0.5585702868282795,-0.15435732575803995,0.4063631248414516
1733851439523669500,5.79866943359375,0.5657201585829258,0.09787205294817686,0.05743979705572128
1733851439533637600,5.8086376953125,0.6509604012340307,0.2971861262857914,-0.21520926934480666
1733851439543606500,5.8186064453125,0.7848924863398075,0.354811801302433,-0.614853315064311
1733851439553575400,5.828575439453125,0.8892530245244502,0.20705401993989944,-1.1682885770916938
1733851439563543600,5.83854345703125,0.9420382737725973,-0.0598047726213932,-1.5539800853043795
1733851439573512400,5.848512451171875,0.8448112407296895,-0.04540756008699536,-1.6247265231788157
1733851439583480600,5.85848046875,0.6345178004771471,0.03882102130353451,-1.2519406737685204
1733851439593449500,5.868449462890625,0.3945136970937252,0.19595088051483034,-0.8474123631387949
1733851439603418600,5.878418701171875,0.09706862761080265,0.42839550842940805,-0.4264800301969051
1733851439613386800,5.88838671875,-0.09381517877280711,0.4861395491287112,-0.1154138471186161
1733851439623355600,5.898355712890625,-0.1641512822806835,0.5106839155375957,0.10904138947725295
1733851439633323500,5.908323486328125,-0.18827450066804885,0.5361082065861672,0.13258359310626983
1733851439643292400,5.91829248046875,-0.12260346636176109,0.33845271411053834,-0.07841887219846248
1733851439653260500,5.928260498046875,-0.03455225794315338,0.1201785773023963,-0.31182255440354345
1733851439663229400,5.9382294921875,-0.008567337337136268,0.0538505038594827,-0.417899248856306
1733851439673198300,5.9481982421875,-0.03793196350932121,-0.01576448229961097,-0.42038171332180496
1733851439683166500,5.95816650390625,-0.00042377837002277374,-0.008646028596535325,-0.260442495778203
1733851439693135600,5.968135498046875,-0.09692191261649132,0.008147011299524456,-0.16813246087133885
1733851439703103500,5.978103515625,-0.14481354460418225,0.009146342801488936,-0.0957721580594778
1733851439713072600,5.98807275390625,-0.21335048973560333,-0.034662221123650666,-0.16732874327301978
1733851439723041500,5.99804150390625,-0.21826924143731594,-0.18122801622264087,-0.32195231875181196
1733851439733009700,6.008009765625,-0.22410218537449836,-0.4289890904083848,-0.42109015385210513
1733851439742978600,6.017978515625,-0.26430618546903134,-0.8405693653762341,-0.4152297373861074
1733851439752946700,6.02794677734375,-0.3182768451094627,-1.2431493184171616,-0.1406669463187456
1733851439762915600,6.03791552734375,-0.647587709930539,-1.4255727549694477,0.2978776156812906
1733851439772884500,6.047884521484375,-1.122522851216793,-1.338513041806221,0.4621574927777052
1733851439782852400,6.057852294921875,-1.6587971350848674,-1.2466641946703194,0.3717769646286964
1733851439792821500,6.067821533203125,-2.048191004946828,-0.8815259374037384,0.20125030209720132
1733851439802789400,6.077789306640625,-2.266245142328739,-0.26332155834585425,-0.02018237180709839
1733851439812758500,6.087758544921875,-2.245231580394506,0.35582477773725985,0.2125450185716152
1733851439822727400,6.0977275390625,-2.2034674913764,0.6937310369461774,0.5801520040392876
1733851439832695600,6.107695556640625,-1.979705497741699,0.7324936060607433,0.8563543790072202
1733851439842664400,6.11766455078125,-1.5001403585672377,0.4975160986676812,1.133600710070133
1733851439852632600,6.127632568359375,-1.074827034062147,0.014159165994822979,1.3746429243296383
1733851439862601500,6.1376015625,-0.7210381460666656,-0.313393749243021,1.7349708587050436
1733851439872570600,6.147570556640625,-0.4113087645500898,-0.32717794444561005,1.8274118265151977
1733851439882538500,6.15753857421875,-0.1691062743395567,-0.37689416151195765,1.537022520762682
1733851439892507600,6.167507568359375,0.05237257679402828,-0.539180818964541,0.8423527416616677
1733851439902475500,6.1774755859375,0.2351017182946205,-0.6732227941855787,-0.09405717083513736
1733851439912444700,6.187444580078125,0.21671616677641867,-0.654919367992878,-1.1746323931604623
1733851439922413600,6.19741357421875,-0.03288987768888473,-0.4100301229164004,-2.1622160280555485
1733851439932381700,6.207381591796875,-0.32643677068948745,0.019085516481101513,-2.7845909707963465
1733851439942350600,6.2173505859375,-0.6021440556168556,0.43611295093894004,-2.949874471977353
1733851439952318500,6.227318359375,-0.869796044382453,0.8687579335063695,-2.834452441552281
1733851439962287400,6.237287353515625,-0.9825164146333932,1.1661351984500885,-2.463931614464521
1733851439972256500,6.247256591796875,-1.0883978787750006,1.3722007918745278,-1.8452602024167775
1733851439982224400,6.257224365234375,-1.0844178692281246,1.2963830420851707,-1.1416600978851317
1733851439992193500,6.267193603515625,-0.9879413622915744,1.1588795282334088,-0.4110252714335918
1733851440002161700,6.27716162109375,-0.8384083879500627,1.3293810563236474,0.2720972777366638
1733851440012130800,6.287130859375,-0.7243582304000854,1.706836651110649,1.0644774894833564
1733851440022099700,6.297099609375,-0.6990829193681478,2.0689625748187304,1.425295253202319
1733851440032067800,6.30706787109375,-0.8682797946006059,2.3085253641754386,1.3438029649078844
1733851440042036700,6.31703662109375,-1.0502882206112145,2.558094583761692,1.1745265946984291
1733851440052004900,6.3270048828125,-1.3470184198230504,2.575253808355331,0.8770195658951997
1733851440061973800,6.336973876953125,-1.5840613353133202,2.017687730133533,0.4755225857853889
1733851440071943000,6.34694287109375,-1.705782758143544,1.316093704727292,0.14294482812285422
1733851440081910800,6.356910888671875,-1.7189537898838518,0.6986001042872667,-0.2622323018044233
1733851440091880000,6.3668798828125,-1.8512527208298444,0.028895255094766616,-0.6456354068189859
1733851440101847800,6.376847900390625,-2.1240268749147653,-0.7000333519607782,-0.791920777541399
1733851440111817000,6.38681689453125,-2.26741886228323,-1.4598276374012231,-1.1671183642685412
1733851440121785900,6.396785888671875,-2.5625360733404756,-2.270437917843461,-1.5349574049264192
1733851440131754000,6.40675390625,-2.774116630794108,-2.942041294133663,-1.7209610380530356
1733851440141723000,6.416722900390625,-2.8902924021959304,-3.6219063028126954,-1.6017238332539796
1733851440151690800,6.426690673828125,-2.865954372014105,-4.183501490420102,-1.5138117410451173
1733851440161659600,6.43665966796875,-2.8037475066870448,-4.334145056352019,-1.6369254950165748
1733851440171627800,6.446627685546875,-2.7096201932251454,-4.224542525860667,-1.311671796631813
1733851440181596700,6.4565966796875,-2.748378670686483,-3.9440293019562955,-0.7032189962595701
1733851440191565800,6.46656591796875,-2.7424621401190756,-3.618313246756792,-0.20424773034751414
1733851440201533700,6.47653369140625,-2.566431034952402,-3.339304582196474,0.022443886998295783
1733851440211502800,6.4865029296875,-2.174929817547649,-2.818105702385306,0.14471359136104583
1733851440221470700,6.496470703125,-1.5473592058598995,-2.236087904474139,0.21512918984591958
1733851440231440000,6.50643994140625,-0.8547328422199935,-2.084375248005986,0.0949918213367462
1733851440241408800,6.51640869140625,-0.416072106494382,-1.8423060287863016,0.12673252899050713
1733851440251377000,6.526376953125,-0.26028580737914886,-1.4523328977316616,0.7014905650317669
1733851440261345800,6.536345703125,-0.21952826505508272,-0.7220511225014925,1.5368290440171957
1733851440271314000,6.54631396484375,-0.38425066175460815,0.11196984414458275,2.229961530548334
1733851440281282800,6.55628271484375,-0.8379127133876085,0.277268542894721,2.166125894975662
1733851440291252000,6.566251953125,-1.0581424412429332,0.20962942338585852,2.117151143926382
1733851440301219600,6.576219482421875,-1.0432885709822177,-0.10624737484455107,2.3028005567878482
1733851440311188700,6.586188720703125,-0.868451059514284,-0.7532908948957919,2.3857553188502787
1733851440321156900,6.596156982421875,-0.5654699832141399,-1.3270102355390787,2.1685943309158087
1733851440331125800,6.606125732421875,-0.2705330971598625,-1.7518009974747895,1.6168471681058405
1733851440341094700,6.6160947265625,-0.04630816218852996,-1.955236826917529,0.8091466376304626
1733851440351062800,6.626062744140625,0.0906651172440499,-1.8460434617489576,-0.11383563801646232
1733851440361031700,6.63603173828125,0.040398645883798594,-1.585350206080079,-0.8397662322998046
1733851440370999800,6.645999755859375,0.013341200675442814,-1.1366209346741438,-1.1238877098292113
1733851440380968700,6.65596875,0.06808408679738641,-0.5420464375287294,-1.0917506963342427
1733851440390937900,6.665937744140625,0.15704817227721213,-0.15614450143575667,-0.8964496580302714
1733851440400905700,6.67590576171875,0.20619597833845763,-0.01783084024488926,-0.7130272735685109
1733851440410875000,6.685875,0.3155938896358013,-0.14576631528437137,-0.49076048692762847
1733851440420843000,6.695843017578125,0.5107376915514469,-0.2966933743327856,-0.23664544060528278
1733851440430812000,6.70581201171875,0.6330231780052185,-0.2819073086112737,-0.16443360635340212
1733851440440780800,6.71578076171875,0.5304208816647529,-0.3772551037788391,0.04882394440174102
1733851440450749000,6.7257490234375,0.4183107522666454,-0.5082745163083077,0.4274433222711086
1733851440460717800,6.7357177734375,0.24751111801266668,-0.5879582938760519,0.5656061768144369
1733851440470685700,6.745685791015625,0.05810440757744945,-0.6527665738731623,0.5493734194159507
1733851440480654600,6.755654541015625,-0.001147407336300239,-0.7416635854661464,0.36560967417061324
1733851440490623700,6.765623779296875,0.16981880652308462,-0.6893073752850294,0.046804421272873875
1733851440500591900,6.775591796875,0.3759521679541096,-0.7058744792044163,-0.22572014196515083
1733851440510560800,6.785560791015625,0.5414531478106975,-0.7674012533128262,-0.47365211573839183
1733851440520529000,6.79552880859375,0.7263480159778147,-0.5506400783509016,-0.668518854278326
1733851440530497800,6.805497802734375,0.7658219482321291,-0.14389818332493304,-0.8433879299283027
1733851440540466700,6.815466796875,0.7483779884129762,0.1302104342341423,-0.8990028496444225
1733851440550434800,6.825434814453125,0.7155120761215686,0.18198270704746244,-0.9099357470691204
1733851440560403700,6.83540380859375,0.7088732226289808,0.26901918546557424,-0.8885393232971429
1733851440570371800,6.845371826171875,0.5584903534598649,0.39380467204153535,-0.8043108880370855
1733851440580340700,6.8553408203125,0.3417361927606165,0.3576747895181179,-0.9123007226347922
1733851440590310000,6.865309814453125,0.16833528996706007,0.28450901554226876,-1.1841174298644066
1733851440600278000,6.875278076171875,0.16717501401603221,0.357510538867116,-1.3132511747777462
1733851440610247000,6.885246826171875,0.2099099938929081,0.3985644337892532,-1.225139176082611
1733851440620214800,6.89521484375,0.24020167178213594,0.2217383788526058,-0.891743087774515
1733851440630183700,6.90518359375,0.14969722499251364,0.1612760191053152,-0.44504035376012324
1733851440640152600,6.915152587890625,0.01799684446156025,0.15278291604816913,-0.17013503286540507
1733851440650120700,6.92512060546875,-0.17660101400911807,0.18149872292280195,-0.01873568013012409
1733851440660089900,6.93508984375,-0.34586394021511074,0.1871124711513519,0.1279705463528633
1733851440670057700,6.9450576171875,-0.3982110903069377,0.3317138343095779,0.14262158751785756
1733851440680027000,6.95502685546875,-0.19775018502175806,0.5932002861827611,-0.11331658257842063
1733851440689995800,6.964995849609375,0.0069254153490066524,0.7079863567918538,-0.549421350210905
1733851440699964000,6.9749638671875,-0.044216742867231366,0.8226040850967168,-1.003636359551549
1733851440709932800,6.984932861328125,-0.16836334701776504,1.059300963628292,-1.0332476539611817
1733851440719901000,6.99490087890625,-0.3007832739949226,1.352476100707054,-0.6661182228773832
1733851440729869800,7.004869873046875,-0.4621183298110962,1.706830805891752,-0.323343480849266
1733851440739838700,7.014838623046875,-0.6124801561921834,2.0953543226599693,-0.18518880961239337
1733851440749806800,7.024806884765625,-0.6180453891038894,2.278624731430411,-0.13842530487179755
1733851440759776000,7.03477587890625,-0.4534089536547661,2.218850353947282,-0.11491758803427218
1733851440769744000,7.044743896484375,-0.3418710711866617,2.0873007800638677,0.013639233773946761
1733851440779713000,7.054713134765625,-0.23707214158475398,2.151405880227685,0.3206862443387508
1733851440789682000,7.064681884765625,-0.07763736643195152,2.2072022939905525,0.6052730012923478
1733851440799649800,7.07464990234375,0.0822474905759096,2.018110339459777,0.4816548049300909
1733851440809618700,7.08461865234375,0.18460604128837585,1.8480276213034987,0.05008768072724342
1733851440819586800,7.0945869140625,0.22054653871953486,1.6407748639211057,-0.2456242813527584
1733851440829555700,7.1045556640625,0.24495675735473632,1.2514949758276344,-0.2229413249015808
1733851440839524900,7.11452490234375,0.2043231336712837,0.8200666755735874,-0.08855389724373817
1733851440849492700,7.12449267578125,0.06948971581161022,0.40679508651793,-0.0949573345452547
1733851440859462000,7.1344619140625,-0.019729367342591283,0.05943126313388347,-0.20214812771975993
1733851440869429800,7.1444296875,0.03901215996146202,-0.20949995178729294,-0.22336276518404483
1733851440879399000,7.15439892578125,0.14067337605953215,-0.4605138172239065,-0.29765374379754067
1733851440889367800,7.164367919921875,0.17039748319387435,-0.5805754901483655,-0.4476993438363075
1733851440899336000,7.1743359375,0.10712883385419845,-0.6412500313416123,-0.5101373875707388
1733851440909304800,7.184304931640625,0.006490531063079834,-0.8777169005095958,-0.6088397538632154
1733851440919273000,7.19427294921875,-0.14062602978646754,-0.9885846286311745,-0.6325923853725195
1733851440929241900,7.204241943359375,-0.21828268544077872,-1.0629463343933223,-0.4119324494063854
1733851440939211000,7.2142109375,-0.41365854254662987,-1.0193658436030149,-0.20021219122111797
1733851440949178600,7.2241787109375,-0.8085171075552702,-0.6654813862785697,-0.05377776741683483
1733851440959147800,7.234147705078125,-1.143664423444867,-0.42660248753279445,-0.03188566908240318
1733851440969115600,7.24411572265625,-1.4878075312167405,-0.21996610848307607,-0.1550456002831459
1733851440979084800,7.254084716796875,-1.4908125582516192,-0.02170972750484943,-0.06565349864959716
1733851440989053700,7.2640537109375,-1.3487363296568393,-0.07040273900330066,0.019300328275561333
1733851440999021800,7.274021728515625,-1.2874293357789515,-0.2399880290314555,0.018774843096733093
1733851441008991000,7.283990966796875,-1.0368693515896796,-0.3935872298985719,0.0678477938234806
1733851441018958800,7.293958740234375,-0.712764238718152,-0.5175833196625114,0.06045943713784217
1733851441028927700,7.303927734375,-0.5808481696099043,-0.42877690896242854,0.06694529202580451
1733851441038897000,7.31389697265625,-0.5611760854125023,-0.09717880998700856,0.14142039503455162
1733851441048864800,7.32386474609375,-0.6172346572428942,0.3423557859636843,0.35174189233779907
1733851441058834000,7.333833984375,-0.6626648675531148,0.7393976863607764,0.5911258179962635
1733851441068801800,7.3438017578125,-0.7048936514735221,0.8300059588510542,0.4659259054005146
1733851441078771000,7.35377099609375,-0.6734767689466477,0.5895477550245821,0.2607902863025665
1733851441088739800,7.36373974609375,-0.6113461837261915,0.41656259342506524,-0.2903355297386646
1733851441098708000,7.3737080078125,-0.6799713916629553,0.5804309305785224,-0.729334849768877
1733851441108676900,7.3836767578125,-0.8070143017768859,0.8110863735213876,-0.8328951774865389
1733851441118645000,7.39364501953125,-0.8326549389898776,1.0545841642394662,-0.9829355168282985
1733851441128614000,7.40361376953125,-0.8224369118362664,1.3840734543673694,-1.2504314382493495
1733851441138583000,7.4135830078125,-0.7726876692831516,1.6861159346431493,-1.03770814050138
1733851441148551000,7.423551025390625,-0.5716214915812016,2.177311451987177,-0.6070113693922757
1733851441158520000,7.43352001953125,-0.20454057581424712,2.78859377669692,0.03744154964387417
1733851441168487700,7.44348779296875,0.12939210358858108,3.202673759526014,0.3549216914176941
1733851441178456800,7.453456787109375,0.34439562122821804,3.1999948957055806,0.3034019320607185
1733851441188425700,7.46342578125,0.41237960865199563,3.2659976461842652,0.083110244885087
1733851441198393900,7.473393798828125,0.5256137736439704,3.2713916141822934,-0.3932195656299591
1733851441208362800,7.48336279296875,0.7207394553810358,2.8594208785921333,-0.9399427627980709
1733851441218331000,7.493330810546875,0.7997066091120243,2.3290201629325744,-1.4976561405360698
1733851441228299800,7.5032998046875,0.8400187457561492,1.9883152129158377,-1.7184347344458102
1733851441238269000,7.51326904296875,0.8723848918318748,1.936155986611545,-1.377228264647722
1733851441248236800,7.52323681640625,0.7171183422744274,1.8440104946166276,-0.7531067705005406
1733851441258206000,7.5332060546875,0.5062812966644764,1.4721879372805355,0.008261047866940497
1733851441268173800,7.543173828125,0.28851649761795994,0.9879016148030757,0.6009188977360725
1733851441278143000,7.55314306640625,0.2091109524697065,0.5486562110573053,1.1546072577416897
1733851441288111900,7.56311181640625,0.24304770886301993,0.324594942215085,1.550806715965271
1733851441298080000,7.573080078125,0.23710896646380422,0.22459143019616604,1.7587427794367074
1733851441308049000,7.583048828125,0.1942670190811157,0.3628907706007361,1.5711469086825847
1733851441318017000,7.59301708984375,0.22877836049199102,0.527524283440411,1.1420990738242864
1733851441327986000,7.60298583984375,0.2766851900488138,0.6637927025392651,0.7178238601952791
1733851441337955000,7.612955078125,0.2199000575095415,0.8623720318615437,0.458024923017621
1733851441347922700,7.622922607421875,0.13532733885645865,0.9908315307751298,0.19964812759757042
1733851441357891800,7.632891845703125,0.09755962599813937,1.1094552798509598,0.12796411661207674
1733851441367860000,7.64285986328125,0.10854980656802654,1.0547823171600699,0.01481178468465805
1733851441377828900,7.652828857421875,0.12231880420148372,0.9697755910038948,-0.2425654783040285
1733851441387797800,7.6627978515625,0.22986381764113903,0.861119985973835,-0.5059709155410528
1733851441397766000,7.672765869140625,0.2614303377717733,0.8495271633356809,-0.7727157263338565
1733851441407734800,7.68273486328125,0.20443886900544164,1.126842467981577,-0.8222095328211784
1733851441417703000,7.692702880859375,0.11153671342432499,1.3893705378621817,-0.7775438771426677
1733851441427671800,7.702671875,-0.005910685348510742,1.46024381698668,-0.9245552240520715
1733851441437641000,7.712640869140625,-0.12378887675404548,1.5075933049216865,-1.0614730469703673
1733851441447608800,7.72260888671875,-0.22173370267748832,1.5036273239001632,-0.9701514385789632
1733851441457578000,7.732577880859375,-0.20233459020256994,1.224506285006553,-0.8278823177605867
1733851441467546000,7.742546142578125,-0.061958735784888266,0.5834435929305851,-0.7882453038990497
1733851441477515000,7.752514892578125,0.07970657392144202,0.1213229250319302,-0.7676490905940532
1733851441487484000,7.76248388671875,-0.039806525209546084,-0.24006620883420107,-0.5470113664597273
1733851441497451800,7.77245166015625,-0.44554479615092274,-0.5004403155513107,-0.1850561231434345
1733851441507420700,7.782420654296875,-0.924735256794095,-0.5577665692299604,0.29240356818437574
1733851441517388800,7.792388916015625,-1.001222868669033,-0.8873981904380023,0.6069172613680363
1733851441527357700,7.802357666015625,-0.8215770801365375,-1.55881846524626,0.2303261744558811
1733851441537326800,7.812326904296875,-0.7858359046697616,-1.8274767084449528,-0.2453366965830326
1733851441547295000,7.822294921875,-0.6236883634269237,-1.7409058017119765,-0.18865677798390387
1733851441557264000,7.832263916015625,-0.3396691772282123,-1.4684708164535463,0.05810732105374336
1733851441567232000,7.84223193359375,-0.11469546971619128,-0.875716228211671,0.4150555498629808
1733851441577201000,7.852200927734375,-0.16942951494455336,-0.30979473837036636,0.5193167193263769
1733851441587169800,7.862169677734375,-0.3397954339563846,0.20908077652715146,0.3808189337402582
1733851441597138000,7.872137939453125,-0.6032838733017444,0.6092837713036686,0.2259691482901573
1733851441607106800,7.88210693359375,-0.7946446495473385,0.4373723033502698,-0.14480536129772661
1733851441617076000,7.892075927734375,-1.0579401966691016,0.10108794625476002,-0.5590373198181391
1733851441627043800,7.9020439453125,-1.2633674921900033,0.015659195294231175,-0.5257020364493131
1733851441637013000,7.912012939453125,-1.2778279792189597,-0.16212547554150222,-0.10166121609807013
1733851441646981000,7.921981201171875,-1.1692436858594417,-0.34766236793920396,0.30574060414135457
1733851441656950000,7.931949951171875,-1.0932675306379795,-0.44335634619593617,0.6200526372730731
1733851441666919000,7.9419189453125,-1.0945002873033285,-0.7857070175930857,0.5705524010449647
1733851441676886800,7.95188671875,-1.1504197429239749,-1.2502788780361414,0.2785416315704584
1733851441686855700,7.961855712890625,-1.240780981850624,-1.6743077156886457,0.1308814653635025
1733851441696823800,7.97182373046875,-1.2719716544061899,-1.8203639538303016,0.15431670148670673
1733851441706792700,7.981792724609375,-1.2756038734287023,-1.8016732818856833,0.15715689334869384
1733851441716761900,7.991761962890625,-1.1999965515196322,-1.8930533424660563,0.034714170506596566
1733851441726730000,8.00172998046875,-1.0027361958414316,-2.1012670538350937,-0.2732885333478451
1733851441736699000,8.011698974609375,-0.856091928678751,-2.0648983941197394,-0.6606365765959024
1733851441746667000,8.0216669921875,-0.770801417145133,-1.7259613305583594,-0.8231769165486097
1733851441756636000,8.031635986328125,-0.6276525908827781,-0.9898597631335257,-0.6948311071425676
1733851441766604800,8.041604736328125,-0.47334641079008577,-0.09602993221282959,-0.7552443670511245
1733851441776573000,8.051572998046876,-0.36644729403853415,0.8000900554716587,-1.0012930112957954
1733851441786541800,8.061541748046874,-0.24387772994637488,1.5264932357028125,-1.0857751290559767
1733851441796510000,8.071510009765625,-0.10037234533131122,2.074321763764322,-1.076699842196703
1733851441806479000,8.08147900390625,0.01269113926887512,2.392898176342249,-0.9066612554430961
1733851441816448000,8.091447998046876,0.12594108635187148,2.3636200594097376,-0.5690379048287868
1733851441826415900,8.101415771484374,0.10473755480349063,2.366332825499773,-0.13418869021534918
1733851441836384800,8.111384765625,0.09102408674955367,2.1916016970157624,0.3345160322487354
1733851441846353000,8.121352783203125,-0.0014817629903554916,1.7714619757562875,0.4713321483582258
1733851441856321800,8.13132177734375,-0.15729133338332174,1.2887187910676001,0.41199850037992
1733851441866290700,8.141290771484375,-0.2838309701502323,0.8194716322898864,0.333849092772603
1733851441876258800,8.1512587890625,-0.4878256025195121,0.34413550898730755,0.3446931428700685
1733851441886228000,8.16122802734375,-0.7187105799019337,0.006279518660902977,0.22246435503959655
1733851441896195800,8.17119580078125,-1.0012661232888698,-0.08354980534613132,-0.23205811281502245
1733851441906165000,8.1811650390625,-1.266732584708929,0.0544891305565834,-0.8996230273693799
1733851441916134000,8.1911337890625,-1.517463833811879,-0.12019289808869361,-1.3566039942920207
1733851441926102000,8.20110205078125,-1.710076071423292,-0.4002817591011524,-1.341412854900956
1733851441936071000,8.21107080078125,-1.8587647038951516,-0.8474152857482433,-1.328428870165348
1733851441946039000,8.2210390625,-1.8028923022866248,-1.232627486011386,-1.3495225115984677
1733851441956008000,8.231008056640626,-1.7690636824429034,-1.7820295469999312,-1.2793483206540346
1733851441965976800,8.240976806640624,-1.9555419473439455,-2.2309750915050506,-1.115295822572708
1733851441975945000,8.250945068359375,-2.1646616676419974,-2.5455700332313773,-0.553408958542347
1733851441985914000,8.2609140625,-2.2987363760888577,-3.0218852306991812,0.0011754735201597213
1733851441995881700,8.2708818359375,-2.34516115039438,-3.2803415210962292,0.12014613633751868
1733851442005851100,8.28085107421875,-2.3203625169634816,-3.5188106699973343,0.12108370944857597
1733851442015820000,8.290820068359375,-2.1881308060348035,-3.624353695964813,-0.3018471038341522
1733851442025788200,8.3007880859375,-2.055922475981712,-3.371199603629112,-0.5343301640629768
1733851442035757000,8.310757080078124,-1.8938485844969748,-2.875199462482333,-0.3798819451510906
1733851442045725200,8.32072509765625,-1.7668407456964252,-2.0882816077947615,0.07665946131050587
1733851442055694000,8.330694091796875,-1.9095283841878175,-0.9653431615144014,0.4081675439149141
1733851442065663000,8.3406630859375,-1.9674068649217484,0.009153028270602225,0.96286537322402
1733851442075631000,8.350631103515624,-1.7811416582494972,0.42256490257978435,1.4704741190999746
1733851442085600300,8.360600341796875,-1.6129703266724944,0.40853170105218883,1.649821509207785
1733851442095568000,8.37056787109375,-1.2963082232832908,0.03784662331342697,1.9185507718160748
1733851442105537000,8.380537109375,-0.9772169930510223,-0.16703239067494868,1.909152536612749
1733851442115506200,8.390506103515625,-0.9406067796647548,-0.30373978571295734,1.6048957412883638
1733851442125474000,8.40047412109375,-1.015871717876941,-0.47651159682273864,1.3184987200424074
1733851442135443000,8.41044287109375,-1.0655686457209288,-0.38523441209495063,1.107289626249671
1733851442145411000,8.4204111328125,-0.9377484676241874,-0.451411642357707,0.973296166345477
1733851442155380000,8.4303798828125,-0.7079577152192592,-0.8040496067523956,0.6091966044768691
1733851442165349000,8.44034912109375,-0.5756166986972093,-1.046719714474678,0.43499855995625253
1733851442175317000,8.45031689453125,-0.5527759213358163,-1.1529431239217518,0.5779360815554857
1733851442185286100,8.4602861328125,-0.5054277485750616,-1.0836340253740548,0.7044605207532644
1733851442195254000,8.47025390625,-0.42903965155184265,-0.8946300413876771,0.6264622120544314
1733851442205223200,8.48022314453125,-0.19953239226341246,-0.7205752047300338,0.23968378538787363
1733851442215192000,8.490192138671874,0.019725129558891056,-0.5641705910533666,-0.3396545641809702
1733851442225160200,8.50016015625,0.14576090845689177,-0.3346779448121786,-0.7148337384685873
1733851442235129000,8.510129150390625,0.1871549951188266,-0.3226221808373928,-0.80177552434057
1733851442245097200,8.52009716796875,0.19045754379555582,-0.4399830703705549,-0.5566697139039636
1733851442255066000,8.530066162109375,0.18526713554561136,-0.7038479418128728,-0.2131923765644431
1733851442265035300,8.54003515625,0.1517160174690187,-0.9553151039749384,0.11486731915175914
1733851442275003000,8.5500029296875,0.12059504914879798,-1.397211899012327,0.13227788815796374
1733851442284972000,8.559971923828124,0.11036715818829834,-1.9543062680691479,-0.029248890838026998
1733851442294941000,8.56994091796875,0.1291951197117567,-2.2454022607862947,-0.05116203196048736
1733851442304909000,8.579908935546875,0.12321794499829411,-2.09070854268074,-0.011670564049482345
1733851442314878000,8.5898779296875,0.1779999210216105,-1.5554735387325287,-0.1204635317236185
1733851442324846000,8.59984619140625,0.10337912593185901,-0.8267471762508154,-0.3590867021426558
1733851442334815000,8.60981494140625,0.01435293500125408,-0.3820896843284368,-0.5175678298324347
1733851442344784100,8.6197841796875,0.021358429849147795,-0.11865268290936946,-0.7107377013266086
1733851442354752000,8.629751953125,0.08886968519464135,-0.20496143157482147,-0.7807961569368839
1733851442364721200,8.63972119140625,0.09423223514109849,-0.30722178260982036,-0.8578115920782089
1733851442374689000,8.64968896484375,0.133038351136446,-0.17747487423419953,-0.923757936194539
1733851442384658200,8.659658203125,0.20067045638263226,-0.018007365855574605,-1.0008353306561708
1733851442394627000,8.669626953125,0.30210867737978697,0.021903204250335692,-1.0684417169392109
1733851442404595200,8.67959521484375,0.2918698996990919,0.027262100934982297,-0.950050899836421
1733851442414564000,8.689564208984375,0.24694179369211194,0.0018026655077934264,-0.6980217198774218
1733851442424532200,8.6995322265625,0.2153992389589548,0.3006383125662804,-0.4432017401561141
1733851442434501000,8.709501220703125,0.13154548223018644,0.6053606795758009,-0.158546009619534
1733851442444470300,8.71947021484375,0.09256722453832626,0.5566191527605057,-0.20900836887806654
1733851442454438000,8.72943798828125,-0.044026773253083226,0.39854046839177604,-0.6790539845570922
1733851442464407000,8.739406982421874,-0.12774755125194787,0.4798357728093862,-1.1268687714666128
1733851442474375000,8.749375,-0.019186931028962136,0.7079623913943767,-1.4257774837613104
1733851442484344000,8.759343994140625,0.07617313909828663,0.8617623755306005,-1.4721721551895142
1733851442494313000,8.76931298828125,-0.02406125906705856,0.7602765159994364,-1.1329600740790366
1733851442504281000,8.779281005859374,-0.09033668900728226,0.6601069997638463,-0.6990618765801191
1733851442514250000,8.78925,-0.25713819353580475,0.7149310613632202,-0.5244242715984583
1733851442524218000,8.799218017578125,-0.35436639562249184,1.0056582207679747,-0.4111117806732654
1733851442534187000,8.80918701171875,-0.1870475892215967,1.5795359668433666,-0.44539457402527327
1733851442544156200,8.81915625,-0.121935942363739,1.914730629006028,-0.7662029834389686
1733851442554124000,8.8291240234375,-0.24553426498174666,1.6998849322766065,-0.7190069325000047
1733851442564093200,8.83909326171875,-0.44157939965128895,1.3854443043291569,-0.5754477718710899
1733851442574061000,8.84906103515625,-0.7812824791491031,1.3937167503729462,-0.3470996194899082
1733851442584030200,8.8590302734375,-1.0565168858677148,1.7148296956911682,-0.0006517419070005417
1733851442593999000,8.8689990234375,-1.162463816460967,2.0724930870324374,0.2886199579924345
1733851442603967000,8.878967041015626,-1.1490127987354992,2.1168425163686275,0.45583705758452414
1733851442613935900,8.888935791015625,-1.0281552992582321,1.8065049398258328,0.6589665975570679
1733851442623904000,8.898904052734375,-0.7739362080395221,1.639008146509528,0.7331102766543627
1733851442633873000,8.908872802734376,-0.48555239689052104,1.5871151699259876,0.5673574043959378
1733851442643842000,8.918842041015624,-0.29494682292640206,1.5110247406750916,0.427082672265172
1733851442653810000,8.928809814453125,-0.10788345161378383,1.5018766808405517,0.1889648210197687
1733851442663779000,8.938779052734375,0.0798731626600027,1.5793419055759905,0.08724339916706085
1733851442673747000,8.948746826171876,0.18828209945261476,1.6146078647464512,0.11798749699890612
1733851442683716000,8.958716064453125,0.24101591077446935,1.6351099700272083,0.033709377378225325
1733851442693685000,8.96868505859375,0.35908816344738004,1.528510713005066,-0.118951958116889
1733851442703653000,8.978653076171875,0.5041700035989284,1.1817004318505524,-0.32778292460143565
1733851442713622000,8.9886220703125,0.59174774928689,0.7479366743862629,-0.5140688818007707
1733851442723590100,8.998590087890625,0.6332844592899084,0.22000614823251963,-0.7755600098490715
1733851442733559000,9.00855908203125,0.6310439868867397,-0.3614338497906923,-0.9897761765033006
1733851442743528200,9.018528076171876,0.46748307171463965,-0.9567018821582197,-1.0993769534289837
1733851442753496000,9.02849609375,0.25785949354767795,-1.3808726124994457,-0.9603606969267129
1733851442763465200,9.03846533203125,0.1784954494535923,-1.597065047662705,-0.7056658048897981
1733851442773433000,9.04843310546875,0.11944120293855666,-1.3895216367706655,-0.35088790585696694
1733851442783402000,9.058402099609374,-0.06240940216183662,-0.9072657972075044,0.20921090571284293
1733851442793371000,9.068370849609375,-0.3667623513370752,-0.28861352825164793,0.8667986161321402
1733851442803339000,9.078339111328125,-0.6241518892854452,0.1486862943843007,1.0029401939809321
1733851442813308000,9.088307861328126,-0.6023235038369894,0.27115385940670966,0.5359492896974086
1733851442823276000,9.098276123046874,-0.5229740727901458,0.05199190691336989,-0.12207038239836693
1733851442833245000,9.108244873046875,-0.3463379874676466,-0.2974365939155221,-0.49954292832016944
1733851442843214000,9.118214111328125,-0.29164485877156254,-0.5149462491571903,-0.6556646334022284
1733851442853182000,9.128181884765626,-0.3718862702220678,-0.640400136514008,-0.5961433538973331
1733851442863151000,9.138151123046875,-0.3693114512979984,-0.601316591816768,-0.41583004136681556
1733851442873119200,9.148119140625,-0.379912924811244,-0.505937342065014,-0.2226964102298021
1733851442883088100,9.158088134765626,-0.2730453722417354,-0.21946900914851575,0.12350713720321654
1733851442893057000,9.16805712890625,-0.1774924098908901,0.05588406464685686,0.0417711032807827
1733851442903025200,9.178025146484375,-0.10070376924276352,0.34493498880192636,-0.3151490684777498
1733851442912994000,9.187994140625,-0.022784078738093374,0.6586279401872307,-0.5844459018409252
1733851442922962000,9.1979619140625,-0.1246206514030695,0.9721773914486169,-0.7422475228339434
1733851442932931000,9.20793115234375,-0.12001695699989795,0.8991478841383009,-0.7991752787142992
1733851442942900000,9.21789990234375,-0.13370996678769587,0.22745186112858354,-0.6052098729282617
1733851442952868000,9.2278681640625,-0.27318098132014274,-0.8444231181949376,-0.3435878119766712
1733851442962837000,9.2378369140625,-0.3882406081736088,-1.228236849837005,-0.36710137403309345
1733851442972805000,9.24780517578125,-0.6771569187641143,-0.7105176288351416,-0.26041326968371864
1733851442982774000,9.25777392578125,-0.872166280645132,0.19438377732858061,0.019843933632969855
1733851442992743000,9.267742919921876,-0.9359580770760774,1.1487009563073516,0.2753115636080503
1733851443002710800,9.277710693359374,-0.9539023145675659,1.674207324054092,0.5758154361397028
1733851443012680000,9.287679931640625,-0.9080366354495286,2.0921549420967698,0.910893193924427
1733851443022647800,9.297647705078125,-0.834094031882286,2.334789101722836,0.8954325899422169
1733851443032617000,9.307616943359376,-0.7248118193864822,2.200932712201774,0.12524608982503413
1733851443042585900,9.3175859375,-0.7091168221265077,2.0642823080480097,-0.9292997882306575
1733851443052553700,9.3275537109375,-0.7796212679386139,2.157019043934345,-1.3817577247709034
1733851443062522600,9.337522705078126,-0.810156691455841,2.3367566024035216,-1.1969126140296458
1733851443072490800,9.34749072265625,-0.745084792086482,2.3120485698655244,-0.5993371815025806
1733851443082459600,9.357459716796875,-0.5886071131736039,2.291036176975071,0.07192249591648578
1733851443092428800,9.3674287109375,-0.3753554076373577,2.2075579755604267,0.35254502541422844
1733851443102396700,9.377396728515626,-0.18829086728096006,2.1966364763125776,0.6368582261234521
1733851443112365800,9.38736572265625,-0.08149637994766235,2.1921944022119044,0.9868880538463592
1733851443122333700,9.397333740234375,0.02772738035917282,1.9265765496224163,1.2484838113129137
1733851443132302800,9.407302734375,0.11361293517649174,1.621990083952248,1.2165531340450049
1733851443142271700,9.417271728515624,0.2310755315184593,1.4957394932597874,1.0390642312854528
1733851443152239900,9.427239990234375,0.29765841997265813,1.2450710802599787,0.6296721140116452
1733851443162208800,9.437208740234375,0.26541969966888423,1.1525769209578633,0.30066403152942656
1733851443172177000,9.447177001953126,0.25911621561050413,0.9613935471057892,-0.03210077313780785
1733851443182145800,9.457145751953124,0.2627601250708103,0.649896863655746,-0.4251251084566116
1733851443192115000,9.467114990234375,0.16455518690645693,0.5337652236565947,-0.738199124225974
1733851443202082800,9.477082763671875,0.029894203004240987,0.629167379359901,-0.7952893771916627
1733851443212052000,9.487052001953124,-0.11894669741988181,0.788873372669518,-0.6756546975076199
1733851443222019600,9.49701953125,-0.26934417963623997,0.9421206913590431,-0.42730654414892194
1733851443231988700,9.50698876953125,-0.3323953868329525,1.0057003063440322,-0.22486849357187746
1733851443241957600,9.51695751953125,-0.36256899130046366,1.0813500060901045,-0.09577917232215404
1733851443251925800,9.52692578125,-0.3015811463743448,1.186908229626715,0.07383095988631248
1733851443261894700,9.536894775390625,-0.20873393585085867,1.2832770384050904,0.11972411153316496
1733851443271862800,9.54686279296875,0.010209843847155571,1.07476565926373,-0.04848609074950218
1733851443281831700,9.556831787109376,0.23954057752490043,0.28394933583289383,-0.6656003364831209
1733851443291800800,9.56680078125,0.2187497184306383,-0.38378026776388285,-1.1401987931609152
1733851443301768700,9.576768798828125,0.12863631678521634,-0.8050142140008508,-1.0686772792607546
1733851443311737900,9.58673779296875,-0.049182256320118904,-1.0057296785689889,-0.6666928078949451
1733851443321705700,9.596705810546876,-0.09981178883910179,-0.9910945656254887,-0.15707739837169646
1733851443331675000,9.6066748046875,0.019229016605019567,-1.1081397402729838,0.18498130434155463
1733851443341643800,9.616643798828125,0.17296587237715721,-1.271271981704235,0.13417115455865858
1733851443351612000,9.62661181640625,0.2942787144064903,-0.8949741055849939,-0.012580664631724357
1733851443361580800,9.636580810546874,0.2904658781200647,-0.22988444030405952,0.10807692835927009
1733851443371548700,9.646548583984375,0.1337877081990242,0.2861909772798419,0.26159400390088555
1733851443381517600,9.656517578125,-0.13468611834347247,0.7882510760527104,0.17701660907268524
1733851443391487000,9.666487060546874,-0.6484013644009828,0.942813495928794,-0.6242191093027591
1733851443401454600,9.67645458984375,-1.0914847388744353,0.9484965100012719,-1.3576649015218019
1733851443411423700,9.686423828125,-1.4967320114284752,0.9146972623825073,-1.688154746994376
1733851443421391600,9.6963916015625,-1.8555501257628202,0.5870623679496347,-1.5027759677678345
1733851443431360800,9.70636083984375,-2.077605315479636,0.15988281118124723,-0.8161258289933204
1733851443441329700,9.71632958984375,-2.129234964951873,0.08360387362092733,0.14974983196258543
1733851443451297800,9.7262978515625,-2.0180477956175804,-0.03874766380637884,0.8994377339303493
1733851443461266700,9.7362666015625,-1.8734400027185678,-0.1329439508512616,1.1992390111505984
1733851443471234800,9.74623486328125,-1.7866729888916015,-0.039455812075734134,1.168437630173564
1733851443481203700,9.75620361328125,-1.7600100228935478,-0.22550971408486364,1.119091123202443
1733851443491172900,9.7661728515625,-1.595042748054862,-0.7418538473412394,1.0908692373245954
1733851443501140700,9.776140625,-1.3671476001381873,-1.267685355389118,0.9166706082820891
1733851443511110000,9.78610986328125,-1.2849252440035341,-1.3977978822067378,0.5969692833274602
1733851443521077800,9.796077880859375,-1.23325350895524,-1.3578002183392643,0.06418576418459415
1733851443531047000,9.806046875,-1.1480559364020824,-1.4508356449112296,-0.5402782588124275
1733851443541015800,9.816015869140625,-0.9721762224048376,-1.5808771523192524,-0.9918325245112181
1733851443550983700,9.825983642578125,-0.7171405541062355,-1.6700553189411758,-1.122615790197253
1733851443560952600,9.83595263671875,-0.4043663980662823,-1.542607627418637,-1.0371066674768925
1733851443570920700,9.845920654296876,-0.027214754661917685,-1.3111895660728214,-0.8503302964121103
1733851443580889600,9.8558896484375,0.22131810761392115,-1.054651676517725,-0.7083434996664524
1733851443590858800,9.865858642578125,0.1968301475673914,-0.736819068044424,-0.5950865383207797
1733851443600826600,9.87582666015625,0.18588965135812757,-0.4225286622226238,-0.7091536470055579
1733851443610795800,9.885795654296874,0.09973112481832504,0.02259878529906273,-0.8085241218179464
1733851443620764000,9.895763916015625,-0.11726970411837101,0.602715718024969,-0.9492156180560588
1733851443630732800,9.90573291015625,-0.3768465229779482,1.1049778421759604,-1.1135691449105738
1733851443640701700,9.91570166015625,-0.5734621510118246,1.278168755480647,-1.0884095692127942
1733851443650669800,9.925669921875,-0.765379684357345,0.9902069691359996,-0.7005863096684217
1733851443660638700,9.935638671875,-0.9658382515549659,0.6412304498583078,-0.2062631618231535
1733851443670606800,9.94560693359375,-1.1124150064393878,0.2243260572582483,-0.21564473815262317
1733851443680575700,9.95557568359375,-1.1426634297087788,0.3735872289210558,-0.9004992256820201
1733851443690545000,9.965544921875,-1.3961021842047572,0.43689211861789223,-2.2660990118563173
1733851443700512800,9.9755126953125,-1.7540128283053635,-0.021495792493224142,-2.8944021756023166
1733851443710482000,9.98548193359375,-2.022190886771679,-0.3658534197986126,-1.6890578333139419
1733851443720449800,9.99544970703125,-2.2862702777475117,-0.8378700432896613,0.25166531508266926
1733851443730418700,10.005418701171875,-2.5785358987659213,-1.371999131822586,1.4369944588243961
1733851443740387600,10.0153876953125,-2.9103935254603623,-1.8231003930568694,1.7966612989425659
1733851443750355700,10.025355712890626,-3.0045845518082377,-2.167110229837894,1.1116899070352315
1733851443760324600,10.03532470703125,-2.825814084805548,-2.578282800787687,0.053850832653045654
1733851443770292700,10.045292724609375,-2.78761557931453,-3.236713976293802,-0.6173556532740593
1733851443780261600,10.05526171875,-2.73120775565505,-3.6706641962409017,-0.6965875954210757
1733851443790230800,10.065230712890624,-2.4977497129142283,-3.693978436332941,-0.4646504786372184
1733851443800199000,10.075198974609375,-2.0111334861844776,-3.5485330235660073,-0.44850656856596466
1733851443810167800,10.085167724609375,-1.5748141990184783,-3.0753876883059736,-0.4988935245007276
1733851443820136000,10.095135986328126,-1.2854974909335375,-2.6031238120555877,-0.581259088498354
1733851443830104800,10.105104736328125,-0.9887661226779222,-2.1146838770300147,-0.5297416672289371
1733851443840073700,10.11507373046875,-0.7199627719201147,-1.3691653697013855,-0.5593418557226657
1733851443850041900,10.125041748046876,-0.6006296324659138,-0.40453181776106356,0.0877905116558075
1733851443860010800,10.1350107421875,-0.515209868529439,0.20070085152089595,1.4867074610203503
1733851443869978600,10.144978515625,-0.4084323323309421,0.6201309632062911,2.683368730637431
1733851443879947800,10.15494775390625,-0.24982524017393587,0.9580471592873334,3.153404409444332
1733851443889915600,10.16491552734375,-0.08312719601988793,1.067413542935252,3.1009634435892104
1733851443899884800,10.174884765625,0.05403674714658409,0.8849334077596664,2.4497891073435545
1733851443909853700,10.184853759765625,0.039885417398344725,0.48181554844975466,1.7170710448771713
1733851443919821800,10.19482177734375,0.0032820812774356453,-0.020831191104650496,1.306205347919464
1733851443929790700,10.204790771484374,0.03833645722356159,-0.20219372042715547,0.793880679437518
1733851443939758800,10.2147587890625,-0.11678279738426207,-0.22004268085062503,0.10723930849134922
1733851443949727700,10.224727783203125,-0.27897476229071616,-0.4876707042187452,-0.307974062281847
1733851443959697000,10.23469677734375,-0.3532312541127205,-0.6538660595476627,-0.44308045186400413
1733851443969664800,10.244664794921874,-0.33162147985100743,-0.5364285976469516,-0.5914888060897588
1733851443979634000,10.254634033203125,-0.2842593881627545,-0.4834165539056062,-0.8465601302236319
1733851443989601800,10.264601806640625,-0.20696690791202707,-0.7771838116586208,-0.9844511820882558
1733851443999571000,10.274571044921874,-0.13618713402356952,-0.997565515205264,-1.010047980159521
1733851444009539800,10.284539794921875,-0.19840368049442766,-0.9206494487851857,-0.9002829525828361
1733851444019508000,10.294508056640625,-0.29398652652688323,-0.8743523925125598,-0.7308230425000191
1733851444029476900,10.304476806640626,-0.31757483431994915,-1.0858294895917178,-0.3094815442353487
1733851444039445000,10.314445068359374,-0.3584276537120342,-1.2900795580267905,0.08980535860955714
1733851444049414000,10.324413818359375,-0.42938101233541964,-1.3919716602712868,0.0035310967355966566
1733851444059383000,10.334383056640625,-0.5921107373803853,-1.3274509650439024,-0.31688685205578804
1733851444069351000,10.344350830078126,-0.6939584159612655,-1.0985305657327173,-0.4642319609642028
1733851444079320000,10.354320068359375,-0.7136896829999982,-0.8550883045941591,-0.4844499886065721
1733851444089288000,10.364287841796875,-0.6358467109933496,-0.6208002407699823,-0.5206067591369152
1733851444099257000,10.374257080078126,-0.4468208074361086,-0.3683621877491474,-0.559182865768671
1733851444109226000,10.38422607421875,-0.34958690626099703,-0.04041267440915108,-0.5973936462193727
1733851444119194000,10.394194091796875,-0.24463746227249503,0.3227051829457283,-0.7090262212336063
1733851444129163000,10.4041630859375,-0.11795111051127313,0.5796048915505408,-0.9303186098843812
1733851444139131000,10.414130859375,0.003987608331441879,0.9331646469652652,-1.061022380593419
1733851444149099800,10.424099853515624,0.19663900890946387,1.2412673040628432,-0.9456523726165295
1733851444159069000,10.43406884765625,0.29614041662514207,1.3243974226921795,-0.515250785061717
1733851444169036800,10.444036865234375,0.34789398473799227,1.2881231632620096,-0.06403495753705502
1733851444179006000,10.454005859375,0.39400107139647006,1.350738317129016,0.13642857809662817
1733851444188973800,10.463973876953125,0.3866699978560209,1.6284470050066708,0.11318038897812366
1733851444198943000,10.47394287109375,0.29213556489795445,1.9823364307671785,-0.07622282345890999
1733851444208910800,10.483910888671875,0.23002923733592032,2.1954636331409216,-0.10520224970579146
1733851444218880000,10.4938798828125,0.31973113557100297,2.2467963454931974,-0.0059761518001556395
1733851444228849000,10.503848876953125,0.6583727233171462,2.285951128795743,0.11103168651163578
1733851444238817000,10.513817138671875,1.187956569635868,2.056717425751686,0.12243746214509009
1733851444248786000,10.523785888671876,1.6990128256171941,1.4618693723618983,-0.22370938666462897
1733851444258754000,10.533754150390624,1.797110796275735,0.7922194682270288,-0.7791033815443515
1733851444268723000,10.543722900390625,1.638866692212224,0.18850421777069568,-1.0971411572009324
1733851444278692000,10.553692138671876,1.3269576285690068,-0.07180325345098972,-1.1178040060013532
1733851444288660000,10.563659912109374,0.8937345538526773,0.1063122567743063,-1.2480144402354956
1733851444298629000,10.573629150390625,0.41363983784615993,0.32082945220172404,-1.3487059345185757
1733851444308596700,10.5835966796875,0.051714405146241184,0.534357636591792,-1.3141250350028275
1733851444318566000,10.59356591796875,-0.1260626669049263,0.8382271861642598,-1.1529121442615986
1733851444328534800,10.60353466796875,-0.22940555247962474,1.1861778695255518,-0.859420780840516
1733851444338503000,10.6135029296875,-0.25603169359862804,1.4867559763371943,-0.3334136239647865
1733851444348471800,10.623471923828125,-0.21971768667995928,1.6302730513900519,0.38514790285527706
1733851444358440000,10.63343994140625,-0.0895896700322628,1.5153297443926335,0.731615654182434
1733851444368408800,10.643408935546875,0.16879472417235372,1.1392419308274984,0.7255255206137895
1733851444378378000,10.6533779296875,0.39504736557900905,0.6795657334715127,0.6699708066523075
1733851444388345900,10.663345947265626,0.47191608572602267,0.2765618559300899,0.7228548400998115
1733851444398315000,10.67331494140625,0.46571781560778613,-0.1869207479715347,0.7496183438628912
1733851444408283000,10.683282958984375,0.40310149269700046,-0.6910930896580219,0.5914005432844162
1733851444418252000,10.693251953125,0.2743272287458181,-0.9708704005032778,0.22557576505839824
1733851444428221000,10.703220947265624,0.1742342848777771,-0.81194883556962,-0.17538462395668028
1733851444438189000,10.71318896484375,0.0326209976196289,-0.47107145159542557,-0.4382219059169292
1733851444448158000,10.723157958984375,-0.01905950525701046,-0.26627777780294415,-0.6034557227373123
1733851444458125800,10.733125732421875,-0.12207388952970503,-0.15628478668928145,-0.8484498894929885
1733851444468094700,10.7430947265625,-0.20131635307073592,-0.07283288875967264,-0.9245435336142778
1733851444478063900,10.75306396484375,-0.31914193750619885,-0.05024491711556911,-0.6768465376406908
1733851444488031700,10.76303173828125,-0.3507248242497444,-0.031417174787819385,-0.3468634726464748
1733851444498001000,10.7730009765625,-0.301830737221241,0.016529986779391763,-0.056033437389135354
1733851444507969000,10.782968994140624,-0.2696902165949345,-0.016531740345060823,0.11559972507953643
1733851444517938000,10.79293798828125,-0.40327158856689926,0.07503332141339779,0.1780675794303417
1733851444527906000,10.802906005859375,-0.48992111349403855,0.24308278017640111,0.2823825249075889
1733851444537875000,10.812875,-0.5466682521104812,0.3283881970182061,0.4328852210640907
1733851444547843800,10.82284375,-0.5865092641115188,0.45634939102083444,0.54402212151587
1733851444557812000,10.83281201171875,-0.6976034944653511,0.6791565681487322,0.5253296960055828
1733851444567780900,10.84278076171875,-0.7949503544956446,0.9313508755415677,0.5320259787738323
1733851444577749000,10.8527490234375,-0.7458218741893767,1.1444754475668073,0.3369949895828962
1733851444587718000,10.8627177734375,-0.5626829828441142,1.1618294640801847,0.1973702457934618
1733851444597687000,10.87268701171875,-0.4130442100405693,1.0074820751942695,-0.11782383086979388
1733851444607655200,10.8826552734375,-0.3480412842541933,0.8800732543773948,-0.5986117898374795
1733851444617624000,10.8926240234375,-0.2341740820556879,0.6248435248114168,-0.8545762634187937
1733851444627592000,10.902592041015625,-0.11320084724426269,0.38247371520996093,-1.052234678503871
1733851444637560800,10.912560791015625,-0.02300561253428459,0.41695736489631235,-1.2019038464456795
1733851444647529700,10.92252978515625,-0.0465115758061409,0.1749201482500881,-1.097740876659751
1733851444657497900,10.932497802734375,-0.13162906886041165,0.028953597685880957,-0.8749456822305918
1733851444667466800,10.942466796875,-0.08277005314528942,-0.17270924900127574,-0.5006657948702573
1733851444677435000,10.952434814453126,-0.07534896323382854,-0.250357958811149,-0.37576165035068987
1733851444687404000,10.962404052734374,-0.08293781092762946,0.027919505397789177,-0.5103758725017309
1733851444697373000,10.972373046875,-0.044265842705965036,0.48772309199310837,-1.050313355052471
1733851444707341000,10.982341064453125,-0.04976502464413642,0.7544231137961149,-1.5552970131218433
1733851444717310000,10.99231005859375,-0.13009060724675656,1.1779908367428928,-1.6869886258244513
1733851444727278000,11.002278076171875,-0.10632628529965876,1.616131274921447,-1.1597107183605433
1733851444737247000,11.0122470703125,-0.024312018957734105,1.795519435431063,-0.13290098849236964
1733851444747216000,11.0222158203125,-0.021623802787065504,1.9813903820887206,0.5517606068134308
1733851444757184000,11.03218408203125,-0.022063363248109816,2.013166891708225,0.5890957734733819
1733851444767153200,11.042153076171875,-0.010461772781610488,1.9972988759689032,0.05276128385066986
1733851444777120800,11.052120849609375,-0.10490122093260287,2.009952459706366,-0.4854471829503774
1733851444787090000,11.06208984375,-0.22997896845340726,1.9687237927392125,-0.8460136022567748
1733851444797058800,11.072058837890625,-0.31274376090168954,1.9955510093882678,-0.7786988923966884
1733851444807027000,11.08202685546875,-0.2606353880017996,1.8413865758538246,0.07954290779232978
1733851444816995800,11.091995849609376,-0.2199474037826061,1.7055808058306574,0.8376233750522136
1733851444826964000,11.1019638671875,-0.14515724347531794,1.6682471004754305,1.2233090380460023
1733851444836932900,11.111932861328125,-0.012536240968108176,1.6108473431691526,1.1569576202601193
1733851444846901000,11.12190087890625,0.09871230316460132,1.6191004999905825,0.7699801638901234
1733851444856870000,11.131869873046876,0.14500526778399944,1.7708727776914834,0.40782442956566806
1733851444866839000,11.141839111328125,0.21675942139625548,1.8772893716230987,0.3132534639894962
1733851444876807000,11.151806884765625,0.26235680496692654,1.732568473738432,0.4828431379318237
1733851444886776000,11.161776123046875,0.29876375086605544,1.3177736206382513,0.6716489689975976
1733851444896744000,11.171743896484376,0.2466618077069521,0.8458037588983773,0.7221861470580101
1733851444906713000,11.181713134765625,0.1386275494456291,0.1335562375307083,0.5504775812655687
1733851444916682000,11.191681884765625,0.0032540333598852157,-0.5588184163704514,0.18673077835738658
1733851444926650000,11.201650146484376,-0.035137948876619335,-0.9264014364406465,0.0560837062716484
1733851444936619000,11.211618896484374,-0.011080196940898894,-1.0920426650181412,0.1002425814718008
1733851444946587000,11.2215869140625,0.05250058708786964,-1.060776296877861,0.05399404051601887
1733851444956555800,11.2315556640625,0.13528583780229092,-0.9285478008195758,-0.057412909048795695
1733851444966525000,11.24152490234375,0.23175240786671636,-0.8502931792721152,-0.32029636823832985
1733851444976492800,11.251492919921875,0.26269641218483447,-0.7751156270824372,-0.7886305038243532
1733851444986462000,11.2614619140625,0.25959084738492966,-0.6247362650446593,-1.079034422624111
1733851444996429800,11.271429931640625,0.16935118901133536,-0.2877482897244394,-0.8207336150497198
1733851445006399700,11.281399658203124,0.12693594260811805,0.08943009555637836,-0.369524801787734
1733851445016369000,11.291368896484375,0.07122282321453094,0.3859066122680902,0.006738952866196632
1733851445026337000,11.3013369140625,0.04317863199114799,0.46128721274919804,0.19715923339128494
1733851445036306000,11.311305908203124,0.02908113305568695,0.29960341656059025,0.123334703245759
1733851445046273800,11.321273681640625,0.04458090000450611,0.1728233951665461,0.09725625913739204
1733851445056242700,11.33124267578125,-0.10742869358360767,-0.04021835741344839,0.15844634863734244
1733851445066210800,11.3412109375,-0.16187632308602332,-0.3767355368841439,0.12482172693312167
1733851445076179700,11.3511796875,-0.08723813847005367,-0.7081373826351016,-0.23409341803491115
1733851445086148900,11.36114892578125,0.05022738145887851,-0.8463838238086551,-0.760405695337057
1733851445096116700,11.37111669921875,0.0025607903987169265,-0.8211549822669476,-1.0525023895293473
1733851445106086000,11.3810859375,-0.17505962978601455,-0.6745833419490606,-0.900085384184122
1733851445116053800,11.3910537109375,-0.47796354919672007,-0.29005159823074933,-0.34808570791780946
1733851445126023000,11.40102294921875,-0.9027718467891216,0.13725202330872416,-0.0652338119328022
1733851445135991800,11.41099169921875,-1.3180693887144326,0.3032930648587644,-0.21497312250137326
1733851445145960000,11.4209599609375,-1.5238339533656835,0.5108436361439526,-0.27429624908566475
1733851445155928800,11.4309287109375,-1.5438737018316984,0.42275384928062554,-0.01142681842148304
1733851445165897000,11.44089697265625,-1.581405852368474,0.1696856816627085,0.2442436406493187
1733851445175865900,11.450865966796876,-1.6480121216982602,-0.02601063956916332,0.5189876335024833
1733851445185835000,11.4608349609375,-1.6040204197585581,-0.28481384370774027,0.7906926970511674
1733851445195802600,11.470802734375,-1.5136913295358418,-0.600595364870131,0.9389321244508028
1733851445205772000,11.48077197265625,-1.2979787868440151,-0.7856769147157668,1.0193196663737296
1733851445215739600,11.49073974609375,-1.084398580005765,-0.9056102850854396,1.1009808814942836
1733851445225708800,11.500708740234375,-1.008279801443219,-1.0494453400462864,0.9629945525616407
1733851445235677700,11.510677734375,-1.014537108272314,-1.1016466519266366,0.8042845845520495
1733851445245645800,11.520645751953126,-1.0713766013473272,-1.0370984841704367,0.34843875913918015
1733851445255614700,11.53061474609375,-1.0483692352473735,-0.8628624457269907,-0.2413327216386795
1733851445265582800,11.540582763671875,-0.9857622646868228,-0.7585647436454892,-0.7300660866528749
1733851445275551700,11.5505517578125,-0.9059446316063403,-0.7239893970876932,-1.204791969102621
1733851445285521000,11.56052099609375,-0.843044231057167,-0.7620800582900643,-1.5401953055799007
1733851445295488800,11.57048876953125,-0.8145978887736797,-0.9417539038732647,-1.6319576434761285
1733851445305458000,11.5804580078125,-0.7637924151659011,-1.2335244348511099,-1.6872089905768632
1733851445315425800,11.59042578125,-0.6290116042762994,-1.6209630789920686,-1.724287552127242
1733851445325395000,11.60039501953125,-0.5303039772868157,-1.7272709518522023,-1.486374283543229
1733851445335362800,11.61036279296875,-0.46144963676929474,-1.6088357110857963,-0.9112123428761959
1733851445345332000,11.62033203125,-0.25577216587960716,-0.6912517873510718,-0.1860153235644102
1733851445355300900,11.63030078125,-0.1424105751156807,-0.010032733714580536,0.12952946623265743
1733851445365268700,11.640268798828124,-0.059227264994382856,0.494746926215291,0.5030553203552961
1733851445375237600,11.650237548828125,0.01315174251794815,1.1265583903431893,0.9203308843553065
1733851445385205800,11.660205810546875,0.027454408636689184,1.6463801365822552,1.1821072590857744
1733851445395174700,11.670174560546876,0.1219102234005928,1.8403402816712855,1.404174139240384
1733851445405143800,11.680143798828125,0.10893149936199188,1.6573761623710392,1.4637036020517349
1733851445415111700,11.690111572265625,-0.16244330931901932,1.6120815611392258,1.2325398077279328
1733851445425080800,11.700080810546876,-0.2807031935185194,1.37570266251564,0.8650631706416606
1733851445435048700,11.710048583984374,-0.35116263114511964,1.2550099982112646,0.23270342498123645
1733851445445017900,11.720017822265625,-0.5435837300986052,1.2143939101845025,-0.38353871409296986
1733851445454986800,11.72998681640625,-0.7283657124757766,0.6576824029654265,-0.8040460996210574
1733851445464955000,11.739954833984376,-0.927366774341464,-0.16917349435687065,-0.9343179086536169
1733851445474923800,11.749923828125,-1.1633277398139237,-1.2209160054296255,-1.024472226831317
1733851445484892000,11.759891845703125,-1.199799567642808,-2.121513430789113,-1.3741180236726998
1733851445494860800,11.76986083984375,-1.1169111488148569,-2.8741648587375876,-1.3775596885591745
1733851445504828700,11.77982861328125,-0.9446852811500429,-3.372400796112418,-1.0782914953023195
1733851445514797600,11.789797607421875,-0.7013701535224914,-3.635267888689041,-0.9489040678888558
1733851445524767000,11.79976708984375,-0.6458715536624193,-3.7926398860931396,-0.9531178861916064
1733851445534734800,11.80973486328125,-0.7097182951509952,-3.7321255038976666,-1.0283142892122268
1733851445544703700,11.819703857421874,-0.7742278844624757,-3.5761049211025235,-1.0484025529950856
1733851445554671900,11.829671875,-0.7627323847189545,-3.3424335278719663,-0.7121867310911416
1733851445564640800,11.839640869140625,-0.8401353578731418,-3.35434374589622,0.011755319723486899
1733851445574609700,11.849609619140624,-0.6694838999181986,-3.303387465640902,0.3568453529566526
1733851445584577800,11.859577880859375,-0.6888692761287093,-2.501795188912749,0.020903671818971632
1733851445594546700,11.869546630859375,-0.9546081247493624,-1.6161755524545907,0.2671644975095987
1733851445604514800,11.879514892578126,-1.1085536548361181,-1.2627519906401634,0.7789698182925582
1733851445614483700,11.889483642578124,-1.1465081224381923,-1.148603048890829,0.8605038999021053
1733851445624452900,11.899452880859375,-0.9560387420743703,-1.1357283697485923,1.0492083164200185
1733851445634421000,11.9094208984375,-0.7512126273170113,-1.12389004791677,1.4866127684742212
1733851445644390000,11.919389892578126,-0.3526555000513792,-0.6908826617777347,1.807364187003672
1733851445654358000,11.92935791015625,-0.12507993947789073,-0.24652912123799323,1.7110077993154524
1733851445664327000,11.939326904296875,-0.06495309529528022,0.13089023319184778,1.0421592746913433
1733851445674294800,11.949294677734375,-0.08502601537853478,0.3278933992385864,0.5446662646383047
1733851445684263700,11.959263671875,0.07303776368200779,0.29924364333748815,0.41804245671927925
1733851445694232600,11.969232666015625,-0.08101414938867092,0.28877719438076016,0.21622926004230975
1733851445704200700,11.97920068359375,-0.3708393915176391,0.3434142089754343,0.2514341366752982
1733851445714169900,11.989169921875,-0.4783849894791841,0.4695061019748449,0.4468316210910678
1733851445724137700,11.9991376953125,-0.5609019446462392,0.35168051753938195,0.5347147794663906
1733851445734107000,12.00910693359375,-0.5937197800122201,0.0903039557814598,0.48993105036616325
1733851445744075800,12.01907568359375,-0.45143677679896355,-0.10384440535604954,0.4651815167739987
1733851445754044000,12.0290439453125,-0.39492110885083676,-0.08896656969785689,0.13518413099348545
1733851445764012800,12.0390126953125,-0.3573942190110683,-0.0323509485065937,-0.1429237853348255
1733851445773981000,12.04898095703125,-0.23634952639862894,0.014368132570385932,-0.11816168452203273
1733851445783949800,12.05894970703125,-0.2610303786687553,0.19077917696535587,0.05443155515044927
1733851445793919000,12.0689189453125,-0.2272888525865972,0.26778876688778397,0.18574352088570595
1733851445803886800,12.078886962890625,-0.13645385866835713,0.1640115815490484,0.0992623382627964
1733851445813856000,12.08885595703125,-0.07772036854028701,0.012241057413816451,-0.1368257607206702
1733851445823823600,12.09882373046875,0.005993833587318659,-0.056575873702764505,-0.4299997287556529
1733851445833793000,12.10879296875,0.15551394844725727,-0.13900398154258728,-0.5244724946543574
1733851445843762000,12.118761962890625,0.2143887467421591,-0.2687047126889229,-0.3922615342527628
1733851445853729800,12.128729736328125,0.27431787639558314,-0.3268132027864456,-0.26755554265379905
1733851445863698700,12.13869873046875,0.3891799348503351,-0.24725159029364585,-0.39506051732152697
1733851445873666800,12.148666748046875,0.4400073280289769,0.085907766649127,-0.8975713555365801
1733851445883635700,12.1586357421875,0.45424774256646633,0.3223568078994751,-1.2228446354046463
1733851445893603800,12.168603759765626,0.5323860442578793,0.32100363972485063,-1.19149643419981
1733851445903572700,12.17857275390625,0.6164934834867716,0.3334165465742349,-0.8924319468215107
1733851445913542000,12.1885419921875,0.6161380941778422,0.39167876592874523,-0.659371086704731
1733851445923509800,12.198509765625,0.5662725317686795,0.5219885688841343,-0.7002505018427968
1733851445933479000,12.20847900390625,0.6222478092297912,0.5837199256539345,-0.8083335676819086
1733851445943446800,12.21844677734375,0.6859165638029575,0.6558341447502374,-0.9841051451295614
1733851445953416000,12.228416015625,0.7750771947681904,0.8631307412743567,-1.0885562842071055
1733851445963384800,12.238384765625,0.8880141303792596,0.958152373227477,-1.027625722426176
1733851445973353000,12.24835302734375,1.0129206129863857,0.9327169031977653,-0.9194429956048726
1733851445983321900,12.25832177734375,1.0961544842511415,0.821540839779377,-0.8566834648311138
1733851445993289700,12.268289794921875,1.2225161341026425,0.7429255682259798,-0.5363660538047552
1733851446003258600,12.278258544921876,1.252137073123455,0.894479234740138,-0.27353227897584437
1733851446013226800,12.288226806640624,1.2555308072149753,1.2016443187266588,-0.44787996110022066
1733851446023195000,12.29819482421875,1.3620949929237365,1.4739672219127415,-1.0475316153794527
1733851446033163800,12.308163818359375,1.3058020278155802,1.4095225145310162,-1.6818734747678041
1733851446043131600,12.318131591796876,1.1159762060523033,0.7457780350476503,-1.7442407913535833
1733851446053100500,12.3281005859375,0.7615987045139074,0.5817167691379785,-1.2325158423304556
1733851446063068700,12.338068603515625,0.3494727783620357,1.115997248840332,-0.18671324270069597
1733851446073037600,12.34803759765625,-0.10727730241417884,1.6132015050798654,0.7473433846682309
1733851446083006700,12.3580068359375,-0.4006885863363743,2.294332588171959,1.0787129355847835
1733851446092974600,12.367974609375,-0.564326658397913,2.6871681229203936,1.0678460891336201
1733851446102943700,12.37794384765625,-0.5897346558988094,2.4473943211615086,1.2585545389503239
1733851446112911600,12.38791162109375,-0.5464046327382326,1.710038954283297,1.208022037065029
1733851446122880800,12.397880859375,-0.39388708962798114,1.321019178430736,1.1239297954052685
1733851446132849700,12.407849609375,-0.28059564149081706,0.8585597800970077,1.120394607016444
1733851446142817800,12.41781787109375,-0.13087562014460563,0.6080424660056829,1.0158774169653653
