time,seconds_elapsed,z,y,x
1733851433741893400,0.016893310546875,-0.05165969207882881,-0.6335853338241577,1.0284267663955688
1733851433751862300,0.0268623046875,0.03456840291619301,-0.6586624979972839,1.1289198398590088
1733851433761830100,0.036830078125,0.1800755262374878,-0.5726755261421204,1.1720781326293945
1733851433771799000,0.046799072265625,0.16027598083019257,-0.673786461353302,1.3114887475967407
1733851433781767200,0.05676708984375,-0.07338449358940125,-0.9473083019256592,1.6607272624969482
1733851433791736000,0.066736083984375,-0.3200347423553467,-1.3997581005096436,2.0112900733947754
1733851433801704200,0.0767041015625,-0.4601894021034241,-2.293299674987793,2.4715816974639893
1733851433811673000,0.086673095703125,-0.5531209111213684,-3.1748528480529785,3.1086699962615967
1733851433821641200,0.09664111328125,-0.569324791431427,-3.8851537704467773,3.7858316898345947
1733851433831610000,0.106610107421875,-0.8018009066581726,-4.167055606842041,4.280977249145508
1733851433841579300,0.116579345703125,-1.6375702619552612,-4.02868127822876,4.406570911407471
1733851433851547100,0.126547119140625,-2.560307264328003,-3.6786396503448486,4.354955196380615
1733851433861516300,0.136516357421875,-3.0363144874572754,-3.3587589263916016,4.259336948394775
1733851433871484200,0.146484130859375,-3.1202869415283203,-3.0261476039886475,4.012387752532959
1733851433881453300,0.156453369140625,-3.1446762084960938,-2.8302621841430664,3.4856834411621094
1733851433891422200,0.166422119140625,-3.1426823139190674,-2.597060203552246,3.0969276428222656
1733851433901390000,0.17639013671875,-2.9216902256011963,-2.517382860183716,2.909599781036377
1733851433911359000,0.18635888671875,-2.422250986099243,-3.041353940963745,2.8204777240753174
1733851433921327000,0.1963271484375,-1.9813345670700073,-3.576572895050049,2.8938372135162354
1733851433931296000,0.2062958984375,-1.7689539194107056,-3.7879221439361572,2.981614112854004
1733851433941264100,0.21626416015625,-1.7453677654266357,-3.3536834716796875,3.0056192874908447
1733851433951233000,0.22623291015625,-1.94101083278656,-2.01192307472229,2.8770909309387207
1733851433961202200,0.2362021484375,-2.2195022106170654,-0.7408697009086609,2.7730283737182617
1733851433971170300,0.24617041015625,-2.5208017826080322,-0.23207491636276245,2.401637077331543
1733851433981139200,0.25613916015625,-2.7246921062469482,-0.2012682408094406,1.9286421537399292
1733851433991107300,0.266107421875,-2.7535300254821777,-0.4285251200199127,1.4564669132232666
1733851434001075700,0.27607568359375,-2.662609338760376,-0.6944164633750916,1.0587631464004517
1733851434011043800,0.2860439453125,-2.7397620677948,-0.7774633765220642,0.8496575951576233
1733851434021012700,0.2960126953125,-2.8389906883239746,-0.8632866144180298,0.8810850381851196
1733851434030982000,0.30598193359375,-2.911292552947998,-0.7190961241722107,1.080880880355835
1733851434040949800,0.31594970703125,-3.0794405937194824,-0.2164796143770218,1.4445551633834839
1733851434050919000,0.3259189453125,-3.254523992538452,-0.3729693591594696,1.8423123359680176
1733851434060886800,0.33588671875,-3.5105879306793213,-0.6529965996742249,2.197690963745117
1733851434070856000,0.34585595703125,-3.7127909660339355,-0.7065274715423584,2.6169025897979736
1733851434080823600,0.355823486328125,-3.894434928894043,-0.5228652358055115,3.0421738624572754
1733851434090792700,0.365792724609375,-3.8984851837158203,-0.3756619691848755,3.2507543563842773
1733851434100761600,0.37576171875,-3.6766769886016846,-0.3897000849246979,3.140260934829712
1733851434110729700,0.385729736328125,-3.422159433364868,-0.433176189661026,2.984602928161621
1733851434120698600,0.39569873046875,-3.3273913860321045,-0.4338235557079315,2.9608049392700195
1733851434130666800,0.405666748046875,-3.431654930114746,-0.5458957552909851,3.0400030612945557
1733851434140635600,0.4156357421875,-3.7010951042175293,-0.9530448317527771,3.1923890113830566
1733851434150603800,0.425603759765625,-4.0593037605285645,-1.3871371746063232,3.399860143661499
1733851434160572700,0.43557275390625,-4.35601282119751,-1.5695446729660034,3.6168882846832275
1733851434170541800,0.445541748046875,-4.286643981933594,-1.5682090520858765,3.8140060901641846
1733851434180509700,0.455509765625,-3.799232006072998,-1.4499614238739014,3.8439712524414062
1733851434190478800,0.465478759765625,-3.1854472160339355,-1.1547210216522217,3.7980434894561768
1733851434200446700,0.47544677734375,-2.5579731464385986,-0.6973608732223511,3.7122511863708496
1733851434210415900,0.485415771484375,-2.041147232055664,-0.3394400477409363,3.5721583366394043
1733851434220384000,0.495384033203125,-1.766944408416748,-0.06275826692581177,3.4337098598480225
1733851434230353000,0.505352783203125,-1.7586923837661743,0.20367901027202606,3.328596353530884
1733851434240321800,0.51532177734375,-1.882917881011963,0.36352211236953735,3.2449982166290283
1733851434250289700,0.52528955078125,-2.0202479362487793,0.45030972361564636,3.1494500637054443
1733851434260258600,0.535258544921875,-2.0946099758148193,0.5274816155433655,3.0283873081207275
1733851434270226700,0.545226806640625,-2.0582573413848877,0.6121448278427124,2.8659441471099854
1733851434280195800,0.55519580078125,-1.916167974472046,0.7215355634689331,2.6769442558288574
1733851434290163700,0.565163818359375,-1.7215938568115234,0.7476949691772461,2.5148775577545166
1733851434300132900,0.5751328125,-1.5412390232086182,0.7071279883384705,2.3889923095703125
1733851434310101800,0.585101806640625,-1.424532175064087,0.7007776498794556,2.3209424018859863
1733851434320070000,0.59506982421875,-1.3567206859588623,0.7316611409187317,2.261960744857788
1733851434330038800,0.605038818359375,-1.309738278388977,0.8184844255447388,2.125103712081909
1733851434340007000,0.6150068359375,-1.270145297050476,1.0408482551574707,1.915435791015625
1733851434349975800,0.624975830078125,-1.212464690208435,1.3228561878204346,1.6123603582382202
1733851434359944000,0.63494384765625,-1.1224758625030518,1.468635082244873,1.161826252937317
1733851434369912800,0.644912841796875,-1.0256675481796265,1.418354868888855,0.4394504725933075
1733851434379882000,0.654882080078125,-0.9024046063423157,0.9915751218795776,-0.7131266593933105
1733851434389849600,0.664849609375,-0.8399385213851929,0.615799605846405,-1.1344683170318604
1733851434399818800,0.67481884765625,-0.9035332202911377,0.17333394289016724,-0.6755152344703674
1733851434409786600,0.68478662109375,-1.051807165145874,-0.5991119146347046,-0.26826971769332886
1733851434419755800,0.694755859375,-1.0662823915481567,-1.0983214378356934,0.13247300684452057
1733851434429723600,0.7047236328125,-0.9581236839294434,-1.2148339748382568,0.4759334325790405
1733851434439692800,0.71469287109375,-0.869152843952179,-1.0141383409500122,0.561846911907196
1733851434449661700,0.72466162109375,-0.7659731507301331,-1.000097393989563,0.39889606833457947
1733851434459629800,0.7346298828125,-0.7077286243438721,-0.7405950427055359,0.10500150173902512
1733851434469598700,0.7445986328125,-0.9170219302177429,-0.4200580418109894,0.1864529401063919
1733851434479566800,0.75456689453125,-0.8335674405097961,-2.2021191120147705,0.43927842378616333
1733851434489535700,0.76453564453125,-0.6548184752464294,-2.5598268508911133,0.316620409488678
1733851434499503900,0.77450390625,-0.580967903137207,-2.0239806175231934,-0.16685011982917786
1733851434509472800,0.78447265625,-0.2855575382709503,-1.621213674545288,-0.46354010701179504
1733851434519442000,0.79444189453125,-0.11631244421005249,-1.013915777206421,-0.6267982721328735
1733851434529409500,0.804409423828125,0.027947798371315002,-0.34940090775489807,-0.6966292858123779
1733851434539379000,0.81437890625,0.1035337746143341,-0.1290990114212036,-0.8747772574424744
1733851434549346600,0.8243466796875,0.0879761204123497,-0.2541826367378235,-0.8893074989318848
1733851434559315700,0.834315673828125,0.06569864600896835,-0.5193583965301514,-0.7495440244674683
1733851434569283800,0.844283935546875,0.037922944873571396,-0.6887471675872803,-0.5500370860099792
1733851434579252700,0.854252685546875,0.002574376994743943,-0.8603810667991638,-0.35035374760627747
1733851434589221600,0.8642216796875,-0.022118983790278435,-0.9958630204200745,-0.15763995051383972
1733851434599189800,0.874189697265625,-0.021625513210892677,-1.0744715929031372,-0.11518613249063492
1733851434609158700,0.88415869140625,0.011429908685386181,-0.923916757106781,-0.09578100591897964
1733851434619126800,0.894126708984375,0.034517280757427216,-0.7639320492744446,-0.1053076833486557
1733851434629095700,0.904095703125,0.04163910821080208,-0.6181202530860901,-0.05791487172245979
1733851434639063800,0.914063720703125,0.04475859925150871,-0.5597349405288696,0.054543524980545044
1733851434649032700,0.92403271484375,0.03559119999408722,-0.5513361096382141,0.18264423310756683
1733851434659001900,0.934001953125,0.020770324394106865,-0.4851679503917694,0.2505384683609009
1733851434668970000,0.943969970703125,0.016446681693196297,-0.3743317127227783,0.2541920840740204
1733851434678939000,0.95393896484375,0.02431219257414341,-0.22578532993793488,0.20717531442642212
1733851434688906800,0.96390673828125,0.008318310603499413,-0.08550678938627243,0.15096797049045563
1733851434698875600,0.973875732421875,-0.026149645447731018,0.011945387348532677,0.12676189839839935
1733851434708844500,0.983844482421875,-0.045500706881284714,0.06682620942592621,0.1242942214012146
1733851434718812700,0.993812744140625,-0.05456385761499405,0.11288551986217499,0.13226811587810516
1733851434728781800,1.00378173828125,-0.0617341510951519,0.16467973589897156,0.15206286311149597
1733851434738749700,1.013749755859375,-0.05658663064241409,0.21910712122917175,0.180738165974617
1733851434748718800,1.02371875,-0.05710301548242569,0.2962453067302704,0.21523195505142212
1733851434758686700,1.033686767578125,-0.06261911988258362,0.385331928730011,0.23702941834926605
1733851434768656000,1.04365576171875,-0.06033865734934807,0.4504970908164978,0.2485302835702896
1733851434778624800,1.053624755859375,-0.05996112525463104,0.507579505443573,0.24367935955524445
1733851434788593000,1.063593017578125,-0.05302119627594948,0.5582962036132812,0.21990318596363068
1733851434798561800,1.073561767578125,-0.04480430483818054,0.5995992422103882,0.1811874955892563
1733851434808530000,1.083530029296875,-0.03476365655660629,0.621202290058136,0.14394158124923706
1733851434818498800,1.093498779296875,-0.026796560734510422,0.6144463419914246,0.1231624186038971
1733851434828466700,1.103466796875,-0.01252574659883976,0.6049601435661316,0.09056239575147629
1733851434838435600,1.113435546875,0.017021119594573975,0.6010079383850098,0.0353790707886219
1733851434848404700,1.12340478515625,0.05869905650615692,0.6073412299156189,-0.017683081328868866
1733851434858372600,1.13337255859375,0.1037306934595108,0.6037440299987793,-0.055438823997974396
1733851434868341800,1.143341796875,0.12168332934379578,0.5754743218421936,-0.06578387320041656
1733851434878309600,1.1533095703125,0.1206255704164505,0.5310879349708557,-0.07838205993175507
1733851434888278800,1.16327880859375,0.12328899651765823,0.4968210756778717,-0.09732671827077866
1733851434898246700,1.17324658203125,0.1416994035243988,0.5047112107276917,-0.1132466197013855
1733851434908215800,1.1832158203125,0.1711033582687378,0.5569973587989807,-0.1365000158548355
1733851434918184700,1.193184814453125,0.1934930831193924,0.6440341472625732,-0.1400080919265747
1733851434928152800,1.20315283203125,0.21478399634361267,0.7407020926475525,-0.13656622171401978
1733851434938121700,1.213121826171875,0.2323700338602066,0.8592543601989746,-0.1435263752937317
1733851434948089900,1.22308984375,0.23572242259979248,0.9797586798667908,-0.15229962766170502
1733851434958058800,1.233058837890625,0.2253122180700302,1.0986573696136475,-0.16647741198539734
1733851434968027000,1.24302685546875,0.22121281921863556,1.2154793739318848,-0.19063948094844818
1733851434977995800,1.252995849609375,0.22275616228580475,1.3220356702804565,-0.20975659787654877
1733851434987965000,1.26296484375,0.23646612465381622,1.3935940265655518,-0.20437221229076385
1733851434997932800,1.272932861328125,0.2481948286294937,1.4193452596664429,-0.17479878664016724
1733851435007902000,1.28290185546875,0.24274121224880219,1.4079655408859253,-0.12575668096542358
1733851435017869800,1.292869873046875,0.2286088764667511,1.362808346748352,-0.06505237519741058
1733851435027839000,1.3028388671875,0.21876557171344757,1.3106236457824707,0.0025165497791022062
1733851435037807000,1.31280712890625,0.20878955721855164,1.2568256855010986,0.08286475390195847
1733851435047776000,1.32277587890625,0.19425135850906372,1.182320475578308,0.1735246181488037
1733851435057745000,1.332744873046875,0.17599187791347504,1.1005698442459106,0.27175623178482056
1733851435067712800,1.342712646484375,0.1731249839067459,1.0413259267807007,0.3763923645019531
1733851435077681700,1.352681640625,0.1775311529636383,0.9931980967521667,0.5254451036453247
1733851435087649800,1.36264990234375,0.2107170671224594,0.9258632659912109,0.729337751865387
1733851435097619000,1.372618896484375,0.264511376619339,0.8670046925544739,0.9716933369636536
1733851435107586800,1.3825869140625,0.319278746843338,0.8023857474327087,1.22719407081604
1733851435117556000,1.392555908203125,0.3693613111972809,0.7576029896736145,1.471991777420044
1733851435127524900,1.40252490234375,0.40544500946998596,0.7073273062705994,1.7167853116989136
1733851435137493000,1.412492919921875,0.4222472012042999,0.6272145509719849,1.9360294342041016
1733851435147462000,1.4224619140625,0.4086166322231293,0.5733454823493958,2.092963695526123
1733851435157430000,1.432429931640625,0.3754279911518097,0.5466963648796082,2.195756673812866
1733851435167399000,1.44239892578125,0.3214832842350006,0.508458137512207,2.309443712234497
1733851435177367000,1.452366943359375,0.25430557131767273,0.44996386766433716,2.471170663833618
1733851435187336000,1.4623359375,0.18567538261413574,0.3508481979370117,2.6642253398895264
1733851435197305000,1.47230517578125,0.1372062861919403,0.26142439246177673,2.899170398712158
1733851435207273000,1.48227294921875,0.13342618942260742,0.20898595452308655,3.1484909057617188
1733851435217242000,1.4922421875,0.17988793551921844,0.17340439558029175,3.364462375640869
1733851435227209700,1.502209716796875,0.24697668850421906,0.13255736231803894,3.5692343711853027
1733851435237179000,1.512178955078125,0.3029731214046478,0.07509087771177292,3.7400100231170654
1733851435247147800,1.522147705078125,0.3356309235095978,-0.006274550221860409,3.866975784301758
1733851435257116000,1.532115966796875,0.33669212460517883,-0.0819166824221611,3.9315359592437744
1733851435267084800,1.542084716796875,0.30781200528144836,-0.09531132131814957,3.9436452388763428
1733851435277053000,1.552052978515625,0.25159525871276855,-0.10135215520858765,3.931053400039673
1733851435287021800,1.562021728515625,0.14662249386310577,-0.08511752635240555,3.908914566040039
1733851435296990000,1.571989990234375,0.016276583075523376,-0.05517399311065674,3.891404390335083
1733851435306958800,1.581958740234375,-0.07063035666942596,-0.019347822293639183,3.9106030464172363
1733851435316928000,1.591927978515625,-0.06460225582122803,0.07380827516317368,3.935504674911499
1733851435326895900,1.601895751953125,0.0035962434485554695,0.17493169009685516,3.9395132064819336
1733851435336865000,1.611864990234375,0.103873610496521,0.21909095346927643,3.936514377593994
1733851435346833000,1.6218330078125,0.21404005587100983,0.21276594698429108,3.9255177974700928
1733851435356802000,1.631802001953125,0.31520605087280273,0.18743041157722473,3.8609814643859863
1733851435366769700,1.641769775390625,0.41810205578804016,0.21765382587909698,3.7165369987487793
1733851435376738800,1.65173876953125,0.4915999472141266,0.2867964506149292,3.5184195041656494
1733851435386707700,1.661707763671875,0.5111044645309448,0.3280986249446869,3.331403970718384
1733851435396675800,1.67167578125,0.4552089273929596,0.3154486119747162,3.2060585021972656
1733851435406644700,1.681644775390625,0.32502907514572144,0.24785755574703217,3.1275651454925537
1733851435416612900,1.69161279296875,0.20203375816345215,0.18373239040374756,3.0629262924194336
1733851435426581800,1.701581787109375,0.13096410036087036,0.16256318986415863,2.908688545227051
1733851435436550000,1.7115498046875,0.11468067020177841,0.1727273017168045,2.6919586658477783
1733851435446518800,1.721518798828125,0.14486786723136902,0.15244066715240479,2.4781129360198975
1733851435456488000,1.731488037109375,0.23547501862049103,0.14437301456928253,2.2593607902526855
1733851435466456000,1.7414560546875,0.35649335384368896,0.15472471714019775,2.013955593109131
1733851435476425000,1.751425048828125,0.45483946800231934,0.17200788855552673,1.7441825866699219
1733851435486393000,1.76139306640625,0.4801104664802551,0.14898911118507385,1.4678428173065186
1733851435496362000,1.771362060546875,0.45441773533821106,0.1318775713443756,1.1755743026733398
1733851435506329900,1.781329833984375,0.40810030698776245,0.16550050675868988,0.848663866519928
1733851435516298800,1.791298828125,0.35226303339004517,0.24767544865608215,0.49126818776130676
1733851435526268000,1.801267822265625,0.2790657579898834,0.3317652940750122,0.13620464503765106
1733851435536235800,1.81123583984375,0.1748914271593094,0.35956230759620667,-0.18422609567642212
1733851435546205000,1.821204833984375,0.08055480569601059,0.3734602928161621,-0.500512421131134
1733851435556172800,1.8311728515625,0.026905259117484093,0.3918168246746063,-0.808501124382019
1733851435566142000,1.841141845703125,-0.010255957022309303,0.369718462228775,-1.0850096940994263
1733851435576109800,1.85110986328125,-0.022497255355119705,0.3340526223182678,-1.3367668390274048
1733851435586079000,1.861078857421875,-0.006760104093700647,0.31460729241371155,-1.5750139951705933
1733851435596048000,1.8710478515625,0.009854818694293499,0.3487160801887512,-1.8201842308044434
1733851435606016000,1.88101611328125,0.0016288475599139929,0.3696887493133545,-2.0517466068267822
1733851435615985000,1.89098486328125,-0.06561333686113358,0.3047885000705719,-2.206860303878784
1733851435625953000,1.900953125,-0.15158230066299438,0.24424287676811218,-2.3450205326080322
1733851435635922000,1.910921875,-0.20137064158916473,0.2330712527036667,-2.4837794303894043
1733851435645890000,1.92089013671875,-0.23235279321670532,0.22940142452716827,-2.6241836547851562
1733851435655859000,1.93085888671875,-0.2352457046508789,0.17341871559619904,-2.750089645385742
1733851435665828000,1.940828125,-0.20167550444602966,0.12686346471309662,-2.882261276245117
1733851435675795700,1.950795654296875,-0.16595913469791412,0.06983234733343124,-3.028958797454834
1733851435685764900,1.960764892578125,-0.1323457807302475,0.018196318298578262,-3.1975271701812744
1733851435695732700,1.970732666015625,-0.10612791031599045,-0.050898585468530655,-3.3130478858947754
1733851435705702000,1.980701904296875,-0.055128104984760284,-0.0864962562918663,-3.3738608360290527
1733851435715669800,1.990669677734375,0.007154119201004505,-0.0662999227643013,-3.4055323600769043
1733851435725639000,2.000638916015625,0.04615531116724014,-0.04252854734659195,-3.3955562114715576
1733851435735607800,2.01060791015625,0.04202989116311073,-0.11542889475822449,-3.320065498352051
1733851435745576000,2.020575927734375,-0.014950837939977646,-0.2818088233470917,-3.197838306427002
1733851435755544800,2.030544921875,-0.09281085431575775,-0.42104002833366394,-3.1436524391174316
1733851435765513000,2.040512939453125,-0.12591607868671417,-0.47868654131889343,-3.1973395347595215
1733851435775481900,2.05048193359375,-0.12561169266700745,-0.47011199593544006,-3.3070132732391357
1733851435785451000,2.060450927734375,-0.09830763190984726,-0.4252324104309082,-3.4012553691864014
1733851435795419000,2.0704189453125,-0.05472429841756821,-0.38905343413352966,-3.432823419570923
1733851435805388000,2.080387939453125,-0.008186623454093933,-0.41084420680999756,-3.367363691329956
1733851435815356000,2.09035595703125,0.04452819004654884,-0.45127731561660767,-3.2913966178894043
1733851435825324800,2.10032470703125,0.1431082934141159,-0.4776631295681,-3.242189645767212
1733851435835293000,2.11029296875,0.24302467703819275,-0.48455268144607544,-3.191570997238159
1733851435845261800,2.12026171875,0.2972796559333801,-0.49862271547317505,-3.1041805744171143
1733851435855230700,2.130230712890625,0.2839215099811554,-0.558236837387085,-3.000152349472046
1733851435865198800,2.14019873046875,0.19407686591148376,-0.6323429942131042,-2.9118010997772217
1733851435875167700,2.150167724609375,0.09297818690538406,-0.6734341979026794,-2.883312463760376
1733851435885136000,2.160135986328125,0.016905255615711212,-0.5915574431419373,-2.928910970687866
1733851435895104800,2.170104736328125,-0.023210449144244194,-0.4387061595916748,-3.0137100219726562
1733851435905073000,2.180072998046875,-0.036703355610370636,-0.2990172505378723,-3.076697826385498
1733851435915042000,2.1900419921875,-0.043626684695482254,-0.19052480161190033,-3.1106157302856445
1733851435925011000,2.200010986328125,-0.02513502724468708,-0.1161126047372818,-3.1101949214935303
1733851435934979000,2.20997900390625,0.00005545752355828881,-0.15038836002349854,-3.0580475330352783
1733851435944948000,2.219947998046875,0.00351383863016963,-0.2967061698436737,-2.945394992828369
1733851435954916000,2.229916015625,-0.026391642168164253,-0.4955032765865326,-2.7697432041168213
1733851435964885000,2.239885009765625,-0.05995199829339981,-0.6795458197593689,-2.5583786964416504
1733851435974852900,2.249852783203125,-0.08652371913194656,-0.7396084070205688,-2.3366775512695312
1733851435984821800,2.25982177734375,-0.09786852449178696,-0.6791741251945496,-2.1311914920806885
1733851435994791000,2.269791015625,-0.12322364002466202,-0.5783359408378601,-1.9446662664413452
1733851436004758800,2.2797587890625,-0.15910227596759796,-0.4736286997795105,-1.767974615097046
1733851436014728000,2.28972802734375,-0.217359721660614,-0.4006100296974182,-1.6145209074020386
1733851436024695800,2.29969580078125,-0.2531864047050476,-0.34921154379844666,-1.4684747457504272
1733851436034665000,2.3096650390625,-0.25873780250549316,-0.30247339606285095,-1.3235297203063965
1733851436044632600,2.319632568359375,-0.2073952555656433,-0.2708582282066345,-1.2017327547073364
1733851436054601700,2.329601806640625,-0.12470048666000366,-0.20981235802173615,-1.0881694555282593
1733851436064570600,2.339570556640625,-0.029745211824774742,-0.1384313851594925,-0.9649404883384705
1733851436074538800,2.349538818359375,0.05651659518480301,-0.08276049792766571,-0.8438888788223267
1733851436084507600,2.359507568359375,0.11007969081401825,-0.04598570615053177,-0.7492268085479736
1733851436094475800,2.369475830078125,0.12183022499084473,-0.004604028537869453,-0.6906285285949707
1733851436104444700,2.379444580078125,0.08048465102910995,-0.006134014576673508,-0.660640299320221
1733851436114412800,2.389412841796875,-0.0050795478746294975,-0.04847992584109306,-0.6395256519317627
1733851436124381700,2.399381591796875,-0.11305422335863113,-0.12796249985694885,-0.6276777386665344
1733851436134350800,2.409350830078125,-0.21230284869670868,-0.22879533469676971,-0.6320149302482605
1733851436144318700,2.419318603515625,-0.29961246252059937,-0.3224555253982544,-0.6756744980812073
1733851436154287900,2.429287841796875,-0.3534766733646393,-0.41932475566864014,-0.7664320468902588
1733851436164255700,2.439255859375,-0.35646766424179077,-0.4725264608860016,-0.8901012539863586
1733851436174225000,2.449224853515625,-0.31956303119659424,-0.4955567717552185,-1.020774483680725
1733851436184193800,2.45919384765625,-0.24712613224983215,-0.5115751624107361,-1.1587965488433838
1733851436194161700,2.46916162109375,-0.17381182312965393,-0.5134418606758118,-1.3150238990783691
1733851436204130600,2.479130615234375,-0.11775759607553482,-0.5347692370414734,-1.5008583068847656
1733851436214098700,2.4890986328125,-0.0751984640955925,-0.5621497631072998,-1.7412772178649902
1733851436224067600,2.499067626953125,-0.05502554774284363,-0.5756000280380249,-2.0231919288635254
1733851436234035700,2.50903564453125,-0.05858803540468216,-0.6018300652503967,-2.284163236618042
1733851436244004600,2.519004638671875,-0.06523448973894119,-0.6348876357078552,-2.5000014305114746
1733851436253973800,2.528973876953125,-0.07954474538564682,-0.6433015465736389,-2.702580690383911
1733851436263942000,2.53894189453125,-0.0855829268693924,-0.6355762481689453,-2.879157304763794
1733851436273910800,2.548910888671875,-0.08861544728279114,-0.6399965882301331,-3.020740032196045
1733851436283879000,2.55887890625,-0.09240086376667023,-0.6540892124176025,-3.0979769229888916
1733851436293847800,2.568847900390625,-0.09966211020946503,-0.6682542562484741,-3.1389081478118896
1733851436303816000,2.57881591796875,-0.11095523834228516,-0.6811698079109192,-3.192138195037842
1733851436313784800,2.588784912109375,-0.11693619191646576,-0.6911347508430481,-3.2714650630950928
1733851436323753700,2.598753662109375,-0.11433694511651993,-0.7254514694213867,-3.3656864166259766
1733851436333721900,2.608721923828125,-0.10739768296480179,-0.7689249515533447,-3.4499175548553467
1733851436343690800,2.618690673828125,-0.08645831048488617,-0.8284138441085815,-3.518089532852173
1733851436353658600,2.62865869140625,-0.03735615313053131,-0.8573945164680481,-3.5849177837371826
1733851436363627800,2.638627685546875,0.04091974347829819,-0.8799735903739929,-3.636258602142334
1733851436373595600,2.648595703125,0.08930673450231552,-0.900661289691925,-3.670572280883789
1733851436383564800,2.658564697265625,0.11215079575777054,-0.9080123901367188,-3.685112714767456
1733851436393533700,2.66853369140625,0.09295805543661118,-0.9458736777305603,-3.6775331497192383
1733851436403501800,2.678501708984375,0.03087577223777771,-0.9806265830993652,-3.687843084335327
1733851436413470700,2.688470703125,-0.04262495040893555,-0.9863958954811096,-3.726213216781616
1733851436423438800,2.69843896484375,-0.11557452380657196,-0.9459909796714783,-3.761359930038452
1733851436433407700,2.70840771484375,-0.20445096492767334,-0.8983175158500671,-3.7568154335021973
1733851436443377000,2.718376953125,-0.3147444427013397,-0.8592391014099121,-3.68630313873291
1733851436453344800,2.7283447265625,-0.4620625972747803,-0.8744272589683533,-3.548248052597046
1733851436463314000,2.73831396484375,-0.6134787201881409,-0.8914387226104736,-3.381510019302368
1733851436473281800,2.74828173828125,-0.7560312151908875,-0.8997425436973572,-3.256027936935425
1733851436483251000,2.7582509765625,-0.872099757194519,-0.9002101421356201,-3.1584348678588867
1733851436493218600,2.768218505859375,-0.916685938835144,-0.8734665513038635,-3.093344211578369
1733851436503187700,2.778187744140625,-0.8630027174949646,-0.7851092219352722,-3.066305637359619
1733851436513156600,2.788156494140625,-0.7610598802566528,-0.6893540620803833,-3.0479660034179688
1733851436523124700,2.798124755859375,-0.6356455087661743,-0.5570162534713745,-2.9490957260131836
1733851436533093600,2.80809375,-0.5267324447631836,-0.4522572457790375,-2.744739294052124
1733851436543061800,2.818061767578125,-0.44850823283195496,-0.37051817774772644,-2.452181816101074
1733851436553030700,2.82803076171875,-0.39108291268348694,-0.3150109052658081,-2.121865749359131
1733851436562998800,2.837998779296875,-0.3363986313343048,-0.27672532200813293,-1.7881098985671997
1733851436572967700,2.8479677734375,-0.2554936707019806,-0.21230286359786987,-1.5005401372909546
1733851436582936800,2.857936767578125,-0.17442171275615692,-0.10748511552810669,-1.26885187625885
1733851436592904700,2.86790478515625,-0.14059820771217346,-0.02364608272910118,-1.0480170249938965
1733851436602873900,2.877873779296875,-0.16452831029891968,0.052883047610521317,-0.8283341526985168
1733851436612841700,2.887841796875,-0.21292918920516968,0.146795853972435,-0.6033057570457458
1733851436622811000,2.897810791015625,-0.27838435769081116,0.2632780075073242,-0.37917572259902954
1733851436632779800,2.90777978515625,-0.3252992630004883,0.399339497089386,-0.1598528027534485
1733851436642748000,2.917747802734375,-0.34205639362335205,0.5437674522399902,0.08327675610780716
1733851436652716800,2.927716796875,-0.33097782731056213,0.6746616363525391,0.3806006908416748
1733851436662684700,2.9376845703125,-0.29707100987434387,0.788085401058197,0.681026041507721
1733851436672653600,2.947653564453125,-0.2565355896949768,0.8874949812889099,0.9354950785636902
1733851436682621700,2.95762158203125,-0.22941716015338898,0.9684126973152161,1.1370010375976562
1733851436692590600,2.967590576171875,-0.2193688303232193,1.0001451969146729,1.2819886207580566
1733851436702559700,2.977559814453125,-0.24800553917884827,1.0147712230682373,1.3889611959457397
1733851436712528000,2.98752783203125,-0.28461068868637085,1.0506855249404907,1.473296046257019
1733851436722496800,2.997496826171875,-0.3269978165626526,1.099982500076294,1.5624126195907593
1733851436732465000,3.00746484375,-0.364766925573349,1.1520358324050903,1.6741440296173096
1733851436742433800,3.017433837890625,-0.39292213320732117,1.2298312187194824,1.790084719657898
1733851436752402000,3.02740185546875,-0.38726863265037537,1.307214617729187,1.9338237047195435
1733851436762370800,3.037370849609375,-0.34474194049835205,1.3577301502227783,2.12772274017334
1733851436772339700,3.047339599609375,-0.26802173256874084,1.3983139991760254,2.3428380489349365
1733851436782307800,3.057307861328125,-0.17057321965694427,1.3959214687347412,2.560624122619629
1733851436792276700,3.06727685546875,-0.08616016805171967,1.3359787464141846,2.798119068145752
1733851436802244600,3.07724462890625,0.0024543816689401865,1.2426823377609253,3.0174081325531006
1733851436812213800,3.0872138671875,0.0795903429389,1.183513879776001,3.227736234664917
1733851436822182700,3.0971826171875,0.09532909095287323,1.1292282342910767,3.4162464141845703
1733851436832150800,3.10715087890625,0.06773526966571808,1.0686964988708496,3.5620100498199463
1733851436842119700,3.11711962890625,0.02731328085064888,1.038480281829834,3.6675527095794678
1733851436852087800,3.127087890625,-0.0201296154409647,1.0023775100708008,3.7307870388031006
1733851436862056700,3.137056640625,-0.04364532604813576,0.9864288568496704,3.790513515472412
1733851436872024800,3.14702490234375,-0.034471116960048676,0.9543401598930359,3.869187831878662
1733851436881993700,3.15699365234375,-0.02552422694861889,0.9071177840232849,3.9749324321746826
1733851436891963000,3.166962890625,-0.03281543031334877,0.8420815467834473,4.090484142303467
1733851436901930800,3.1769306640625,-0.05339926853775978,0.7924913167953491,4.187254428863525
1733851436911900000,3.18689990234375,-0.0810370221734047,0.777520477771759,4.2567057609558105
1733851436921867800,3.19686767578125,-0.11252890527248383,0.7726812362670898,4.302755355834961
1733851436931837000,3.2068369140625,-0.14505015313625336,0.7623845338821411,4.334722995758057
1733851436941804500,3.216804443359375,-0.17613829672336578,0.7458969354629517,4.362490177154541
1733851436951774000,3.22677392578125,-0.18490742146968842,0.731502890586853,4.380630016326904
1733851436961742800,3.236742919921875,-0.1355997920036316,0.7458195090293884,4.402493476867676
1733851436971710700,3.246710693359375,-0.022690560668706894,0.7294667959213257,4.405425548553467
1733851436981679600,3.2566796875,0.11452987790107727,0.6348680853843689,4.3722333908081055
1733851436991647700,3.266647705078125,0.2565011978149414,0.48725301027297974,4.306378364562988
1733851437001616600,3.27661669921875,0.3480614721775055,0.3312799334526062,4.20730447769165
1733851437011585800,3.286585693359375,0.3625202476978302,0.18904583156108856,4.034833908081055
1733851437021553700,3.2965537109375,0.28205472230911255,0.0812930092215538,3.7668497562408447
1733851437031522800,3.306522705078125,0.14257702231407166,0.06383542716503143,3.463526725769043
1733851437041490700,3.31649072265625,0.007551026064902544,0.11515533924102783,3.2025644779205322
1733851437051459800,3.3264599609375,-0.07681821286678314,0.15954850614070892,3.015965461730957
1733851437061427700,3.336427734375,-0.14244355261325836,0.15895488858222961,2.815053939819336
1733851437071396900,3.34639697265625,-0.19978117942810059,0.1492968052625656,2.54589581489563
1733851437081365800,3.35636572265625,-0.2660145163536072,0.13226616382598877,2.2711329460144043
1733851437091334000,3.366333984375,-0.34120744466781616,0.14132049679756165,2.043321132659912
1733851437101302800,3.376302734375,-0.3977074921131134,0.1940164715051651,1.8682430982589722
1733851437111271000,3.38627099609375,-0.4297482967376709,0.28381800651550293,1.7342652082443237
1733851437121239800,3.39623974609375,-0.4293224513530731,0.4034506678581238,1.6180895566940308
1733851437131209000,3.406208984375,-0.42614874243736267,0.5520383715629578,1.5021523237228394
1733851437141176600,3.416176513671875,-0.42833441495895386,0.7168068289756775,1.3741576671600342
1733851437151145700,3.426145751953125,-0.4289630651473999,0.830410361289978,1.2362252473831177
1733851437161113900,3.43611376953125,-0.4231880009174347,0.8956111669540405,1.1142128705978394
1733851437171082800,3.446082763671875,-0.39498263597488403,0.9041025042533875,1.0310560464859009
1733851437181051000,3.45605078125,-0.3531811237335205,0.8529149889945984,0.9852951765060425
1733851437191019800,3.466019775390625,-0.30622580647468567,0.7575487494468689,0.9556217789649963
1733851437200988700,3.47598876953125,-0.2682954668998718,0.6550530195236206,0.9472874402999878
1733851437210956800,3.485956787109375,-0.23938089609146118,0.5482400059700012,0.9505306482315063
1733851437220925700,3.49592578125,-0.207304447889328,0.4506838917732239,0.973205029964447
1733851437230893800,3.505893798828125,-0.18286171555519104,0.39343371987342834,1.033437967300415
1733851437240862700,3.51586279296875,-0.16599644720554352,0.33480849862098694,1.1331161260604858
1733851437250832000,3.525831787109375,-0.17131878435611725,0.26840201020240784,1.257246732711792
1733851437260800000,3.535800048828125,-0.2035539597272873,0.2555943429470062,1.3902884721755981
1733851437270769000,3.545768798828125,-0.24440771341323853,0.27060315012931824,1.5249788761138916
1733851437280737000,3.555737060546875,-0.2691897749900818,0.3078935146331787,1.6592918634414673
1733851437290706000,3.565705810546875,-0.2807596027851105,0.33692315220832825,1.8017246723175049
1733851437300673800,3.575673828125,-0.24560800194740295,0.3658924996852875,1.9502699375152588
1733851437310642700,3.585642578125,-0.17537619173526764,0.43118104338645935,2.1051464080810547
1733851437320611800,3.59561181640625,-0.10609085857868195,0.4877218008041382,2.2733325958251953
1733851437330579700,3.605579833984375,-0.07846364378929138,0.530704915523529,2.465416193008423
1733851437340548900,3.615548828125,-0.08888805657625198,0.5196709036827087,2.700774908065796
1733851437350516700,3.625516845703125,-0.12614049017429352,0.4708089232444763,2.9390456676483154
1733851437360486000,3.63548583984375,-0.16871245205402374,0.4815734028816223,3.1084094047546387
1733851437370454800,3.645454833984375,-0.2139795571565628,0.5242685675621033,3.2093183994293213
1733851437380423000,3.6554228515625,-0.2314504235982895,0.590336799621582,3.269052505493164
1733851437390391800,3.665391845703125,-0.2222501039505005,0.6219338774681091,3.3041441440582275
1733851437400360000,3.67535986328125,-0.1954115629196167,0.5906638503074646,3.3357982635498047
1733851437410328800,3.685328857421875,-0.1515631079673767,0.536140501499176,3.3718137741088867
1733851437420297000,3.695296875,-0.09611264616250992,0.4903416335582733,3.3799185752868652
1733851437430265900,3.705265869140625,-0.06873098760843277,0.44657620787620544,3.4017481803894043
1733851437440235000,3.715235107421875,-0.03935977816581726,0.37785574793815613,3.4478213787078857
1733851437450202600,3.72520263671875,0.046974677592515945,0.33288469910621643,3.45999813079834
1733851437460171800,3.735171875,0.200566366314888,0.32790830731391907,3.4209697246551514
1733851437470139600,3.7451396484375,0.3516276180744171,0.2652502954006195,3.339021682739258
1733851437480108800,3.75510888671875,0.4575181007385254,0.11994767934083939,3.1924631595611572
1733851437490077700,3.76507763671875,0.4939340651035309,-0.07356526702642441,2.9815690517425537
1733851437500045800,3.7750458984375,0.4894846975803375,-0.19764992594718933,2.7000041007995605
1733851437510014700,3.7850146484375,0.4415903091430664,-0.24523842334747314,2.3870246410369873
1733851437519982800,3.79498291015625,0.3716104328632355,-0.21110175549983978,2.059530735015869
1733851437529951700,3.80495166015625,0.3053686022758484,-0.14527633786201477,1.757677435874939
1733851437539920000,3.814919921875,0.247267484664917,-0.0803828090429306,1.4964359998703003
1733851437549888800,3.824888671875,0.22041185200214386,-0.010515207424759865,1.2506251335144043
1733851437559858000,3.83485791015625,0.21338988840579987,0.026060914620757103,1.0059157609939575
1733851437569825800,3.84482568359375,0.22373050451278687,0.05030320957303047,0.7497628927230835
1733851437579795000,3.854794921875,0.23855525255203247,0.06494739651679993,0.4893321394920349
1733851437589762600,3.864762451171875,0.25476449728012085,0.09888459742069244,0.2211083024740219
1733851437599732000,3.87473193359375,0.26360565423965454,0.14085176587104797,-0.037591151893138885
1733851437609700900,3.884700927734375,0.25391021370887756,0.20590442419052124,-0.25045111775398254
1733851437619668700,3.894668701171875,0.23538978397846222,0.2693997621536255,-0.41226664185523987
1733851437629637600,3.9046376953125,0.22873063385486603,0.34603843092918396,-0.5603832602500916
1733851437639605800,3.914605712890625,0.237251415848732,0.409546822309494,-0.7091570496559143
1733851437649574700,3.92457470703125,0.2372954934835434,0.44062134623527527,-0.8671834468841553
1733851437659542800,3.934542724609375,0.27058181166648865,0.46197590231895447,-1.0091367959976196
1733851437669511700,3.94451171875,0.34109899401664734,0.49780669808387756,-1.1097334623336792
1733851437679480800,3.954480712890625,0.4230615198612213,0.5131208896636963,-1.192460060119629
1733851437689449000,3.964448974609375,0.499644011259079,0.5210098028182983,-1.2736974954605103
1733851437699417900,3.97441796875,0.5533080697059631,0.4932805001735687,-1.3356401920318604
1733851437709386000,3.984385986328125,0.5658695101737976,0.416233092546463,-1.3654175996780396
1733851437719355000,3.99435498046875,0.5590634942054749,0.3307003676891327,-1.424729585647583
1733851437729323800,4.00432373046875,0.5468956828117371,0.25535568594932556,-1.5343379974365234
1733851437739292000,4.0142919921875,0.5335865616798401,0.17518895864486694,-1.6624277830123901
1733851437749260800,4.0242607421875,0.5116487741470337,0.07095836848020554,-1.7597646713256836
1733851437759228700,4.034228759765625,0.4713921844959259,-0.04853047430515289,-1.8455603122711182
1733851437769197800,4.04419775390625,0.4220353960990906,-0.148206889629364,-1.9546818733215332
1733851437779166700,4.054166748046875,0.38275936245918274,-0.21380586922168732,-2.083725690841675
1733851437789134800,4.064134765625,0.3874247968196869,-0.22695118188858032,-2.2401015758514404
1733851437799103700,4.074103759765625,0.43521443009376526,-0.24003610014915466,-2.4168310165405273
1733851437809071900,4.08407177734375,0.5065208673477173,-0.2535015642642975,-2.5993382930755615
1733851437819040800,4.094040771484375,0.5686273574829102,-0.2793046832084656,-2.768019437789917
1733851437829009000,4.1040087890625,0.5955764055252075,-0.31900182366371155,-2.92124605178833
1733851437838977800,4.113977783203125,0.6201648712158203,-0.311536967754364,-3.075425148010254
1733851437848946700,4.12394677734375,0.683630108833313,-0.27850237488746643,-3.242823839187622
1733851437858914800,4.133914794921875,0.748100996017456,-0.27294647693634033,-3.40773868560791
1733851437868884000,4.143884033203125,0.7929227948188782,-0.28583404421806335,-3.601969003677368
1733851437878851800,4.153851806640625,0.8258706331253052,-0.34355324506759644,-3.8264808654785156
1733851437888821000,4.163821044921875,0.8516275882720947,-0.4114055931568146,-4.027102947235107
1733851437898790000,4.173789794921875,0.8721853494644165,-0.4165217876434326,-4.153439521789551
1733851437908758000,4.183758056640625,0.876891553401947,-0.3895750641822815,-4.228526592254639
1733851437918727000,4.193726806640625,0.8636851906776428,-0.3892882466316223,-4.263476848602295
1733851437928694800,4.20369482421875,0.8270364999771118,-0.41347843408584595,-4.263225078582764
1733851437938663700,4.21366357421875,0.7824980616569519,-0.4731350839138031,-4.262910842895508
1733851437948632800,4.2236328125,0.7705108523368835,-0.502265453338623,-4.2660980224609375
1733851437958600700,4.2336005859375,0.7815155386924744,-0.5013788938522339,-4.223089218139648
1733851437968569900,4.24356982421875,0.8199166655540466,-0.49213922023773193,-4.148179531097412
1733851437978537700,4.253537841796875,0.8364522457122803,-0.4621852934360504,-4.073498725891113
1733851437988507000,4.2635068359375,0.7694336771965027,-0.46273067593574524,-3.9650604724884033
1733851437998474500,4.273474609375,0.6799408197402954,-0.40765678882598877,-3.830230712890625
1733851438008443600,4.283443603515625,0.5832531452178955,-0.28928178548812866,-3.706305742263794
1733851438018412500,4.29341259765625,0.47771769762039185,-0.13879932463169098,-3.632483959197998
1733851438028380700,4.303380615234375,0.3730141818523407,-0.04844636842608452,-3.5909104347229004
1733851438038349600,4.313349609375,0.3230615258216858,-0.035922322422266006,-3.543429374694824
1733851438048317700,4.323317626953125,0.3297518789768219,-0.07945200055837631,-3.5019376277923584
1733851438058286600,4.33328662109375,0.3702889084815979,-0.1653815656900406,-3.459482192993164
1733851438068255700,4.343255859375,0.45573902130126953,-0.1977451741695404,-3.450563669204712
1733851438078223600,4.3532236328125,0.5670671463012695,-0.1704203337430954,-3.4385602474212646
1733851438088192800,4.36319287109375,0.6600751280784607,-0.10550631582736969,-3.368741512298584
1733851438098160600,4.37316064453125,0.6929441094398499,-0.11703513562679291,-3.216452121734619
1733851438108129800,4.3831298828125,0.6403125524520874,-0.22340193390846252,-3.0134096145629883
1733851438118097700,4.39309765625,0.5269410014152527,-0.34701040387153625,-2.841484785079956
1733851438128066800,4.40306689453125,0.38460931181907654,-0.37584301829338074,-2.7343153953552246
1733851438138035700,4.41303564453125,0.2382156401872635,-0.3450683355331421,-2.693269968032837
1733851438148003600,4.423003662109375,0.11247167736291885,-0.32309553027153015,-2.7067575454711914
1733851438157972500,4.432972412109375,0.014047103933990002,-0.3366478383541107,-2.723778009414673
1733851438167940600,4.442940673828125,-0.0438724122941494,-0.38999462127685547,-2.720283269882202
1733851438177909500,4.452909423828125,-0.03874289616942406,-0.4719342291355133,-2.7064898014068604
1733851438187878700,4.462878662109375,0.027833444997668266,-0.5724594593048096,-2.7055060863494873
1733851438197846500,4.472846435546875,0.1134098619222641,-0.6942452788352966,-2.7311887741088867
1733851438207815700,4.482815673828125,0.18049032986164093,-0.8949401378631592,-2.768359899520874
1733851438217783800,4.49278369140625,0.211863175034523,-1.142501711845398,-2.80615234375
1733851438227752700,4.502752685546875,0.21269561350345612,-1.3310205936431885,-2.8849525451660156
1733851438237721600,4.5127216796875,0.17316630482673645,-1.4335310459136963,-3.0065791606903076
1733851438247689700,4.522689697265625,0.06353780627250671,-1.5042139291763306,-3.199718952178955
1733851438257658600,4.53265869140625,-0.05711803957819939,-1.570896029472351,-3.4595947265625
1733851438267626800,4.542626708984375,-0.11962311714887619,-1.5987770557403564,-3.754443883895874
1733851438277595600,4.552595703125,-0.09613137692213058,-1.541635513305664,-4.031156539916992
1733851438287563500,4.5625634765625,-0.023896990343928337,-1.411346197128296,-4.215003490447998
1733851438297532700,4.57253271484375,0.10137117654085159,-1.3378267288208008,-4.287065505981445
1733851438307501800,4.582501708984375,0.24792778491973877,-1.2972116470336914,-4.234260082244873
1733851438317469700,4.5924697265625,0.3744297921657562,-1.2305983304977417,-4.130782604217529
1733851438327438600,4.6024384765625,0.44218313694000244,-1.1544686555862427,-4.016646862030029
1733851438337406700,4.61240673828125,0.4174349009990692,-1.0917048454284668,-3.900979518890381
1733851438347375600,4.622375732421875,0.32418614625930786,-0.9648445844650269,-3.800804376602173
1733851438357344500,4.632344482421875,0.19097883999347687,-0.8257226347923279,-3.733417510986328
1733851438367312600,4.642312744140625,0.03504177927970886,-0.7075796127319336,-3.672685146331787
1733851438377281800,4.65228173828125,-0.10366363823413849,-0.6100978255271912,-3.575082778930664
1733851438387249700,4.662249755859375,-0.22624871134757996,-0.5501023530960083,-3.397968053817749
1733851438397218800,4.67221875,-0.3406485319137573,-0.5362712740898132,-3.179234504699707
1733851438407187700,4.682187744140625,-0.42995715141296387,-0.5387066602706909,-2.952707529067993
1733851438417155800,4.69215576171875,-0.48913446068763733,-0.5307334065437317,-2.7072055339813232
1733851438427124700,4.702124755859375,-0.514745831489563,-0.4700944125652313,-2.429853916168213
1733851438437092900,4.7120927734375,-0.5311026573181152,-0.37782493233680725,-2.113858461380005
1733851438447061800,4.722061767578125,-0.48528945446014404,-0.27653512358665466,-1.794146180152893
1733851438457029600,4.732029541015625,-0.40199777483940125,-0.166693314909935,-1.5062494277954102
1733851438466998500,4.74199853515625,-0.32013729214668274,-0.02431071177124977,-1.2272541522979736
1733851438476967700,4.7519677734375,-0.26651641726493835,0.12845593690872192,-0.9547643065452576
1733851438486935600,4.761935546875,-0.27312612533569336,0.25735101103782654,-0.7048103213310242
1733851438496904700,4.77190478515625,-0.3179774880409241,0.3794201910495758,-0.4469558894634247
1733851438506872600,4.78187255859375,-0.348958283662796,0.5336011648178101,-0.14059297740459442
1733851438516841700,4.791841796875,-0.3536835312843323,0.6710138916969299,0.1876394897699356
1733851438526810600,4.801810546875,-0.36073920130729675,0.7942630052566528,0.48035770654678345
1733851438536778800,4.81177880859375,-0.361508846282959,0.8980213403701782,0.6970341205596924
1733851438546747600,4.82174755859375,-0.36087870597839355,0.9892208576202393,0.8729667663574219
1733851438556715800,4.8317158203125,-0.3501112759113312,1.0528472661972046,1.0114364624023438
1733851438566684700,4.8416845703125,-0.33451980352401733,1.1122751235961914,1.1082819700241089
1733851438576653800,4.85165380859375,-0.32364001870155334,1.2130084037780762,1.2231792211532593
1733851438586621700,4.86162158203125,-0.31071117520332336,1.3253190517425537,1.3878731727600098
1733851438596590800,4.8715908203125,-0.2751052677631378,1.4334162473678589,1.5537232160568237
1733851438606558700,4.881558837890625,-0.24337810277938843,1.546436071395874,1.7158191204071045
1733851438616528000,4.89152783203125,-0.21886849403381348,1.620778203010559,1.9219563007354736
1733851438626495500,4.90149560546875,-0.20210331678390503,1.6585566997528076,2.1869587898254395
1733851438636464600,4.911464599609375,-0.19711734354496002,1.672947645187378,2.4538676738739014
1733851438646433500,4.92143359375,-0.22010843455791473,1.6743427515029907,2.6805336475372314
1733851438656401700,4.931401611328125,-0.2692517340183258,1.6948621273040771,2.873405694961548
1733851438666370600,4.94137060546875,-0.3086390495300293,1.7262632846832275,3.043116807937622
1733851438676338700,4.951338623046875,-0.36927735805511475,1.6934547424316406,3.215806007385254
1733851438686307600,4.9613076171875,-0.4592716097831726,1.5921112298965454,3.4146625995635986
1733851438696276700,4.97127685546875,-0.5282874703407288,1.4890754222869873,3.638681411743164
1733851438706244600,4.98124462890625,-0.5608870387077332,1.41721510887146,3.8333382606506348
1733851438716213800,4.9912138671875,-0.5733773112297058,1.4015589952468872,3.956019163131714
1733851438726181600,5.001181640625,-0.5617978572845459,1.4451875686645508,4.008375644683838
1733851438736150800,5.01115087890625,-0.5247160196304321,1.5033785104751587,4.039442539215088
1733851438746119700,5.02111962890625,-0.4780840575695038,1.5066406726837158,4.064707279205322
1733851438756087800,5.031087890625,-0.42186686396598816,1.4706501960754395,4.123834609985352
1733851438766056700,5.041056640625,-0.3506941497325897,1.4086651802062988,4.208987236022949
1733851438776024600,5.051024658203125,-0.294603168964386,1.3028533458709717,4.251526832580566
1733851438785993500,5.060993408203125,-0.3022589683532715,1.1969927549362183,4.212012767791748
1733851438795961600,5.070961669921875,-0.33779725432395935,1.139553427696228,4.086669921875
1733851438805930500,5.080930419921875,-0.3713113069534302,1.1259453296661377,3.9083003997802734
1733851438815899600,5.090899658203125,-0.3780443072319031,1.152955174446106,3.7371010780334473
1733851438825867800,5.10086767578125,-0.3534923195838928,1.1914209127426147,3.611393451690674
1733851438835836700,5.110836669921875,-0.28914955258369446,1.168155550956726,3.5118420124053955
1733851438845804800,5.1208046875,-0.18490657210350037,1.0999329090118408,3.3932509422302246
1733851438855773700,5.130773681640625,-0.06233830749988556,1.057044506072998,3.2473175525665283
1733851438865742600,5.14074267578125,0.0543358139693737,0.9893442392349243,3.0599753856658936
1733851438875710700,5.150710693359375,0.15913626551628113,0.863478422164917,2.8221075534820557
1733851438885679600,5.1606796875,0.25653719902038574,0.6997873187065125,2.562084913253784
1733851438895647700,5.170647705078125,0.30413082242012024,0.5459021329879761,2.3267369270324707
1733851438905616600,5.18061669921875,0.3095664978027344,0.444600373506546,2.1109776496887207
1733851438915585800,5.190585693359375,0.2816019654273987,0.3814006447792053,1.892037034034729
1733851438925554000,5.200553955078125,0.22673790156841278,0.32241353392601013,1.659925103187561
1733851438935522800,5.210522705078125,0.1567566841840744,0.27682632207870483,1.4500099420547485
1733851438945490700,5.22049072265625,0.08116038143634796,0.2352665811777115,1.2898117303848267
1733851438955459600,5.23045947265625,-0.004986490588635206,0.20803707838058472,1.1732022762298584
1733851438965428500,5.240428466796875,-0.07505977153778076,0.18111862242221832,1.1202356815338135
1733851438975396600,5.250396728515625,-0.11730442941188812,0.1509668529033661,1.1460773944854736
1733851438985365500,5.260365478515625,-0.12667140364646912,0.14741294085979462,1.1974250078201294
1733851438995333600,5.270333740234375,-0.09762056916952133,0.14861243963241577,1.241395115852356
1733851439005302500,5.280302490234375,-0.029655130580067635,0.18253131210803986,1.2436902523040771
1733851439015271400,5.290271484375,0.0581173300743103,0.2710665166378021,1.2092922925949097
1733851439025239600,5.300239501953125,0.12618659436702728,0.3625306189060211,1.191293478012085
1733851439035208400,5.31020849609375,0.15057289600372314,0.40835484862327576,1.2283053398132324
1733851439045176600,5.320176513671875,0.15080055594444275,0.4258410930633545,1.329123616218567
1733851439055145500,5.3301455078125,0.14234954118728638,0.4509347081184387,1.4630391597747803
1733851439065113600,5.340113525390625,0.15241864323616028,0.5446407794952393,1.6041510105133057
1733851439075082500,5.35008251953125,0.16889508068561554,0.6231462359428406,1.6989893913269043
1733851439085051600,5.3600517578125,0.16638736426830292,0.6500905752182007,1.7873812913894653
1733851439095019500,5.37001953125,0.14328044652938843,0.6315602660179138,1.9805560111999512
1733851439104988700,5.37998876953125,0.11348515748977661,0.5858550071716309,2.3269121646881104
1733851439114956500,5.38995654296875,0.0671195238828659,0.5064267516136169,2.7102792263031006
1733851439124925700,5.39992578125,0.027498414739966393,0.3944545388221741,3.0478107929229736
1733851439134894600,5.40989453125,-0.0002693022834137082,0.36597684025764465,3.29994535446167
1733851439144862500,5.419862548828125,-0.025897273793816566,0.39331141114234924,3.457944393157959
1733851439154831400,5.429831298828125,-0.06331495195627213,0.4535374641418457,3.5402839183807373
1733851439164799500,5.439799560546875,-0.10704943537712097,0.5252569317817688,3.5756802558898926
1733851439174768400,5.449768310546875,-0.1315411925315857,0.5775379538536072,3.645493984222412
1733851439184737500,5.459737548828125,-0.12905961275100708,0.5798474550247192,3.7683634757995605
1733851439194705400,5.469705322265625,-0.1410702019929886,0.48839449882507324,3.9489214420318604
1733851439204674600,5.479674560546875,-0.20670408010482788,0.36541709303855896,4.07832670211792
1733851439214642400,5.489642333984375,-0.2776874601840973,0.2777053415775299,4.104147434234619
1733851439224611600,5.499611572265625,-0.28286975622177124,0.2666506767272949,3.998460292816162
1733851439234580500,5.50958056640625,-0.18573202192783356,0.30134207010269165,3.7837252616882324
1733851439244548600,5.519548583984375,-0.013534638099372387,0.36271414160728455,3.5338900089263916
1733851439254517500,5.529517578125,0.18411798775196075,0.3962971270084381,3.378999948501587
1733851439264485600,5.539485595703125,0.3627571165561676,0.4064236283302307,3.3707828521728516
1733851439274454500,5.54945458984375,0.49206289649009705,0.3982943296432495,3.45032000541687
1733851439284423700,5.559423583984375,0.5776123404502869,0.4070327579975128,3.5095598697662354
1733851439294391600,5.5693916015625,0.6189145445823669,0.4244149625301361,3.479527473449707
1733851439304360700,5.579360595703125,0.6114984750747681,0.41440385580062866,3.364210605621338
1733851439314328300,5.589328369140625,0.5399321913719177,0.33304932713508606,3.1687557697296143
1733851439324297500,5.59929736328125,0.3453187346458435,0.21004264056682587,2.9308831691741943
1733851439334265300,5.609265380859375,0.28218770027160645,0.20471951365470886,2.6564583778381348
1733851439344234500,5.619234375,0.23742185533046722,0.1806010752916336,2.327150344848633
1733851439354203400,5.629203369140625,0.19847658276557922,0.0988292470574379,2.0051302909851074
1733851439364171500,5.639171630859375,0.20595750212669373,0.011990908533334732,1.7184191942214966
1733851439374140400,5.649140380859375,0.2810192108154297,-0.04760957136750221,1.4869284629821777
1733851439384108500,5.659108642578125,0.3830663859844208,-0.06490503251552582,1.2867945432662964
1733851439394077400,5.669077392578125,0.4528534710407257,-0.0671175941824913,1.0842467546463013
1733851439404046600,5.679046630859375,0.4768674373626709,-0.04782794415950775,0.836671769618988
1733851439414014500,5.689014404296875,0.4641958773136139,-0.010213189758360386,0.5060360431671143
1733851439423983600,5.698983642578125,0.4211353063583374,0.03795840963721275,0.12345020473003387
1733851439433951700,5.70895166015625,0.35564127564430237,0.10570470243692398,-0.2624109387397766
1733851439443920600,5.718920654296875,0.27147844433784485,0.15046954154968262,-0.6031830906867981
1733851439453889500,5.7288896484375,0.18932552635669708,0.18763767182826996,-0.8889243006706238
1733851439463857400,5.738857421875,0.12252506613731384,0.24060124158859253,-1.1407541036605835
1733851439473826300,5.748826416015625,0.07630963623523712,0.29274407029151917,-1.3754884004592896
1733851439483794400,5.75879443359375,0.06422887742519379,0.3133413791656494,-1.5825923681259155
1733851439493763300,5.768763427734375,0.06136864051222801,0.2861725986003876,-1.7407170534133911
1733851439503732500,5.778732421875,0.06558344513177872,0.21517854928970337,-1.8610793352127075
1733851439513700600,5.78870068359375,0.07411035150289536,0.15750780701637268,-1.9567041397094727
1733851439523669500,5.79866943359375,0.06933826953172684,0.09880352765321732,-2.0421953201293945
1733851439533637600,5.8086376953125,0.042596399784088135,0.007766828406602144,-2.101411819458008
1733851439543606500,5.8186064453125,-0.022041266784071922,-0.09837441146373749,-2.135430097579956
1733851439553575400,5.828575439453125,-0.11186010390520096,-0.21079201996326447,-2.1667747497558594
1733851439563543600,5.83854345703125,-0.18589362502098083,-0.2962311804294586,-2.236205577850342
1733851439573512400,5.848512451171875,-0.21409250795841217,-0.3389829099178314,-2.3688530921936035
1733851439583480600,5.85848046875,-0.20348739624023438,-0.390725314617157,-2.5296976566314697
1733851439593449500,5.868449462890625,-0.14884120225906372,-0.4905925393104553,-2.670372724533081
1733851439603418600,5.878418701171875,-0.07481040805578232,-0.6018299460411072,-2.779118776321411
1733851439613386800,5.88838671875,0.023844266310334206,-0.6687535643577576,-2.8865854740142822
1733851439623355600,5.898355712890625,0.12815511226654053,-0.7147318720817566,-2.985689163208008
1733851439633323500,5.908323486328125,0.1967908889055252,-0.8138421773910522,-3.075354814529419
1733851439643292400,5.91829248046875,0.23131491243839264,-0.9054616689682007,-3.187204122543335
1733851439653260500,5.928260498046875,0.2623806893825531,-0.9491827487945557,-3.3378489017486572
1733851439663229400,5.9382294921875,0.30477818846702576,-0.9082708358764648,-3.5126454830169678
1733851439673198300,5.9481982421875,0.36195093393325806,-0.8390160799026489,-3.7058145999908447
1733851439683166500,5.95816650390625,0.40919625759124756,-0.805723249912262,-3.883333683013916
1733851439693135600,5.968135498046875,0.4583720564842224,-0.8634714484214783,-4.018916130065918
1733851439703103500,5.978103515625,0.4923762083053589,-0.9376947283744812,-4.117785453796387
1733851439713072600,5.98807275390625,0.5080638527870178,-1.0059081315994263,-4.168950080871582
1733851439723041500,5.99804150390625,0.5017092227935791,-1.0350141525268555,-4.181560516357422
1733851439733009700,6.008009765625,0.4737284779548645,-1.0186983346939087,-4.185694217681885
1733851439742978600,6.017978515625,0.44929635524749756,-0.9780962467193604,-4.216839790344238
1733851439752946700,6.02794677734375,0.4537065327167511,-0.9518550634384155,-4.254146575927734
1733851439762915600,6.03791552734375,0.4642142057418823,-0.940243661403656,-4.230858325958252
1733851439772884500,6.047884521484375,0.45061635971069336,-0.9059011340141296,-4.107438564300537
1733851439782852400,6.057852294921875,0.4013870656490326,-0.9024511575698853,-3.879932403564453
1733851439792821500,6.067821533203125,0.3057268559932709,-0.9090219736099243,-3.568828821182251
1733851439802789400,6.077789306640625,0.24108484387397766,-0.8509907722473145,-3.2227723598480225
1733851439812758500,6.087758544921875,0.21657896041870117,-0.7182686924934387,-2.8638103008270264
1733851439822727400,6.0977275390625,0.18992182612419128,-0.5531217455863953,-2.548558473587036
1733851439832695600,6.107695556640625,0.1689630150794983,-0.39177703857421875,-2.314891815185547
1733851439842664400,6.11766455078125,0.1533598005771637,-0.2242787778377533,-2.1174769401550293
1733851439852632600,6.127632568359375,0.1845557987689972,-0.0672135278582573,-1.933816909790039
1733851439862601500,6.1376015625,0.2572096288204193,0.025629980489611626,-1.7874054908752441
1733851439872570600,6.147570556640625,0.34748199582099915,0.0436428040266037,-1.6610339879989624
1733851439882538500,6.15753857421875,0.4111618995666504,-0.015069430693984032,-1.5422141551971436
1733851439892507600,6.167507568359375,0.43682464957237244,-0.11162500083446503,-1.458362102508545
1733851439902475500,6.1774755859375,0.4381227195262909,-0.23772990703582764,-1.4319292306900024
1733851439912444700,6.187444580078125,0.43181875348091125,-0.3433671295642853,-1.4731675386428833
1733851439922413600,6.19741357421875,0.4266601502895355,-0.43021345138549805,-1.5572903156280518
1733851439932381700,6.207381591796875,0.42565029859542847,-0.5078728199005127,-1.6261566877365112
1733851439942350600,6.2173505859375,0.41317060589790344,-0.5842869281768799,-1.6575074195861816
1733851439952318500,6.227318359375,0.39082270860671997,-0.6663910746574402,-1.7062655687332153
1733851439962287400,6.237287353515625,0.36587095260620117,-0.7245965003967285,-1.8250453472137451
1733851439972256500,6.247256591796875,0.351344496011734,-0.738304853439331,-2.0127038955688477
1733851439982224400,6.257224365234375,0.34361258149147034,-0.7062035202980042,-2.253633975982666
1733851439992193500,6.267193603515625,0.34092196822166443,-0.6299670338630676,-2.5363805294036865
1733851440002161700,6.27716162109375,0.37709131836891174,-0.5418301820755005,-2.8367867469787598
1733851440012130800,6.287130859375,0.42574620246887207,-0.4985101819038391,-3.081028461456299
1733851440022099700,6.297099609375,0.47197651863098145,-0.4649769365787506,-3.290131092071533
1733851440032067800,6.30706787109375,0.5374224185943604,-0.4242558777332306,-3.4939069747924805
1733851440042036700,6.31703662109375,0.6150298118591309,-0.39447614550590515,-3.637451171875
1733851440052004900,6.3270048828125,0.6523662805557251,-0.37743324041366577,-3.7124009132385254
1733851440061973800,6.336973876953125,0.6607793569564819,-0.3772429823875427,-3.760831356048584
1733851440071943000,6.34694287109375,0.6430674195289612,-0.397028386592865,-3.8389620780944824
1733851440081910800,6.356910888671875,0.6243131160736084,-0.3871360123157501,-3.9621191024780273
1733851440091880000,6.3668798828125,0.6330677270889282,-0.3321766257286072,-4.073520183563232
1733851440101847800,6.376847900390625,0.6323502063751221,-0.31448739767074585,-4.133842945098877
1733851440111817000,6.38681689453125,0.6019651293754578,-0.37853214144706726,-4.124171733856201
1733851440121785900,6.396785888671875,0.5588882565498352,-0.44198930263519287,-4.075857162475586
1733851440131754000,6.40675390625,0.5102245807647705,-0.48215216398239136,-3.992565631866455
1733851440141723000,6.416722900390625,0.431659996509552,-0.5845257639884949,-3.877734422683716
1733851440151690800,6.426690673828125,0.32613274455070496,-0.7023661136627197,-3.7697720527648926
1733851440161659600,6.43665966796875,0.2567349076271057,-0.7852423787117004,-3.7006378173828125
1733851440171627800,6.446627685546875,0.25869980454444885,-0.7880698442459106,-3.640641450881958
1733851440181596700,6.4565966796875,0.29204419255256653,-0.763606071472168,-3.5023629665374756
1733851440191565800,6.46656591796875,0.283945232629776,-0.7429822683334351,-3.253932237625122
1733851440201533700,6.47653369140625,0.2456558793783188,-0.7584900259971619,-2.984438896179199
1733851440211502800,6.4865029296875,0.18188755214214325,-0.7517021298408508,-2.802513837814331
1733851440221470700,6.496470703125,0.04358028993010521,-0.6812747716903687,-2.733639717102051
1733851440231440000,6.50643994140625,-0.15815310180187225,-0.6083059906959534,-2.7167465686798096
1733851440241408800,6.51640869140625,-0.3414483666419983,-0.5477328896522522,-2.704658269882202
1733851440251377000,6.526376953125,-0.4267614185810089,-0.4266751706600189,-2.710880756378174
1733851440261345800,6.536345703125,-0.40557926893234253,-0.25527894496917725,-2.66286301612854
1733851440271314000,6.54631396484375,-0.4074285924434662,-0.05893820896744728,-2.435393810272217
1733851440281282800,6.55628271484375,-0.4292822480201721,0.14206960797309875,-2.0883238315582275
1733851440291252000,6.566251953125,-0.4360445439815521,0.3469494879245758,-1.6821045875549316
1733851440301219600,6.576219482421875,-0.4080091118812561,0.5395460724830627,-1.2859283685684204
1733851440311188700,6.586188720703125,-0.3657018542289734,0.6840060353279114,-0.9192577600479126
1733851440321156900,6.596156982421875,-0.32081496715545654,0.7487359046936035,-0.5713410377502441
1733851440331125800,6.606125732421875,-0.3038381040096283,0.7177824974060059,-0.24369093775749207
1733851440341094700,6.6160947265625,-0.32995694875717163,0.6759438514709473,0.07306163012981415
1733851440351062800,6.626062744140625,-0.39383819699287415,0.6316559910774231,0.37741246819496155
1733851440361031700,6.63603173828125,-0.44778433442115784,0.6028774976730347,0.6320968866348267
1733851440370999800,6.645999755859375,-0.4554041624069214,0.5878980159759521,0.8031373620033264
1733851440380968700,6.65596875,-0.42134544253349304,0.6105115413665771,0.9398229718208313
1733851440390937900,6.665937744140625,-0.3707650899887085,0.6548372507095337,1.0852150917053223
1733851440400905700,6.67590576171875,-0.32936355471611023,0.6987766623497009,1.2176244258880615
1733851440410875000,6.685875,-0.3000517189502716,0.7529163360595703,1.297381043434143
1733851440420843000,6.695843017578125,-0.28042805194854736,0.8228040933609009,1.3459088802337646
1733851440430812000,6.70581201171875,-0.2724854350090027,0.9017519354820251,1.400121808052063
1733851440440780800,6.71578076171875,-0.250019371509552,1.0093801021575928,1.4556787014007568
1733851440450749000,6.7257490234375,-0.21281234920024872,1.136902093887329,1.5274368524551392
1733851440460717800,6.7357177734375,-0.14831431210041046,1.27863609790802,1.6371161937713623
1733851440470685700,6.745685791015625,-0.08977723866701126,1.4044872522354126,1.797943353652954
1733851440480654600,6.755654541015625,-0.05044672265648842,1.457433819770813,1.9773473739624023
1733851440490623700,6.765623779296875,-0.03533115237951279,1.4757121801376343,2.139099359512329
1733851440500591900,6.775591796875,-0.03980701044201851,1.4959499835968018,2.2845048904418945
1733851440510560800,6.785560791015625,-0.03992418944835663,1.5126762390136719,2.439361572265625
1733851440520529000,6.79552880859375,-0.03840963542461395,1.5140984058380127,2.6336939334869385
1733851440530497800,6.805497802734375,-0.024751877412199974,1.4833120107650757,2.8423256874084473
1733851440540466700,6.815466796875,0.002586093032732606,1.4663821458816528,3.0244007110595703
1733851440550434800,6.825434814453125,0.03985969349741936,1.4468590021133423,3.175431251525879
1733851440560403700,6.83540380859375,0.08680326491594315,1.4230623245239258,3.3223769664764404
1733851440570371800,6.845371826171875,0.11091632395982742,1.3728429079055786,3.4957640171051025
1733851440580340700,6.8553408203125,0.08438508212566376,1.2994381189346313,3.691080331802368
1733851440590310000,6.865309814453125,0.034916602075099945,1.2157632112503052,3.8910534381866455
1733851440600278000,6.875278076171875,-0.022308332845568657,1.1255823373794556,4.093997001647949
1733851440610247000,6.885246826171875,-0.07307137548923492,1.0615687370300293,4.28774356842041
1733851440620214800,6.89521484375,-0.09869448095560074,1.010544776916504,4.442164897918701
1733851440630183700,6.90518359375,-0.12481530010700226,0.9481669068336487,4.566913604736328
1733851440640152600,6.915152587890625,-0.15945667028427124,0.8812620639801025,4.675137519836426
1733851440650120700,6.92512060546875,-0.19102631509304047,0.8429969549179077,4.764015197753906
1733851440660089900,6.93508984375,-0.19866976141929626,0.8271369338035583,4.792773246765137
1733851440670057700,6.9450576171875,-0.19382521510124207,0.8045474886894226,4.732008934020996
1733851440680027000,6.95502685546875,-0.1794249266386032,0.7574263215065002,4.602680206298828
1733851440689995800,6.964995849609375,-0.1766352653503418,0.682959794998169,4.432235240936279
1733851440699964000,6.9749638671875,-0.1369304209947586,0.6112812757492065,4.247977256774902
1733851440709932800,6.984932861328125,-0.04624444991350174,0.5717809796333313,4.066740036010742
1733851440719901000,6.99490087890625,0.07315493375062943,0.5691580772399902,3.8809688091278076
1733851440729869800,7.004869873046875,0.18201111257076263,0.5730441808700562,3.652927875518799
1733851440739838700,7.014838623046875,0.24703900516033173,0.5569196939468384,3.3653299808502197
1733851440749806800,7.024806884765625,0.23975418508052826,0.5432118773460388,3.0161187648773193
1733851440759776000,7.03477587890625,0.17676401138305664,0.5347049832344055,2.6450276374816895
1733851440769744000,7.044743896484375,0.1073114350438118,0.520408034324646,2.3002090454101562
1733851440779713000,7.054713134765625,0.04574466496706009,0.5035359859466553,1.9981095790863037
1733851440789682000,7.064681884765625,-0.012007581070065498,0.4775983691215515,1.7396130561828613
1733851440799649800,7.07464990234375,-0.07811114192008972,0.4548337757587433,1.5305614471435547
1733851440809618700,7.08461865234375,-0.1380154937505722,0.4586050808429718,1.3561060428619385
1733851440819586800,7.0945869140625,-0.1737680286169052,0.5046985745429993,1.198398232460022
1733851440829555700,7.1045556640625,-0.17415818572044373,0.5443626642227173,1.0640723705291748
1733851440839524900,7.11452490234375,-0.15516316890716553,0.5507270097732544,0.9851996898651123
1733851440849492700,7.12449267578125,-0.14019326865673065,0.5226978063583374,0.9514742493629456
1733851440859462000,7.1344619140625,-0.10208277404308319,0.4689352214336395,0.9592862725257874
1733851440869429800,7.1444296875,-0.06174866482615471,0.44611912965774536,0.9614759087562561
1733851440879399000,7.15439892578125,-0.037017494440078735,0.45089831948280334,0.9501757025718689
1733851440889367800,7.164367919921875,-0.02790176309645176,0.495675653219223,0.9306129217147827
1733851440899336000,7.1743359375,-0.04865376651287079,0.5173911452293396,0.949747622013092
1733851440909304800,7.184304931640625,-0.101211778819561,0.5002965331077576,0.9997921586036682
1733851440919273000,7.19427294921875,-0.14793895184993744,0.4950030446052551,1.0693864822387695
1733851440929241900,7.204241943359375,-0.1747138351202011,0.5031715035438538,1.1610952615737915
1733851440939211000,7.2142109375,-0.17464576661586761,0.5208857655525208,1.2951725721359253
1733851440949178600,7.2241787109375,-0.14561305940151215,0.5721116662025452,1.475632905960083
1733851440959147800,7.234147705078125,-0.09038057923316956,0.619992196559906,1.6979583501815796
1733851440969115600,7.24411572265625,-0.006973838899284601,0.6517341136932373,1.9479622840881348
1733851440979084800,7.254084716796875,0.07840155810117722,0.6638433337211609,2.2345852851867676
1733851440989053700,7.2640537109375,0.1379983127117157,0.6805959343910217,2.5733189582824707
1733851440999021800,7.274021728515625,0.16118124127388,0.6617768406867981,2.9035096168518066
1733851441008991000,7.283990966796875,0.14884574711322784,0.6096188426017761,3.1922035217285156
1733851441018958800,7.293958740234375,0.11815592646598816,0.5807660222053528,3.4207253456115723
1733851441028927700,7.303927734375,0.08571649342775345,0.6113167405128479,3.62679386138916
1733851441038897000,7.31389697265625,0.06404957175254822,0.6632351875305176,3.8500523567199707
1733851441048864800,7.32386474609375,0.0955723449587822,0.7394644618034363,4.073020935058594
1733851441058834000,7.333833984375,0.14811523258686066,0.8580855131149292,4.27911901473999
1733851441068801800,7.3438017578125,0.20662887394428253,0.9454411864280701,4.464128494262695
1733851441078771000,7.35377099609375,0.23213039338588715,0.9508166909217834,4.608876705169678
1733851441088739800,7.36373974609375,0.23622341454029083,0.8900468349456787,4.689695358276367
1733851441098708000,7.3737080078125,0.24989227950572968,0.8423324227333069,4.670181751251221
1733851441108676900,7.3836767578125,0.26532769203186035,0.8282935619354248,4.544353485107422
1733851441118645000,7.39364501953125,0.25050127506256104,0.785045862197876,4.3843092918396
1733851441128614000,7.40361376953125,0.2500821053981781,0.7260197997093201,4.1969122886657715
1733851441138583000,7.4135830078125,0.27415817975997925,0.6766506433486938,3.9561023712158203
1733851441148551000,7.423551025390625,0.3359968066215515,0.6593962907791138,3.65905499458313
1733851441158520000,7.43352001953125,0.40301424264907837,0.6362665891647339,3.361280918121338
1733851441168487700,7.44348779296875,0.4335087835788727,0.5843040943145752,3.087432384490967
1733851441178456800,7.453456787109375,0.4613623321056366,0.4930698275566101,2.8762269020080566
1733851441188425700,7.46342578125,0.48137304186820984,0.3952338397502899,2.7196784019470215
1733851441198393900,7.473393798828125,0.48613440990448,0.3106844425201416,2.6017565727233887
1733851441208362800,7.48336279296875,0.4622645080089569,0.18313047289848328,2.5381851196289062
1733851441218331000,7.493330810546875,0.42605695128440857,0.03489917144179344,2.496873378753662
1733851441228299800,7.5032998046875,0.3843134939670563,-0.05596175789833069,2.3827147483825684
1733851441238269000,7.51326904296875,0.31174716353416443,-0.11045925319194794,2.1281187534332275
1733851441248236800,7.52323681640625,0.24922199547290802,-0.13840672373771667,1.7580500841140747
1733851441258206000,7.5332060546875,0.20480777323246002,-0.17029230296611786,1.3369232416152954
1733851441268173800,7.543173828125,0.16811926662921906,-0.19212223589420319,0.9120532870292664
1733851441278143000,7.55314306640625,0.1387556493282318,-0.1488109529018402,0.4867699146270752
1733851441288111900,7.56311181640625,0.12794481217861176,-0.06731821596622467,0.07360363751649857
1733851441298080000,7.573080078125,0.11705812811851501,-0.0069590974599123,-0.31807923316955566
1733851441308049000,7.583048828125,0.10098089277744293,0.030332081019878387,-0.6887204051017761
1733851441318017000,7.59301708984375,0.09735885262489319,0.07845800369977951,-1.0121835470199585
1733851441327986000,7.60298583984375,0.12555959820747375,0.12926152348518372,-1.2718009948730469
1733851441337955000,7.612955078125,0.17209413647651672,0.15436452627182007,-1.454821228981018
1733851441347922700,7.622922607421875,0.22251763939857483,0.14453932642936707,-1.6057419776916504
1733851441357891800,7.632891845703125,0.2888680398464203,0.1104733869433403,-1.7642807960510254
1733851441367860000,7.64285986328125,0.345490038394928,0.08404497802257538,-1.9284284114837646
1733851441377828900,7.652828857421875,0.37647154927253723,0.025131866335868835,-2.0785155296325684
1733851441387797800,7.6627978515625,0.39905038475990295,-0.06517379730939865,-2.1947853565216064
1733851441397766000,7.672765869140625,0.4379611611366272,-0.135214701294899,-2.293100357055664
1733851441407734800,7.68273486328125,0.5020464062690735,-0.19899074733257294,-2.383391857147217
1733851441417703000,7.692702880859375,0.5684564113616943,-0.3140695095062256,-2.438227415084839
1733851441427671800,7.702671875,0.6189534068107605,-0.4474765658378601,-2.489579677581787
1733851441437641000,7.712640869140625,0.6630652546882629,-0.5025969743728638,-2.595616579055786
1733851441447608800,7.72260888671875,0.6942599415779114,-0.49056029319763184,-2.763521909713745
1733851441457578000,7.732577880859375,0.6831364035606384,-0.479099839925766,-2.956010580062866
1733851441467546000,7.742546142578125,0.6401223540306091,-0.530546247959137,-3.129326105117798
1733851441477515000,7.752514892578125,0.6136014461517334,-0.5748236179351807,-3.271293878555298
1733851441487484000,7.76248388671875,0.6122874021530151,-0.5853303074836731,-3.4036474227905273
1733851441497451800,7.77245166015625,0.6374595761299133,-0.6382840871810913,-3.533013343811035
1733851441507420700,7.782420654296875,0.6720393896102905,-0.7129008173942566,-3.66481351852417
1733851441517388800,7.792388916015625,0.6712760925292969,-0.7903438210487366,-3.789257526397705
1733851441527357700,7.802357666015625,0.6503720879554749,-0.8384492993354797,-3.921891689300537
1733851441537326800,7.812326904296875,0.655704140663147,-0.8570385575294495,-4.086185455322266
1733851441547295000,7.822294921875,0.6591169834136963,-0.8392009735107422,-4.254916191101074
1733851441557264000,7.832263916015625,0.6701812148094177,-0.7956215739250183,-4.388951778411865
1733851441567232000,7.84223193359375,0.681754469871521,-0.7454787492752075,-4.444024085998535
1733851441577201000,7.852200927734375,0.6944276690483093,-0.658564567565918,-4.448530673980713
1733851441587169800,7.862169677734375,0.6942034363746643,-0.5780441164970398,-4.410923957824707
1733851441597138000,7.872137939453125,0.6392843127250671,-0.5192314386367798,-4.301370143890381
1733851441607106800,7.88210693359375,0.5245886445045471,-0.4759550988674164,-4.117682933807373
1733851441617076000,7.892075927734375,0.38917285203933716,-0.39668574929237366,-3.905378818511963
1733851441627043800,7.9020439453125,0.26853886246681213,-0.2789119780063629,-3.7036023139953613
1733851441637013000,7.912012939453125,0.17766550183296204,-0.17714528739452362,-3.513230323791504
1733851441646981000,7.921981201171875,0.11598323285579681,-0.10510917007923126,-3.3359766006469727
1733851441656950000,7.931949951171875,0.07190791517496109,-0.09704413264989853,-3.100616693496704
1733851441666919000,7.9419189453125,0.025624312460422516,-0.12236093729734421,-2.7982230186462402
1733851441676886800,7.95188671875,0.002115364884957671,-0.1288701295852661,-2.453962564468384
1733851441686855700,7.961855712890625,0.022459518164396286,-0.13249549269676208,-2.105147123336792
1733851441696823800,7.97182373046875,0.09202507883310318,-0.16289211809635162,-1.7908357381820679
1733851441706792700,7.981792724609375,0.18588392436504364,-0.2155262976884842,-1.5204561948776245
1733851441716761900,7.991761962890625,0.265119343996048,-0.28596100211143494,-1.3329355716705322
1733851441726730000,8.00172998046875,0.312409371137619,-0.358318030834198,-1.2316854000091553
1733851441736699000,8.011698974609375,0.3499411344528198,-0.38486579060554504,-1.2171587944030762
1733851441746667000,8.0216669921875,0.39046967029571533,-0.37208104133605957,-1.3062013387680054
1733851441756636000,8.031635986328125,0.3984309136867523,-0.33623072504997253,-1.4492230415344238
1733851441766604800,8.041604736328125,0.3555106222629547,-0.29002782702445984,-1.5967965126037598
1733851441776573000,8.051572998046876,0.29640015959739685,-0.22121381759643555,-1.7361955642700195
1733851441786541800,8.061541748046874,0.21506404876708984,-0.15728409588336945,-1.877462387084961
1733851441796510000,8.071510009765625,0.1337922066450119,-0.15172773599624634,-2.008678436279297
1733851441806479000,8.08147900390625,0.0686587393283844,-0.20619817078113556,-2.1253418922424316
1733851441816448000,8.091447998046876,0.047277532517910004,-0.2603195011615753,-2.2721705436706543
1733851441826415900,8.101415771484374,0.07742718607187271,-0.33931443095207214,-2.443561315536499
1733851441836384800,8.111384765625,0.11424614489078522,-0.4636605978012085,-2.6074414253234863
1733851441846353000,8.121352783203125,0.13987906277179718,-0.6197290420532227,-2.7770140171051025
1733851441856321800,8.13132177734375,0.16525927186012268,-0.7620243430137634,-2.960759401321411
1733851441866290700,8.141290771484375,0.19989155232906342,-0.8677686452865601,-3.1482443809509277
1733851441876258800,8.1512587890625,0.2500564754009247,-0.965303897857666,-3.3201675415039062
1733851441886228000,8.16122802734375,0.3023543059825897,-1.0522207021713257,-3.4940104484558105
1733851441896195800,8.17119580078125,0.33200210332870483,-1.100797414779663,-3.6773648262023926
1733851441906165000,8.1811650390625,0.32947370409965515,-1.077803373336792,-3.8439035415649414
1733851441916134000,8.1911337890625,0.3109026551246643,-1.0308208465576172,-3.9506824016571045
1733851441926102000,8.20110205078125,0.2635737657546997,-1.040617823600769,-3.9524903297424316
1733851441936071000,8.21107080078125,0.20483054220676422,-1.1349232196807861,-3.86552095413208
1733851441946039000,8.2210390625,0.14589399099349976,-1.223405361175537,-3.7413082122802734
1733851441956008000,8.231008056640626,0.08181217312812805,-1.2978321313858032,-3.5977940559387207
1733851441965976800,8.240976806640624,0.016195612028241158,-1.3053749799728394,-3.4467763900756836
1733851441975945000,8.250945068359375,-0.04501213878393173,-1.2934263944625854,-3.3200125694274902
1733851441985914000,8.2609140625,-0.08224552124738693,-1.2643097639083862,-3.2581703662872314
1733851441995881700,8.2708818359375,-0.08210889995098114,-1.2528363466262817,-3.2135097980499268
1733851442005851100,8.28085107421875,-0.08071127533912659,-1.2265934944152832,-3.137148857116699
1733851442015820000,8.290820068359375,-0.07012500613927841,-1.1957037448883057,-3.0448851585388184
1733851442025788200,8.3007880859375,-0.05878100171685219,-1.168544054031372,-2.969379425048828
1733851442035757000,8.310757080078124,-0.03269863501191139,-1.0910364389419556,-2.921340227127075
1733851442045725200,8.32072509765625,-0.03406457230448723,-0.9824672937393188,-2.846133232116699
1733851442055694000,8.330694091796875,-0.06858330219984055,-0.8665934205055237,-2.722942590713501
1733851442065663000,8.3406630859375,-0.12369395792484283,-0.7652918696403503,-2.589836835861206
1733851442075631000,8.350631103515624,-0.18545827269554138,-0.6222405433654785,-2.448314905166626
1733851442085600300,8.360600341796875,-0.2137650102376938,-0.4604894518852234,-2.335653781890869
1733851442095568000,8.37056787109375,-0.21305310726165771,-0.3082944452762604,-2.229437828063965
1733851442105537000,8.380537109375,-0.20359168946743011,-0.18473096191883087,-2.0879671573638916
1733851442115506200,8.390506103515625,-0.18935203552246094,-0.11016522347927094,-1.8892637491226196
1733851442125474000,8.40047412109375,-0.14229318499565125,-0.05295812338590622,-1.6654667854309082
1733851442135443000,8.41044287109375,-0.04572203382849693,-0.0041851140558719635,-1.4338314533233643
1733851442145411000,8.4204111328125,0.03759549558162689,0.05384622886776924,-1.2237423658370972
1733851442155380000,8.4303798828125,0.1029147207736969,0.13052543997764587,-1.0472495555877686
1733851442165349000,8.44034912109375,0.12714682519435883,0.22803016006946564,-0.8605185151100159
1733851442175317000,8.45031689453125,0.12042552977800369,0.32304924726486206,-0.6435037851333618
1733851442185286100,8.4602861328125,0.11789126694202423,0.4113953709602356,-0.39661306142807007
1733851442195254000,8.47025390625,0.12653975188732147,0.4762054681777954,-0.15552456676959991
1733851442205223200,8.48022314453125,0.11914148926734924,0.5110755562782288,0.07429131120443344
1733851442215192000,8.490192138671874,0.09497737139463425,0.5349344611167908,0.2913535237312317
1733851442225160200,8.50016015625,0.05585021525621414,0.5829483270645142,0.49794238805770874
1733851442235129000,8.510129150390625,0.009360885247588158,0.6468814015388489,0.684067964553833
1733851442245097200,8.52009716796875,-0.04628240317106247,0.7236549854278564,0.8519917130470276
1733851442255066000,8.530066162109375,-0.08177630603313446,0.815075695514679,1.0119738578796387
1733851442265035300,8.54003515625,-0.11611350625753403,0.9083947539329529,1.1754118204116821
1733851442275003000,8.5500029296875,-0.15829478204250336,1.007489800453186,1.3521246910095215
1733851442284972000,8.559971923828124,-0.1891762614250183,1.1034411191940308,1.5431164503097534
1733851442294941000,8.56994091796875,-0.18337565660476685,1.2030028104782104,1.732946515083313
1733851442304909000,8.579908935546875,-0.1480083465576172,1.2853517532348633,1.9293423891067505
1733851442314878000,8.5898779296875,-0.1055479347705841,1.3290536403656006,2.167792558670044
1733851442324846000,8.59984619140625,-0.07245922833681107,1.351511001586914,2.442992925643921
1733851442334815000,8.60981494140625,-0.09681810438632965,1.3601500988006592,2.7010254859924316
1733851442344784100,8.6197841796875,-0.17467747628688812,1.3436435461044312,2.920257329940796
1733851442354752000,8.629751953125,-0.2844628393650055,1.3300660848617554,3.123366117477417
1733851442364721200,8.63972119140625,-0.3994560241699219,1.3115216493606567,3.329152822494507
1733851442374689000,8.64968896484375,-0.506028950214386,1.2770297527313232,3.511837959289551
1733851442384658200,8.659658203125,-0.610706090927124,1.2443764209747314,3.665651321411133
1733851442394627000,8.669626953125,-0.684775173664093,1.2378991842269897,3.8130929470062256
1733851442404595200,8.67959521484375,-0.718407154083252,1.259854793548584,3.975719928741455
1733851442414564000,8.689564208984375,-0.7340418696403503,1.2614848613739014,4.135517597198486
1733851442424532200,8.6995322265625,-0.7054712176322937,1.256654977798462,4.307699203491211
1733851442434501000,8.709501220703125,-0.6352747678756714,1.2308632135391235,4.458306312561035
1733851442444470300,8.71947021484375,-0.5833423137664795,1.2248798608779907,4.598647117614746
1733851442454438000,8.72943798828125,-0.5697105526924133,1.1682966947555542,4.717132091522217
1733851442464407000,8.739406982421874,-0.6026767492294312,1.0764514207839966,4.779126167297363
1733851442474375000,8.749375,-0.6658986210823059,0.9947754144668579,4.7785868644714355
1733851442484344000,8.759343994140625,-0.7224979400634766,0.934540867805481,4.708460330963135
1733851442494313000,8.76931298828125,-0.7309792041778564,0.925683319568634,4.580860614776611
1733851442504281000,8.779281005859374,-0.6999453902244568,0.9488150477409363,4.4242939949035645
1733851442514250000,8.78925,-0.6438902616500854,0.9671661853790283,4.213152885437012
1733851442524218000,8.799218017578125,-0.5502170324325562,0.9384397864341736,3.950331926345825
1733851442534187000,8.80918701171875,-0.45827972888946533,0.8492116332054138,3.685689926147461
1733851442544156200,8.81915625,-0.3739973306655884,0.7650054097175598,3.426551580429077
1733851442554124000,8.8291240234375,-0.3006744682788849,0.7393280267715454,3.189012289047241
1733851442564093200,8.83909326171875,-0.22223344445228577,0.7403496503829956,3.0250918865203857
1733851442574061000,8.84906103515625,-0.13413196802139282,0.7113446593284607,2.9217793941497803
1733851442584030200,8.8590302734375,-0.053369197994470596,0.6660416722297668,2.83807635307312
1733851442593999000,8.8689990234375,-0.009672804735600948,0.6449437141418457,2.7351138591766357
1733851442603967000,8.878967041015626,-0.004287361167371273,0.6565303206443787,2.5794148445129395
1733851442613935900,8.888935791015625,-0.014037891291081905,0.6570401787757874,2.3725814819335938
1733851442623904000,8.898904052734375,-0.03613493964076042,0.6229496002197266,2.1552114486694336
1733851442633873000,8.908872802734376,-0.0568106472492218,0.6024724841117859,1.9547511339187622
1733851442643842000,8.918842041015624,-0.07988294214010239,0.596264123916626,1.7701956033706665
1733851442653810000,8.928809814453125,-0.09423284232616425,0.5780207514762878,1.6004562377929688
1733851442663779000,8.938779052734375,-0.08023393899202347,0.5491079092025757,1.4547771215438843
1733851442673747000,8.948746826171876,-0.04989108070731163,0.5420151352882385,1.3504434823989868
1733851442683716000,8.958716064453125,-0.005870627239346504,0.5139134526252747,1.270859718322754
1733851442693685000,8.96868505859375,0.03997901827096939,0.4576326608657837,1.1993019580841064
1733851442703653000,8.978653076171875,0.09074978530406952,0.3986242115497589,1.1390143632888794
1733851442713622000,8.9886220703125,0.12081435322761536,0.3529926836490631,1.0876610279083252
1733851442723590100,8.998590087890625,0.10083318501710892,0.32214289903640747,1.058022141456604
1733851442733559000,9.00855908203125,0.015409111976623535,0.3217189908027649,1.0632781982421875
1733851442743528200,9.018528076171876,-0.08715854585170746,0.3080809712409973,1.105146050453186
1733851442753496000,9.02849609375,-0.1965319663286209,0.2950477600097656,1.1659976243972778
1733851442763465200,9.03846533203125,-0.3055972158908844,0.32302719354629517,1.2313963174819946
1733851442773433000,9.04843310546875,-0.3838275372982025,0.3803296387195587,1.2951408624649048
1733851442783402000,9.058402099609374,-0.3651752769947052,0.4322391748428345,1.3908921480178833
1733851442793371000,9.068370849609375,-0.2613945007324219,0.4694480299949646,1.5496611595153809
1733851442803339000,9.078339111328125,-0.11077916622161865,0.4947826862335205,1.7795028686523438
1733851442813308000,9.088307861328126,0.02261480875313282,0.5046337246894836,2.0611815452575684
1733851442823276000,9.098276123046874,0.12243594974279404,0.4685523808002472,2.320897340774536
1733851442833245000,9.108244873046875,0.16053158044815063,0.42696306109428406,2.5460875034332275
1733851442843214000,9.118214111328125,0.13950219750404358,0.4089489281177521,2.7453036308288574
1733851442853182000,9.128181884765626,0.056310709565877914,0.38454553484916687,2.8752031326293945
1733851442863151000,9.138151123046875,-0.06909674406051636,0.3068046569824219,2.935467481613159
1733851442873119200,9.148119140625,-0.14174629747867584,0.3014724850654602,2.9814553260803223
1733851442883088100,9.158088134765626,-0.15732978284358978,0.4124610424041748,3.0401058197021484
1733851442893057000,9.16805712890625,-0.1484616994857788,0.5266911387443542,3.110246181488037
1733851442903025200,9.178025146484375,-0.10879764705896378,0.5876591205596924,3.178762197494507
1733851442912994000,9.187994140625,-0.02279234118759632,0.6046786308288574,3.2436130046844482
1733851442922962000,9.1979619140625,0.0869448110461235,0.5969738364219666,3.316162347793579
1733851442932931000,9.20793115234375,0.19855603575706482,0.5951030254364014,3.3823020458221436
1733851442942900000,9.21789990234375,0.24268275499343872,0.5909498333930969,3.4783270359039307
1733851442952868000,9.2278681640625,0.2199300080537796,0.51276034116745,3.5777080059051514
1733851442962837000,9.2378369140625,0.11303232610225677,0.36073803901672363,3.5800230503082275
1733851442972805000,9.24780517578125,-0.017240064218640327,0.1354791224002838,3.374178171157837
1733851442982774000,9.25777392578125,-0.10665809363126755,-0.031427305191755295,3.0079054832458496
1733851442992743000,9.267742919921876,-0.16257144510746002,-0.05220334231853485,2.5700111389160156
1733851443002710800,9.277710693359374,-0.16047713160514832,0.022043723613023758,2.1838948726654053
1733851443012680000,9.287679931640625,-0.1140386164188385,0.09596189111471176,1.9764493703842163
1733851443022647800,9.297647705078125,-0.10182828456163406,0.0997057631611824,1.9531333446502686
1733851443032617000,9.307616943359376,-0.14459677040576935,0.021686621010303497,2.032426595687866
1733851443042585900,9.3175859375,-0.16874657571315765,-0.06127537414431572,2.0636940002441406
1733851443052553700,9.3275537109375,-0.1365729719400406,-0.07195159792900085,1.9612704515457153
1733851443062522600,9.337522705078126,-0.07052338868379593,0.005316553171724081,1.7093933820724487
1733851443072490800,9.34749072265625,-0.003242058679461479,0.09701410681009293,1.376728892326355
1733851443082459600,9.357459716796875,0.017108220607042313,0.1823636293411255,1.023077130317688
1733851443092428800,9.3674287109375,0.015604032203555107,0.23112180829048157,0.6905490159988403
1733851443102396700,9.377396728515626,-0.001508375396952033,0.25923144817352295,0.3990545868873596
1733851443112365800,9.38736572265625,-0.004855520091950893,0.2751532793045044,0.15626995265483856
1733851443122333700,9.397333740234375,0.0033241123892366886,0.25573110580444336,-0.05932491645216942
1733851443132302800,9.407302734375,0.036588553339242935,0.2646138370037079,-0.2905774712562561
1733851443142271700,9.417271728515624,0.09321561455726624,0.2529955506324768,-0.5261167883872986
1733851443152239900,9.427239990234375,0.1498904824256897,0.23589321970939636,-0.7886229753494263
1733851443162208800,9.437208740234375,0.19225791096687317,0.2299831360578537,-1.059322714805603
1733851443172177000,9.447177001953126,0.19696587324142456,0.22365087270736694,-1.2975695133209229
1733851443182145800,9.457145751953124,0.1734144687652588,0.17562156915664673,-1.4823864698410034
1733851443192115000,9.467114990234375,0.16184447705745697,0.08272511512041092,-1.6334041357040405
1733851443202082800,9.477082763671875,0.16989974677562714,0.010880758985877037,-1.7805954217910767
1733851443212052000,9.487052001953124,0.20537419617176056,-0.028599830344319344,-1.952479362487793
1733851443222019600,9.49701953125,0.25075045228004456,-0.07536360621452332,-2.14275860786438
1733851443231988700,9.50698876953125,0.30157920718193054,-0.13094526529312134,-2.3391969203948975
1733851443241957600,9.51695751953125,0.3999316096305847,-0.13660794496536255,-2.537065267562866
1733851443251925800,9.52692578125,0.5021389126777649,-0.09654399007558823,-2.7271180152893066
1733851443261894700,9.536894775390625,0.5660044550895691,-0.08700268715620041,-2.89046573638916
1733851443271862800,9.54686279296875,0.533786952495575,-0.14833340048789978,-2.9817862510681152
1733851443281831700,9.556831787109376,0.4498758316040039,-0.222551167011261,-3.0438873767852783
1733851443291800800,9.56680078125,0.3760521411895752,-0.24158696830272675,-3.161835193634033
1733851443301768700,9.576768798828125,0.32564038038253784,-0.21842385828495026,-3.382404327392578
1733851443311737900,9.58673779296875,0.2800295352935791,-0.22145448625087738,-3.6965386867523193
1733851443321705700,9.596705810546876,0.2370876669883728,-0.30395838618278503,-3.9876554012298584
1733851443331675000,9.6066748046875,0.16740624606609344,-0.43210741877555847,-4.1987714767456055
1733851443341643800,9.616643798828125,0.10183761268854141,-0.5121971964836121,-4.395175457000732
1733851443351612000,9.62661181640625,0.12394587695598602,-0.5094231367111206,-4.647137641906738
1733851443361580800,9.636580810546874,0.24892082810401917,-0.4703739583492279,-4.968156337738037
1733851443371548700,9.646548583984375,0.46671128273010254,-0.46408262848854065,-5.217855930328369
1733851443381517600,9.656517578125,0.6722357273101807,-0.5055954456329346,-5.29226541519165
1733851443391487000,9.666487060546874,0.8443253040313721,-0.5708903074264526,-5.216238975524902
1733851443401454600,9.67645458984375,0.942736029624939,-0.612561821937561,-5.056102275848389
1733851443411423700,9.686423828125,0.9401386380195618,-0.6202841401100159,-4.8373823165893555
1733851443421391600,9.6963916015625,0.8588004112243652,-0.6198540329933167,-4.554760932922363
1733851443431360800,9.70636083984375,0.7586345672607422,-0.5793737173080444,-4.262613773345947
1733851443441329700,9.71632958984375,0.6478058099746704,-0.5297600626945496,-4.041026592254639
1733851443451297800,9.7262978515625,0.554448664188385,-0.4576919674873352,-3.8916351795196533
1733851443461266700,9.7362666015625,0.4965174198150635,-0.35179799795150757,-3.7510697841644287
1733851443471234800,9.74623486328125,0.4549228549003601,-0.25303536653518677,-3.567700147628784
1733851443481203700,9.75620361328125,0.4037363529205322,-0.1866520643234253,-3.369706153869629
1733851443491172900,9.7661728515625,0.35259971022605896,-0.1800016462802887,-3.172355890274048
1733851443501140700,9.776140625,0.32513025403022766,-0.2148991823196411,-2.988856792449951
1733851443511110000,9.78610986328125,0.30588793754577637,-0.2613714337348938,-2.821988344192505
1733851443521077800,9.796077880859375,0.2727920413017273,-0.3068374693393707,-2.6841037273406982
1733851443531047000,9.806046875,0.21027317643165588,-0.35816943645477295,-2.594850540161133
1733851443541015800,9.816015869140625,0.14086586236953735,-0.42856505513191223,-2.5351955890655518
1733851443550983700,9.825983642578125,0.10301755368709564,-0.5052559971809387,-2.5100059509277344
1733851443560952600,9.83595263671875,0.10774786025285721,-0.5681159496307373,-2.5373408794403076
1733851443570920700,9.845920654296876,0.14583754539489746,-0.6479389667510986,-2.6115424633026123
1733851443580889600,9.8558896484375,0.22751189768314362,-0.7069117426872253,-2.6899447441101074
1733851443590858800,9.865858642578125,0.33099547028541565,-0.7450402975082397,-2.7813684940338135
1733851443600826600,9.87582666015625,0.4288005828857422,-0.7975890040397644,-2.9090616703033447
1733851443610795800,9.885795654296874,0.5077981948852539,-0.8295426368713379,-3.0688581466674805
1733851443620764000,9.895763916015625,0.5621389150619507,-0.8389739990234375,-3.221290111541748
1733851443630732800,9.90573291015625,0.608485221862793,-0.829667329788208,-3.3325178623199463
1733851443640701700,9.91570166015625,0.6693722605705261,-0.8352218866348267,-3.426708698272705
1733851443650669800,9.925669921875,0.7898044586181641,-0.8428584933280945,-3.5422098636627197
1733851443660638700,9.935638671875,0.925942599773407,-0.9024038314819336,-3.6711885929107666
1733851443670606800,9.94560693359375,1.0157907009124756,-1.015450119972229,-3.8214805126190186
1733851443680575700,9.95557568359375,0.9310883283615112,-1.1590328216552734,-3.909188747406006
1733851443690545000,9.965544921875,0.6791781783103943,-1.25023353099823,-3.9454615116119385
1733851443700512800,9.9755126953125,0.4251118302345276,-1.310508131980896,-3.9660756587982178
1733851443710482000,9.98548193359375,0.2504531741142273,-1.355541467666626,-3.990567922592163
1733851443720449800,9.99544970703125,0.21830721199512482,-1.340749740600586,-3.970780372619629
1733851443730418700,10.005418701171875,0.3338685929775238,-1.2550114393234253,-3.8989577293395996
1733851443740387600,10.0153876953125,0.4624902307987213,-1.1065495014190674,-3.8257224559783936
1733851443750355700,10.025355712890626,0.4921911656856537,-0.9211418628692627,-3.778332471847534
1733851443760324600,10.03532470703125,0.38947704434394836,-0.7440440654754639,-3.678732395172119
1733851443770292700,10.045292724609375,0.19628334045410156,-0.6412658095359802,-3.532247304916382
1733851443780261600,10.05526171875,0.0025442317128181458,-0.580319881439209,-3.3621482849121094
1733851443790230800,10.065230712890624,-0.16343450546264648,-0.5383604764938354,-3.2102880477905273
1733851443800199000,10.075198974609375,-0.2615877091884613,-0.49090108275413513,-3.0726916790008545
1733851443810167800,10.085167724609375,-0.33915844559669495,-0.4370059370994568,-2.9019551277160645
1733851443820136000,10.095135986328126,-0.39889606833457947,-0.3575018048286438,-2.6900436878204346
1733851443830104800,10.105104736328125,-0.4820018410682678,-0.30352142453193665,-2.4620819091796875
1733851443840073700,10.11507373046875,-0.5472636818885803,-0.22993028163909912,-2.2214956283569336
1733851443850041900,10.125041748046876,-0.5516602993011475,-0.1228252425789833,-1.9677766561508179
1733851443860010800,10.1350107421875,-0.49471816420555115,-0.0023486327845603228,-1.7155436277389526
1733851443869978600,10.144978515625,-0.40655410289764404,0.11700465530157089,-1.482097864151001
1733851443879947800,10.15494775390625,-0.31280845403671265,0.20959050953388214,-1.2591439485549927
1733851443889915600,10.16491552734375,-0.25727710127830505,0.2994905710220337,-1.0592350959777832
1733851443899884800,10.174884765625,-0.22816210985183716,0.3711783289909363,-0.8428372740745544
1733851443909853700,10.184853759765625,-0.19164076447486877,0.4265834391117096,-0.6007304191589355
1733851443919821800,10.19482177734375,-0.14547406136989594,0.4550779163837433,-0.3590081036090851
1733851443929790700,10.204790771484374,-0.12951809167861938,0.4440171420574188,-0.11551069468259811
1733851443939758800,10.2147587890625,-0.1739524006843567,0.43111997842788696,0.14383991062641144
1733851443949727700,10.224727783203125,-0.23051206767559052,0.4306234121322632,0.4071366786956787
1733851443959697000,10.23469677734375,-0.2594054937362671,0.43451881408691406,0.6512273550033569
1733851443969664800,10.244664794921874,-0.2826993763446808,0.4592586159706116,0.86855548620224
1733851443979634000,10.254634033203125,-0.3170863687992096,0.5339884757995605,1.0520784854888916
1733851443989601800,10.264601806640625,-0.36002999544143677,0.6219168305397034,1.2042217254638672
1733851443999571000,10.274571044921874,-0.39531901478767395,0.6955002546310425,1.3632588386535645
1733851444009539800,10.284539794921875,-0.4120773673057556,0.7530481815338135,1.5453789234161377
1733851444019508000,10.294508056640625,-0.38536587357521057,0.8388792276382446,1.725652813911438
1733851444029476900,10.304476806640626,-0.3162958025932312,0.9342483282089233,1.8992418050765991
1733851444039445000,10.314445068359374,-0.25346383452415466,1.0017255544662476,2.0514631271362305
1733851444049414000,10.324413818359375,-0.22482356429100037,1.0588489770889282,2.2086453437805176
1733851444059383000,10.334383056640625,-0.22474633157253265,1.1093182563781738,2.383898973464966
1733851444069351000,10.344350830078126,-0.24613341689109802,1.1785067319869995,2.5614709854125977
1733851444079320000,10.354320068359375,-0.2969087064266205,1.2311654090881348,2.7428338527679443
1733851444089288000,10.364287841796875,-0.3595927953720093,1.2373148202896118,2.941361904144287
1733851444099257000,10.374257080078126,-0.41618016362190247,1.2500629425048828,3.161820888519287
1733851444109226000,10.38422607421875,-0.4570545256137848,1.3034236431121826,3.3622565269470215
1733851444119194000,10.394194091796875,-0.5041186809539795,1.3570903539657593,3.5286426544189453
1733851444129163000,10.4041630859375,-0.5551352500915527,1.3952488899230957,3.679325580596924
1733851444139131000,10.414130859375,-0.6112840175628662,1.4094352722167969,3.7887189388275146
1733851444149099800,10.424099853515624,-0.6606833338737488,1.407881498336792,3.8722198009490967
1733851444159069000,10.43406884765625,-0.6975154280662537,1.382988691329956,3.935615062713623
1733851444169036800,10.444036865234375,-0.7134828567504883,1.3823355436325073,3.9662344455718994
1733851444179006000,10.454005859375,-0.7129529118537903,1.3777693510055542,3.9706289768218994
1733851444188973800,10.463973876953125,-0.6957391500473022,1.3545225858688354,3.958773612976074
1733851444198943000,10.47394287109375,-0.6472941040992737,1.3413615226745605,3.961651086807251
1733851444208910800,10.483910888671875,-0.5802720785140991,1.3272813558578491,3.997185707092285
1733851444218880000,10.4938798828125,-0.4900497794151306,1.2557337284088135,4.040822982788086
1733851444228849000,10.503848876953125,-0.37277454137802124,1.1321606636047363,4.035209655761719
1733851444238817000,10.513817138671875,-0.2347053587436676,0.9806774258613586,3.9499573707580566
1733851444248786000,10.523785888671876,-0.09382770955562592,0.8556991219520569,3.782836437225342
1733851444258754000,10.533754150390624,0.04645856097340584,0.7672725915908813,3.499563217163086
1733851444268723000,10.543722900390625,0.21467989683151245,0.7138515114784241,3.0958404541015625
1733851444278692000,10.553692138671876,0.37054112553596497,0.6717461347579956,2.6231353282928467
1733851444288660000,10.563659912109374,0.4566134512424469,0.6218204498291016,2.1896111965179443
1733851444298629000,10.573629150390625,0.4534094035625458,0.5306394100189209,1.8405539989471436
1733851444308596700,10.5835966796875,0.3536243736743927,0.4018322825431824,1.5373573303222656
1733851444318566000,10.59356591796875,0.21626250445842743,0.2841019034385681,1.307657241821289
1733851444328534800,10.60353466796875,0.05913345143198967,0.22476650774478912,1.161523699760437
1733851444338503000,10.6135029296875,-0.06251654773950577,0.18266326189041138,1.091491937637329
1733851444348471800,10.623471923828125,-0.1358277052640915,0.1663254201412201,1.0418184995651245
1733851444358440000,10.63343994140625,-0.16502287983894348,0.16565856337547302,0.9747028350830078
1733851444368408800,10.643408935546875,-0.1740524172782898,0.18009062111377716,0.9097249507904053
1733851444378378000,10.6533779296875,-0.1572103202342987,0.23535281419754028,0.862080454826355
1733851444388345900,10.663345947265626,-0.11564131826162338,0.29234859347343445,0.831700325012207
1733851444398315000,10.67331494140625,-0.09278926253318787,0.32165616750717163,0.8322774171829224
1733851444408283000,10.683282958984375,-0.11204750090837479,0.2999019920825958,0.8821232318878174
1733851444418252000,10.693251953125,-0.14947183430194855,0.2526490092277527,0.9984106421470642
1733851444428221000,10.703220947265624,-0.17631690204143524,0.22111570835113525,1.1750813722610474
1733851444438189000,10.71318896484375,-0.18771976232528687,0.2193034291267395,1.3857308626174927
1733851444448158000,10.723157958984375,-0.20437008142471313,0.25083300471305847,1.6094181537628174
1733851444458125800,10.733125732421875,-0.21933358907699585,0.2923277020454407,1.8285959959030151
1733851444468094700,10.7430947265625,-0.22104351222515106,0.32978692650794983,2.0405473709106445
1733851444478063900,10.75306396484375,-0.20901109278202057,0.3415575623512268,2.2347612380981445
1733851444488031700,10.76303173828125,-0.17516981065273285,0.3417096436023712,2.3913474082946777
1733851444498001000,10.7730009765625,-0.14629821479320526,0.3722347915172577,2.515334129333496
1733851444507969000,10.782968994140624,-0.1383407860994339,0.38771551847457886,2.618772268295288
1733851444517938000,10.79293798828125,-0.14082790911197662,0.36342695355415344,2.7109005451202393
1733851444527906000,10.802906005859375,-0.1175365075469017,0.3561455309391022,2.777942419052124
1733851444537875000,10.812875,-0.06641020625829697,0.36665862798690796,2.8201191425323486
1733851444547843800,10.82284375,0.0023042289540171623,0.37127217650413513,2.903702974319458
1733851444557812000,10.83281201171875,0.0849921852350235,0.3872540593147278,3.0571348667144775
1733851444567780900,10.84278076171875,0.16088953614234924,0.43877315521240234,3.2411813735961914
1733851444577749000,10.8527490234375,0.2242373526096344,0.5665953159332275,3.3909828662872314
1733851444587718000,10.8627177734375,0.26798880100250244,0.7019169330596924,3.4652159214019775
1733851444597687000,10.87268701171875,0.27083972096443176,0.8082566857337952,3.4799695014953613
1733851444607655200,10.8826552734375,0.24192433059215546,0.8744672536849976,3.503516912460327
1733851444617624000,10.8926240234375,0.18060478568077087,0.8529931306838989,3.5344858169555664
1733851444627592000,10.902592041015625,0.10468564927577972,0.7861935496330261,3.522825002670288
1733851444637560800,10.912560791015625,0.0374903678894043,0.7220187783241272,3.5136430263519287
1733851444647529700,10.92252978515625,-0.016231190413236618,0.6834560036659241,3.513003349304199
1733851444657497900,10.932497802734375,-0.016526801511645317,0.6528446078300476,3.551353931427002
1733851444667466800,10.942466796875,0.03901328146457672,0.6466262340545654,3.6439707279205322
1733851444677435000,10.952434814453126,0.13296374678611755,0.6004185080528259,3.724607229232788
1733851444687404000,10.962404052734374,0.19586454331874847,0.5073387026786804,3.7075815200805664
1733851444697373000,10.972373046875,0.19144022464752197,0.4132694602012634,3.6064631938934326
1733851444707341000,10.982341064453125,0.13978144526481628,0.3405514657497406,3.412763833999634
1733851444717310000,10.99231005859375,0.06382249295711517,0.30414658784866333,3.1821508407592773
1733851444727278000,11.002278076171875,-0.005277625750750303,0.3010939955711365,3.057238817214966
1733851444737247000,11.0122470703125,-0.03182241693139076,0.2518311142921448,3.0260932445526123
1733851444747216000,11.0222158203125,-0.015921730548143387,0.2004784643650055,3.011251926422119
1733851444757184000,11.03218408203125,0.035833343863487244,0.14481014013290405,2.962371826171875
1733851444767153200,11.042153076171875,0.11393267661333084,0.0980800986289978,2.8135573863983154
1733851444777120800,11.052120849609375,0.18195566534996033,0.06895923614501953,2.5483977794647217
1733851444787090000,11.06208984375,0.21908199787139893,0.08257882297039032,2.219405174255371
1733851444797058800,11.072058837890625,0.21823404729366302,0.09744326025247574,1.985866665840149
1733851444807027000,11.08202685546875,0.2273350954055786,0.04103194549679756,1.7780251502990723
1733851444816995800,11.091995849609376,0.2518758773803711,-0.008782482706010342,1.495927333831787
1733851444826964000,11.1019638671875,0.2801683843135834,0.025651907548308372,1.1148309707641602
1733851444836932900,11.111932861328125,0.30269819498062134,0.09347489476203918,0.7028256058692932
1733851444846901000,11.12190087890625,0.2837458848953247,0.1267908215522766,0.31780895590782166
1733851444856870000,11.131869873046876,0.23790967464447021,0.15342669188976288,-0.007690848782658577
1733851444866839000,11.141839111328125,0.17004184424877167,0.1828671246767044,-0.25644946098327637
1733851444876807000,11.151806884765625,0.09126152843236923,0.16078099608421326,-0.49020683765411377
1733851444886776000,11.161776123046875,0.06846440583467484,0.12176099419593811,-0.736282229423523
1733851444896744000,11.171743896484376,0.0977645069360733,0.10562117397785187,-1.015506386756897
1733851444906713000,11.181713134765625,0.11442111432552338,0.09543435275554657,-1.3291761875152588
1733851444916682000,11.191681884765625,0.14354225993156433,0.09158501774072647,-1.63096022605896
1733851444926650000,11.201650146484376,0.1828664392232895,0.09121140837669373,-1.8984956741333008
1733851444936619000,11.211618896484374,0.22383278608322144,0.05514129251241684,-2.1152498722076416
1733851444946587000,11.2215869140625,0.2412859946489334,-0.03256900608539581,-2.293445348739624
1733851444956555800,11.2315556640625,0.21635667979717255,-0.1801944077014923,-2.453256607055664
1733851444966525000,11.24152490234375,0.14633551239967346,-0.350643128156662,-2.6095480918884277
1733851444976492800,11.251492919921875,0.04868378862738609,-0.4991273880004883,-2.780637741088867
1733851444986462000,11.2614619140625,-0.019337626174092293,-0.5603116750717163,-2.973329782485962
1733851444996429800,11.271429931640625,-0.022895075380802155,-0.5398884415626526,-3.1439008712768555
1733851445006399700,11.281399658203124,0.007069605402648449,-0.5223500728607178,-3.274015188217163
1733851445016369000,11.291368896484375,0.0711899995803833,-0.5449272990226746,-3.3663928508758545
1733851445026337000,11.3013369140625,0.15014010667800903,-0.6010503172874451,-3.43072247505188
1733851445036306000,11.311305908203124,0.2626136243343353,-0.6457892656326294,-3.510568857192993
1733851445046273800,11.321273681640625,0.4096603989601135,-0.677696168422699,-3.5861923694610596
1733851445056242700,11.33124267578125,0.5582836866378784,-0.7127588391304016,-3.6333634853363037
1733851445066210800,11.3412109375,0.6298790574073792,-0.7585323452949524,-3.628598928451538
1733851445076179700,11.3511796875,0.6122534871101379,-0.7907177209854126,-3.5820186138153076
1733851445086148900,11.36114892578125,0.547330379486084,-0.766522228717804,-3.51728892326355
1733851445096116700,11.37111669921875,0.46802011132240295,-0.6849865913391113,-3.502831220626831
1733851445106086000,11.3810859375,0.43423476815223694,-0.6125794053077698,-3.5573129653930664
1733851445116053800,11.3910537109375,0.44563814997673035,-0.5970579981803894,-3.5985982418060303
1733851445126023000,11.40102294921875,0.4510617256164551,-0.6563113927841187,-3.5710949897766113
1733851445135991800,11.41099169921875,0.44936129450798035,-0.7011012434959412,-3.4828453063964844
1733851445145960000,11.4209599609375,0.45138484239578247,-0.6948568820953369,-3.362290859222412
1733851445155928800,11.4309287109375,0.45113956928253174,-0.6661240458488464,-3.2354516983032227
1733851445165897000,11.44089697265625,0.42478224635124207,-0.6192134618759155,-3.1030147075653076
1733851445175865900,11.450865966796876,0.387687087059021,-0.528832733631134,-2.987776756286621
1733851445185835000,11.4608349609375,0.359477162361145,-0.40840399265289307,-2.8738834857940674
1733851445195802600,11.470802734375,0.3396182358264923,-0.26609212160110474,-2.773480176925659
1733851445205772000,11.48077197265625,0.3496956527233124,-0.10579840838909149,-2.685267925262451
1733851445215739600,11.49073974609375,0.3667744994163513,0.034396249800920486,-2.6083426475524902
1733851445225708800,11.500708740234375,0.4004877209663391,0.16571079194545746,-2.5504016876220703
1733851445235677700,11.510677734375,0.4504646062850952,0.25477221608161926,-2.476496458053589
1733851445245645800,11.520645751953126,0.48926669359207153,0.3223881125450134,-2.3763277530670166
1733851445255614700,11.53061474609375,0.5286412835121155,0.37057214975357056,-2.2857515811920166
1733851445265582800,11.540582763671875,0.5487969517707825,0.39195653796195984,-2.1969573497772217
1733851445275551700,11.5505517578125,0.5303130149841309,0.36839795112609863,-2.0756595134735107
1733851445285521000,11.56052099609375,0.4810743033885956,0.2823396623134613,-1.911776065826416
1733851445295488800,11.57048876953125,0.4254845380783081,0.15520517528057098,-1.7529826164245605
1733851445305458000,11.5804580078125,0.325644850730896,0.04550798237323761,-1.6098285913467407
1733851445315425800,11.59042578125,0.1613088846206665,-0.04768507927656174,-1.4741616249084473
1733851445325395000,11.60039501953125,0.043853480368852615,-0.11378347128629684,-1.3562971353530884
1733851445335362800,11.61036279296875,0.010541597381234169,-0.17737576365470886,-1.3444678783416748
1733851445345332000,11.62033203125,0.04513125494122505,-0.27767133712768555,-1.4283182621002197
1733851445355300900,11.63030078125,0.10584226995706558,-0.3806712031364441,-1.5180039405822754
1733851445365268700,11.640268798828124,0.18260066211223602,-0.5274122357368469,-1.6035144329071045
1733851445375237600,11.650237548828125,0.25929996371269226,-0.6607764363288879,-1.6336582899093628
1733851445385205800,11.660205810546875,0.3146626055240631,-0.7053592801094055,-1.644083023071289
1733851445395174700,11.670174560546876,0.3522917330265045,-0.6609023213386536,-1.6398855447769165
1733851445405143800,11.680143798828125,0.35627979040145874,-0.5819982886314392,-1.6577973365783691
1733851445415111700,11.690111572265625,0.337697833776474,-0.4550265073776245,-1.772050142288208
1733851445425080800,11.700080810546876,0.30519726872444153,-0.35402506589889526,-1.991578459739685
1733851445435048700,11.710048583984374,0.24398131668567657,-0.3078533113002777,-2.2999210357666016
1733851445445017900,11.720017822265625,0.16881267726421356,-0.3295988142490387,-2.6269876956939697
1733851445454986800,11.72998681640625,0.10304325819015503,-0.3907867968082428,-2.898981809616089
1733851445464955000,11.739954833984376,0.045510753989219666,-0.4659922420978546,-3.076011896133423
1733851445474923800,11.749923828125,-0.026833750307559967,-0.5617102384567261,-3.202293634414673
1733851445484892000,11.759891845703125,-0.07610981166362762,-0.6403495073318481,-3.2982702255249023
1733851445494860800,11.76986083984375,-0.1022772341966629,-0.6760297417640686,-3.334838628768921
1733851445504828700,11.77982861328125,-0.1486329287290573,-0.7330812215805054,-3.3420019149780273
1733851445514797600,11.789797607421875,-0.22379983961582184,-0.8444780707359314,-3.3015084266662598
1733851445524767000,11.79976708984375,-0.30123189091682434,-0.965812623500824,-3.234123706817627
1733851445534734800,11.80973486328125,-0.41926294565200806,-0.9986238479614258,-3.1336679458618164
1733851445544703700,11.819703857421874,-0.5426560044288635,-1.0502440929412842,-2.9864227771759033
1733851445554671900,11.829671875,-0.609343409538269,-1.0939055681228638,-2.816260576248169
1733851445564640800,11.839640869140625,-0.5805644989013672,-1.1248408555984497,-2.7182059288024902
1733851445574609700,11.849609619140624,-0.4960736334323883,-0.9858970642089844,-2.672266721725464
1733851445584577800,11.859577880859375,-0.35643741488456726,-0.7856771349906921,-2.5698623657226562
1733851445594546700,11.869546630859375,-0.2258426398038864,-0.5719866752624512,-2.393550157546997
1733851445604514800,11.879514892578126,-0.1549181193113327,-0.4161200225353241,-2.185535430908203
1733851445614483700,11.889483642578124,-0.1557101458311081,-0.2859271168708801,-1.9900126457214355
1733851445624452900,11.899452880859375,-0.20827651023864746,-0.1895451843738556,-1.8115135431289673
1733851445634421000,11.9094208984375,-0.24114364385604858,-0.15103080868721008,-1.7070566415786743
1733851445644390000,11.919389892578126,-0.24164383113384247,-0.13778263330459595,-1.6308631896972656
1733851445654358000,11.92935791015625,-0.24300949275493622,-0.14986060559749603,-1.5059025287628174
1733851445664327000,11.939326904296875,-0.22149138152599335,-0.10117804259061813,-1.360257625579834
1733851445674294800,11.949294677734375,-0.15802611410617828,-0.013766168616712093,-1.2261408567428589
1733851445684263700,11.959263671875,-0.12491662055253983,0.05315456911921501,-1.0692507028579712
1733851445694232600,11.969232666015625,-0.14578968286514282,0.10198549181222916,-0.8783361911773682
1733851445704200700,11.97920068359375,-0.18452298641204834,0.156172513961792,-0.6919995546340942
1733851445714169900,11.989169921875,-0.2504434287548065,0.21049940586090088,-0.5184463858604431
1733851445724137700,11.9991376953125,-0.307536244392395,0.29612767696380615,-0.37259814143180847
1733851445734107000,12.00910693359375,-0.31791937351226807,0.39672085642814636,-0.2577762305736542
1733851445744075800,12.01907568359375,-0.29351937770843506,0.5128551125526428,-0.13770881295204163
1733851445754044000,12.0290439453125,-0.2620714604854584,0.6391616463661194,-0.010288532823324203
1733851445764012800,12.0390126953125,-0.23805028200149536,0.7472912073135376,0.11329396814107895
1733851445773981000,12.04898095703125,-0.2096511423587799,0.8390733599662781,0.25699707865715027
1733851445783949800,12.05894970703125,-0.17660193145275116,0.9408196806907654,0.4147477447986603
1733851445793919000,12.0689189453125,-0.1466970294713974,1.0479053258895874,0.5897755026817322
1733851445803886800,12.078886962890625,-0.13716159760951996,1.1373525857925415,0.7901982069015503
1733851445813856000,12.08885595703125,-0.1452147364616394,1.1957894563674927,0.9986957311630249
1733851445823823600,12.09882373046875,-0.15116743743419647,1.252899408340454,1.1932377815246582
1733851445833793000,12.10879296875,-0.12908902764320374,1.3199881315231323,1.373255968093872
1733851445843762000,12.118761962890625,-0.08434886485338211,1.3763184547424316,1.5392905473709106
1733851445853729800,12.128729736328125,-0.03561355173587799,1.3979662656784058,1.7195192575454712
1733851445863698700,12.13869873046875,0.008095069788396358,1.3868368864059448,1.9287424087524414
1733851445873666800,12.148666748046875,0.04050787165760994,1.3622260093688965,2.152127742767334
1733851445883635700,12.1586357421875,0.0547131784260273,1.3344048261642456,2.360074758529663
1733851445893603800,12.168603759765626,0.0755004808306694,1.3119099140167236,2.542471408843994
1733851445903572700,12.17857275390625,0.11026459187269211,1.2861354351043701,2.712859630584717
1733851445913542000,12.1885419921875,0.1268390417098999,1.2636224031448364,2.8744428157806396
1733851445923509800,12.198509765625,0.13089555501937866,1.228980541229248,3.0273799896240234
1733851445933479000,12.20847900390625,0.12297210842370987,1.2017385959625244,3.1986191272735596
1733851445943446800,12.21844677734375,0.11770518124103546,1.1877166032791138,3.355381488800049
1733851445953416000,12.228416015625,0.11161772906780243,1.1836785078048706,3.4849472045898438
1733851445963384800,12.238384765625,0.12310444563627243,1.1491397619247437,3.5857043266296387
1733851445973353000,12.24835302734375,0.11242970079183578,1.1457551717758179,3.666924238204956
1733851445983321900,12.25832177734375,0.09813175350427628,1.1671258211135864,3.7029221057891846
1733851445993289700,12.268289794921875,0.12116862833499908,1.1910138130187988,3.712430238723755
1733851446003258600,12.278258544921876,0.17834271490573883,1.1317722797393799,3.7172203063964844
1733851446013226800,12.288226806640624,0.2753659188747406,0.9730297327041626,3.6900742053985596
1733851446023195000,12.29819482421875,0.4058435559272766,0.713826060295105,3.55865740776062
1733851446033163800,12.308163818359375,0.5265524387359619,0.4927394688129425,3.335861921310425
1733851446043131600,12.318131591796876,0.6255525350570679,0.3784913122653961,3.124396562576294
1733851446053100500,12.3281005859375,0.7342305183410645,0.27735990285873413,3.0130856037139893
1733851446063068700,12.338068603515625,0.8299347758293152,0.1521449089050293,3.0481882095336914
1733851446073037600,12.34803759765625,0.8647598624229431,0.00951318722218275,3.1014926433563232
1733851446083006700,12.3580068359375,0.8262673616409302,-0.1201993003487587,3.0468249320983887
1733851446092974600,12.367974609375,0.7161794900894165,-0.1961585134267807,2.8491806983947754
1733851446102943700,12.37794384765625,0.4907307028770447,-0.22004251182079315,2.499903440475464
1733851446112911600,12.38791162109375,0.19426412880420685,-0.16811567544937134,2.0601158142089844
1733851446122880800,12.397880859375,-0.11774458736181259,-0.0926099419593811,1.6346043348312378
1733851446132849700,12.407849609375,-0.32695186138153076,-0.011949453502893448,1.303511381149292
1733851446142817800,12.41781787109375,-0.3923661708831787,0.0795244425535202,1.0624842643737793
1733851446152786700,12.42778662109375,-0.34788528084754944,0.24495016038417816,0.9154039621353149
1733851446162754800,12.4377548828125,-0.2290467619895935,0.32261529564857483,0.7063164710998535
1733851446172723700,12.4477236328125,-0.03334224969148636,0.3727557063102722,0.4554986357688904
1733851446182691600,12.457691650390625,0.15898701548576355,0.3914976716041565,0.2672267556190491
1733851446192660500,12.467660400390624,0.2926081717014313,0.3305134177207947,0.1725844293832779
