time,seconds_elapsed,z,y,x
1733851216160725000,0.01172509765625,-2.4376737221360205,-0.9045306731551885,-2.810449926935136
1733851216170693000,0.021693115234375,-2.568468970520794,-0.7348118198752402,-2.23925718216002
1733851216180662300,0.031662353515625,-2.993357055351138,-0.7762363016754389,-1.4450838033862412
1733851216190631200,0.041631103515625,-3.2055583750516172,-0.7394909176021814,-0.41155002596005796
1733851216200600000,0.05160009765625,-3.6872792309552427,-0.861945915403962,0.509277994262427
1733851216210569200,0.0615693359375,-4.673954518833757,-0.47891047465801234,1.6062996167369186
1733851216220537000,0.071537109375,-5.236373297783732,-0.7802928835898637,1.543832054647058
1733851216230506200,0.08150634765625,-5.485920305538177,-2.3503882373929024,-0.21796382874995468
1733851216240475100,0.09147509765625,-6.267233764347433,-3.5989082890629764,-2.4065014620199796
1733851216250444300,0.1014443359375,-7.596756274968385,-3.0772534821778534,-3.690675303134322
1733851216260412200,0.111412109375,-8.68244314121902,-1.5565046353459357,-4.13688966910988
1733851216270381300,0.12138134765625,-9.125766169667244,-0.7236287470817565,-4.236722792997956
1733851216280350200,0.13135009765625,-8.927115236413478,-0.7738678189784288,-4.301171592032909
1733851216290319000,0.141319091796875,-8.54719120568633,-0.7416437117218971,-4.145808596363663
1733851216300287200,0.151287353515625,-8.343481819999218,-0.03423193994760513,-3.3077275406718254
1733851216310256000,0.161256103515625,-8.145330068439245,1.0649714104801415,-1.978394415143132
1733851216320225300,0.171225341796875,-8.64559195868373,1.7362375176399945,-0.9422431486949324
1733851216330194200,0.181194091796875,-9.621812488043307,2.444402153608203,-0.2288410504646599
1733851216340163300,0.191163330078125,-10.176336714351176,3.3435318445026874,-0.10291647685617208
1733851216350131000,0.201130859375,-9.757483525770903,3.953675082179904,-0.6922331265386193
1733851216360100000,0.21110009765625,-8.925477406078576,3.9207115547329185,-1.3669608453944324
1733851216370069000,0.221069091796875,-8.60303058180809,3.7663860854178663,-1.5415221702694892
1733851216380038100,0.2310380859375,-8.584020176389814,3.885555485677719,0.48369993742424994
1733851216390006000,0.241006103515625,-8.301804824742675,4.030211209371686,0.924316592990607
1733851216399975200,0.25097509765625,-6.802761613762378,4.509741277232766,-0.3325171135164797
1733851216409944000,0.260944091796875,-5.184987393939495,4.205245120194554,-1.645304324044287
1733851216419913000,0.270912841796875,-3.605492928150296,3.64688818385601,-1.9449577172264456
1733851216429881000,0.280881103515625,-2.7444045063585043,3.997831034770608,-1.665571159264445
1733851216439850000,0.29085009765625,-2.849878558743,4.735234624704718,-1.2969208022236822
1733851216449819100,0.300819091796875,-2.5094559327989816,5.028479319888353,-0.9792284790039062
1733851216459788000,0.3107880859375,-1.8162018657147883,4.537470411157607,-0.3946826239198446
1733851216469757200,0.320757080078125,-1.743486173593998,3.8810441457331177,-0.209995918610692
1733851216479725000,0.33072509765625,-2.700410466331243,3.4408833807080983,-0.7971890733331441
1733851216489694200,0.340694091796875,-3.8729467639952895,3.102271603578329,-0.9049304861277341
1733851216499663000,0.3506630859375,-3.9317508351415396,3.0907839948803186,-0.1519780294060707
1733851216509632000,0.360632080078125,-2.7905501714617014,3.510351761470735,0.32109774774909017
1733851216519600000,0.37060009765625,-1.5317892962843178,3.4737013622045514,0.5886714105814695
1733851216529569000,0.380569091796875,-1.423346457222104,2.851551460391283,0.41996553373634815
1733851216539538200,0.3905380859375,-2.680254398009181,2.2477165290780365,-0.5506891781896353
1733851216549507000,0.400507080078125,-4.606821595281362,1.6694008005551992,-1.6528046166718005
1733851216559475200,0.41047509765625,-6.407010483828187,1.4451016313038765,-1.89883689430356
1733851216569444000,0.420444091796875,-7.533370721250772,1.5842288008347152,-1.668383878597617
1733851216579413200,0.430413330078125,-7.771789016747475,1.663402290792763,-1.5239555339187383
1733851216589382100,0.440382080078125,-6.796552822250128,2.1322005367591976,-0.9663339261174202
1733851216599351000,0.45035107421875,-4.533419674462079,2.4382082674041388,-0.4808288754999637
1733851216609319200,0.460319091796875,-2.4649793699517843,2.348607783716917,0.07332417940795422
1733851216619288300,0.470288330078125,-1.749737342943251,2.247577851259708,0.6912953342318534
1733851216629257200,0.48025732421875,-1.932231798905134,2.2286866883069276,0.7521855640023947
1733851216639226000,0.49022607421875,-2.5024995377898214,2.177409505534172,0.23432430418133735
1733851216649194200,0.5001943359375,-3.1505285617470737,2.3611562996447084,-0.647839638864994
1733851216659163100,0.5101630859375,-3.4321523772418496,2.7302947324633595,-1.2366554263532161
1733851216669132300,0.52013232421875,-2.332048278582096,2.8767887775003906,-1.2500205193608998
1733851216679101200,0.53010107421875,-0.81498893391788,2.931985764065385,-0.25258418349325656
1733851216689069000,0.540069091796875,-0.1495369198642671,3.2521956230640408,0.6664402944386005
1733851216699038000,0.550037841796875,-0.5904150393784046,3.4026018731087446,1.1710966202497481
1733851216709007000,0.560007080078125,-1.441377203953266,3.488416700777411,1.4334633620887993
1733851216718976000,0.56997607421875,-2.3488608816951513,3.422513611280918,1.804721271279454
1733851216728945000,0.57994482421875,-3.599692717438936,2.9805934353679415,2.367184473893046
1733851216738913000,0.5899130859375,-4.9595291177809235,2.734326179936528,2.648770879986882
1733851216748882200,0.599882080078125,-5.181924499237537,2.958071222436428,2.7299194694101807
1733851216758851000,0.60985107421875,-4.04841526684314,3.2391374040484426,2.713158888745308
1733851216768820000,0.619820068359375,-2.3163661408036944,3.3163609289824962,2.4258491365686057
1733851216778788000,0.6297880859375,-1.0619956095397471,3.3425486786842344,2.065117589828372
1733851216788757000,0.639757080078125,-1.292037121835351,3.2426901280939577,1.5382657988220452
1733851216798726400,0.649726318359375,-2.8017326597332954,2.572760822495818,0.8718366102993488
1733851216808695300,0.6596953125,-4.177901186195015,2.0229969424575565,0.05335194322019815
1733851216818663400,0.669663330078125,-4.603725967353582,1.8660159901976585,-0.6804094908192754
1733851216828632300,0.67963232421875,-4.543340179973841,1.6831126611739395,-1.4515832484081386
1733851216838601500,0.6896015625,-3.925312911048531,1.1879261744976044,-1.9183312838464974
1733851216848570400,0.6995703125,-3.0957986081719397,1.0014946713477373,-1.8200199626982212
1733851216858538500,0.70953857421875,-2.8263743490368127,0.943331236192584,-1.657130370916426
1733851216868507400,0.71950732421875,-2.962212560024857,0.9125508980035781,-1.7672081177040933
1733851216878476300,0.729476318359375,-2.9833360120743513,1.1167156262427569,-2.0531620713576673
1733851216888445400,0.739445556640625,-2.8439187735557554,1.116886891156435,-2.67010037600249
1733851216898414300,0.749414306640625,-2.6604373523831364,0.9631061962425708,-3.2631811274588105
1733851216908382500,0.759382568359375,-2.3071885626137254,0.7724316486954689,-3.8078736955821513
1733851216918351400,0.769351318359375,-1.401464295759797,0.5736679027169943,-3.4262036979705095
1733851216928320500,0.779320556640625,-0.5691682532101869,0.7844388973534107,-1.9981654296703635
1733851216938289400,0.789289306640625,-0.2728811215907335,1.3150447801962495,-0.722328916529566
1733851216948257500,0.799257568359375,-0.08799450979530811,1.8098720781713724,-0.09856427299603819
1733851216958226400,0.809226318359375,-0.18278116394877433,1.9415493700876831,0.21599033671990037
1733851216968195300,0.8191953125,-0.5059750071942806,1.934358289539814,0.44878918489962816
1733851216978164500,0.82916455078125,-0.26759470562040805,2.212309554001689,0.9028421355463564
1733851216988132400,0.83913232421875,1.0517974561303853,2.347356030090153,1.2218150000959633
1733851216998101500,0.8491015625,3.12729849280715,1.9235963647678493,1.1612804518952966
1733851217008070400,0.8590703125,5.034475929954648,1.3592588927149771,0.9872508958093822
1733851217018039600,0.86903955078125,5.3224768792659045,0.915445742662251,1.0561018753260374
1733851217028007200,0.879007080078125,3.175234548458457,0.8443219959080219,0.8158861750185489
1733851217037976300,0.888976318359375,0.4756476734697819,0.859308844898641,-0.03134790894389152
1733851217047945200,0.8989453125,-0.9121411481589078,0.6767866241469979,-0.9132811119742691
1733851217057914400,0.908914306640625,-0.6452922924697398,0.31773265523016453,-1.3912225954696535
1733851217067882200,0.91888232421875,0.42703064981698985,0.0012727964147925376,-1.3941023886896668
1733851217077851400,0.928851318359375,1.1075894859790802,-0.1175944060280919,-1.1443113430462777
1733851217087820300,0.9388203125,0.8407973289132118,-0.15711685359925032,-0.9578834931582212
1733851217097789200,0.9487890625,0.44620238327682016,-0.39578649350851774,-1.0025161233499646
1733851217107758300,0.95875830078125,0.6145183840215206,-0.5922390399351716,-1.0850886080965398
1733851217117726200,0.968726318359375,0.824300952142477,-0.5975570200875401,-1.35149045067057
1733851217127695400,0.9786953125,0.7098410447478294,-0.2999199351638555,-1.354149002355337
1733851217137664300,0.988664306640625,0.32909809885323044,0.1522878260076046,-0.9222938549913465
1733851217147633400,0.99863330078125,0.11343173339068889,0.6472346587091684,-0.10918152860030532
1733851217157601300,1.008601318359375,0.24384265863299368,0.896250920587778,0.6829308259904384
1733851217167570400,1.0185703125,0.4301315384417772,0.595737111184001,0.9621198155537247
1733851217177539300,1.028539306640625,0.5376864887535572,0.3140370155826211,0.9678042909309268
1733851217187508200,1.03850830078125,0.9291419673204422,0.3553700197070837,1.209114362346381
1733851217197476400,1.048476318359375,1.2681307610690593,0.46404082230627536,1.287076284557581
1733851217207445500,1.058445556640625,1.3544330799937248,0.45195758580267426,1.026860437142104
1733851217217414400,1.068414306640625,1.4222551548540592,0.5874515133976936,1.1032819980435074
1733851217227383300,1.07838330078125,1.4274655829787253,0.734748983772099,1.2298995223522187
1733851217237352400,1.0883525390625,1.1175111605346202,0.523958407652378,1.0632049122642726
1733851217247320300,1.0983203125,0.7071569202303886,0.26503946817964313,0.7223979631777853
1733851217257289500,1.10828955078125,0.48336453145742414,0.01656681165844202,0.38788141947239635
1733851217267258400,1.11825830078125,0.31729543285667894,-0.0279068285793066,0.19405808903817087
1733851217277227500,1.1282275390625,0.16695640282928942,0.09452654191255569,-0.08193564814776182
1733851217287195400,1.1381953125,-0.06563771655857563,0.1884030954837799,-0.39904184204265475
1733851217297164500,1.14816455078125,-0.13359715406298636,0.2737593657299876,-0.48119347102865573
1733851217307133400,1.158133544921875,-0.20470833359658716,0.5320192567721009,-0.30040167253250255
1733851217317102300,1.168102294921875,-0.3433399746954441,0.5830898110568523,0.1260574701400008
1733851217327070500,1.178070556640625,-0.5088648834168911,0.4286158731818199,0.23404901263760403
1733851217337039400,1.188039306640625,-1.0088853661209345,0.33147914877086876,0.002120170491747558
1733851217347008500,1.198008544921875,-1.1924369299203157,0.3693997141033411,-0.19316771606970579
1733851217356977400,1.207977294921875,-0.9092267220169306,0.5770125369697809,-0.2763055430814624
1733851217366945300,1.2179453125,-0.44805824027657504,0.7235296706214547,-0.16859953039381653
1733851217376914200,1.2279140625,-0.17568740629553795,0.6957508523359894,-0.01668017237242311
1733851217386883600,1.237883544921875,-0.2993880202442407,0.716285398581624,0.10670195021163671
1733851217396852500,1.2478525390625,-0.5479226360857486,0.7606719450578093,0.21919161697924136
1733851217406820400,1.2578203125,-0.3060685209214687,0.7041913484230637,0.2905783255185932
1733851217416789200,1.267789306640625,-0.3501280274003744,0.6688032241776585,0.16046967115849256
1733851217426758400,1.27775830078125,-0.515416789278388,0.6051555123925209,-0.12306713835075497
1733851217436727300,1.287727294921875,-0.5300637387901544,0.29519845959991214,-0.3356237012296915
1733851217446696200,1.2976962890625,-0.5099824892699718,0.07949293117076157,-0.5112264979816973
1733851217456664300,1.307664306640625,-0.35363398969471455,0.023765783251821992,-0.45190220235362644
1733851217466633200,1.31763330078125,0.08699030118882656,0.024147768306732178,-0.25530937067344783
1733851217476602400,1.327602294921875,0.2831692913711071,0.12049568042755127,-0.01266790452376008
1733851217486571300,1.3375712890625,0.3068137863308191,0.3259793823108077,0.18026267832182347
1733851217496539400,1.347539306640625,0.01682078641951084,0.4782694002754986,0.3390335096731782
1733851217506508300,1.35750830078125,-0.7628355528324842,0.6161106216490269,0.425936205643788
1733851217516477400,1.3674775390625,-1.5339976199835539,0.8694032456725835,0.6050249448154121
1733851217526446300,1.3774462890625,-1.766460806468129,0.9728118899598717,0.5621423000961542
1733851217536414500,1.38741455078125,-1.4344833527863026,0.7688686955168843,0.264329639409855
1733851217546383400,1.39738330078125,-0.9900158304780721,0.4179894113577902,-0.17514453159049154
1733851217556352300,1.407352294921875,-0.7881377518713474,0.10846548928543924,-0.49104602587074037
1733851217566321400,1.4173212890625,-0.9015425972551107,0.02513531803935766,-0.3425676751486957
1733851217576289500,1.42728955078125,-0.9896469971656798,0.18375819228738546,-0.01742364768348634
1733851217586258400,1.437258544921875,-0.8374807517111301,0.39629853468388315,0.16345124425254762
1733851217596227300,1.447227294921875,-0.5293161352932453,0.17366949060186743,0.09980908542536199
1733851217606196500,1.457196533203125,-0.2813783163011074,-0.07869169779047369,-0.02556947167292237
1733851217616164400,1.467164306640625,-0.08232114033401013,-0.15383885484188795,0.00177501031588763
1733851217626133500,1.477133544921875,-0.012835516175627708,-0.2806668070308864,0.013986695504747331
1733851217636102400,1.487102294921875,0.11702420492470264,-0.29117636447697876,-0.015097652421332895
1733851217646071600,1.497071533203125,0.3938496802270412,-0.2888433914847672,-0.06720934978947044
1733851217656040400,1.50704052734375,0.48320554150342937,-0.2105819018051028,-0.10424147838223725
1733851217666008600,1.517008544921875,0.37219022160470483,-0.17149053912758827,-0.029918862521462142
1733851217675977500,1.5269775390625,0.30470249326527116,0.07928761785700916,-0.011600750216282903
1733851217685946400,1.5369462890625,0.28970599966347216,0.08384440437853335,-0.07943053345903754
1733851217695915500,1.54691552734375,0.22595745785236357,-0.09803688812106848,-0.08564867732152343
1733851217705883400,1.55688330078125,0.12731938896775244,-0.02192629286497831,0.0025634572798386213
1733851217715852300,1.566852294921875,0.04419979173243046,0.01742971209809184,0.04113342643175274
1733851217725821400,1.576821533203125,-0.10438742619156836,0.04097396155372262,0.0632503464980051
1733851217735790600,1.58679052734375,-0.21556699674129484,0.061411331035196776,0.08358078500628471
1733851217745758200,1.59675830078125,-0.16129180119633674,0.021956834133714437,0.016316599757038055
1733851217755727400,1.606727294921875,-0.08047580472826957,-0.047663960711657995,-0.04116634232066572
1733851217765696300,1.6166962890625,-0.10658113684356212,-0.04909910808131098,-0.041654454631172115
1733851217775665400,1.62666552734375,-0.07058744792044162,0.03920315248891711,0.04119755944283679
1733851217785633300,1.63663330078125,0.03466682423353195,0.01810001257508993,0.08804753689048811
1733851217795602700,1.646602783203125,0.04017477400004864,0.013743278670310973,0.03240923629878088
1733851217805571600,1.656571533203125,0.0306125804066658,-0.027675650171935556,-0.04112591897873208
1733851217815540500,1.66654052734375,0.14105857598483562,-0.08244900449737906,-0.08481551443301141
1733851217825508600,1.676508544921875,0.14273089311122894,-0.05467939243167638,-0.0335431174332276
1733851217835477500,1.6864775390625,0.07049567798376083,0.03436871806979179,0.03915958734182641
1733851217845446700,1.69644677734375,0.08981938713490963,0.05722016295567155,0.03502475255941972
1733851217855415600,1.70641552734375,0.0971972224265337,-0.00027311785295605656,-0.002113832082506269
1733851217865384700,1.716384765625,0.13124562250077723,0.017783786232769487,-0.015379903428815305
1733851217875352600,1.7263525390625,0.04223638270497322,0.004832973114401101,-0.014306246315315366
1733851217885321700,1.73632177734375,-0.06882160729169845,0.02071867064088583,-0.06596594386594369
1733851217895290600,1.74629052734375,-0.051608022162318225,0.05960778874456882,-0.09876852686386554
1733851217905259500,1.756259521484375,0.030315643286705014,0.09319090939462184,-0.08150162237836048
1733851217915227600,1.7662275390625,0.0030213936477899547,0.043780981798470016,-0.05365467076012864
1733851217925196500,1.776196533203125,-0.03108136696219444,-0.03351955389454961,-0.001954969992674887
1733851217935165700,1.786165771484375,0.08185001569092273,-0.022295272307842968,-0.05679609232470393
1733851217945134600,1.796134521484375,0.11042261470258236,-0.016955957106500864,-0.09774490117086097
1733851217955102700,1.806102783203125,0.054420741495490074,0.08465791271850466,-0.07779990004990249
1733851217965071600,1.816071533203125,0.05758183587491512,0.12934987188205121,-0.03783252172283828
1733851217975040800,1.826040771484375,0.05311024341881275,0.13313728146627546,-0.023569822288304565
1733851217985009700,1.836009765625,0.0625935265570879,0.11472133480980992,-0.07063455673148855
1733851217994977800,1.845977783203125,0.09330372211933136,0.08175152375251055,-0.11591264521991833
1733851218004946700,1.85594677734375,0.09725509009361266,0.10101941106319427,-0.18696023973170667
1733851218014915600,1.86591552734375,0.08432780398130417,0.09814926245436072,-0.0803778059802018
1733851218024884700,1.875884765625,0.01747135928273201,0.08563961723223328,0.054734958543814716
1733851218034852900,1.885852783203125,0.08288695752322674,0.03949731312990189,0.03422956532742828
1733851218044821800,1.89582177734375,0.08509177409112453,-0.021418343342840672,-0.02895567091195844
1733851218054790700,1.905790771484375,0.02656009014546871,-0.096494480984658,-0.05077148000663146
1733851218064759800,1.915759765625,-0.013508885392546653,-0.11738280910402536,-0.06706479021962732
1733851218074728700,1.925728759765625,-0.011729016238451004,-0.1199564589843154,-0.032876241889176885
1733851218084696800,1.93569677734375,-0.034168227061629294,-0.10558350410833954,0.02961525819869712
1733851218094665700,1.945665771484375,-0.008690086933970451,-0.07717574026957154,0.059259587228251615
1733851218104635000,1.955634765625,-0.019124971708655358,-0.06445975882038474,0.05961769821722991
1733851218114603800,1.965603759765625,-0.023007950621843336,-0.05472995357513427,0.004463189953938127
1733851218124571600,1.975571533203125,0.021336218017339707,-0.016486586029082536,-0.053910919676674524
1733851218134540500,1.98554052734375,0.06438683971464633,0.038431437464058395,-0.06500287098744884
1733851218144509400,1.995509521484375,0.08549684776067733,0.088343469363451,-0.008744484002329408
1733851218154478800,2.005478759765625,0.10019523519873619,0.10812997372075915,-0.006584492956846952
1733851218164446700,2.01544677734375,0.09714519997835158,0.07614172104671597,-0.03894629165101796
1733851218174415600,2.02541552734375,0.08758183734118938,0.06215221253037452,-0.04155516810831614
1733851218184384500,2.035384521484375,0.06834054577648639,0.047942193131148815,-0.035366615666495634
1733851218194353700,2.045353759765625,0.049879590934514995,0.029287761543691157,-0.025925162375951185
1733851218204321500,2.055321533203125,0.05331950225532055,0.0654033232808113,-0.05352045905436389
1733851218214290700,2.065290771484375,0.029946225452423095,0.011707827319949864,-0.06935554063846357
1733851218224259600,2.075259521484375,0.04695113626718521,-0.0043771921709179875,0.005789515787409618
1733851218234228700,2.085228759765625,0.05719838951528072,0.023296266043931244,0.02456586585463956
1733851218244196600,2.095196533203125,0.047838440495729447,0.02940364300832152,0.035176253326702864
1733851218254165800,2.105165771484375,0.049262335819005965,0.046313422885537144,0.00262413795851171
1733851218264134700,2.115134765625,0.04215571868419647,0.06692921767383814,-0.03015381292165257
1733851218274103600,2.125103515625,0.036654783180356025,0.035425679776817556,-0.058037918212497604
1733851218284072700,2.13507275390625,0.04587269338071346,0.034287615657597775,-0.07030218297196551
1733851218294040600,2.14504052734375,0.07516016266345978,0.04969619719162583,-0.0479003906828817
1733851218304009700,2.155009765625,0.08243336853682995,0.04958543029353022,-0.03862928899056278
1733851218313978600,2.164978515625,0.10285130266547203,-0.02198649861961603,0.00539206830188632
1733851218323947800,2.17494775390625,0.07397475227117538,-0.015327186860889196,-0.01682529819784686
1733851218333915600,2.18491552734375,0.046835400933027266,-0.00313990546092391,-0.04680903351590968
1733851218343884800,2.194884765625,0.03413783192336559,-0.00943564460426569,-0.05560091859023086
1733851218353853700,2.204853759765625,0.03144084792435169,0.01727262184023857,-0.04265585935921408
1733851218363822600,2.214822509765625,0.058761401048302644,0.040401276232302184,-0.006869082051888108
1733851218373790700,2.224790771484375,0.05292670354545116,0.0490080687969923,0.005248285050177946
1733851218383759600,2.234759521484375,0.07208031682670116,0.03452303184866905,-0.08885548313935286
1733851218393728800,2.244728759765625,0.09753156894743442,0.018866905294358728,-0.14859909102488308
1733851218403697700,2.25469775390625,0.11317162114977836,0.019714608164876697,-0.07531979650484863
1733851218413665800,2.264665771484375,0.0968617068618536,0.05444631432816386,0.030369250337197444
1733851218423634700,2.274634765625,0.08059387814998627,0.11125117448121309,0.04978251463505439
1733851218433603800,2.284603759765625,0.0725666390389204,0.06894274945333599,0.006041905946168117
1733851218443572700,2.29457275390625,0.058199090990424154,0.06961085797324776,-0.04357660919963382
1733851218453540600,2.30454052734375,0.021028759503364563,0.05381283873021602,-0.05723001306282822
1733851218463509500,2.314509521484375,0.007412322083115578,0.021268998000025748,-0.07022231810220983
1733851218473478700,2.324478759765625,0.04190145166218281,0.0018495733894407747,0.013065288077201694
1733851218483447800,2.33444775390625,0.06153495741486549,-0.02883358803540468,0.04646813852321356
1733851218493415700,2.344415771484375,0.02652443431019783,0.023222908546775577,0.045256986334896644
1733851218503384600,2.354384521484375,0.0016717326045036314,0.014156827907264231,0.004460847299802117
1733851218513353500,2.364353515625,0.017692893078923223,-0.04773498012125492,-0.01894055505245924
1733851218523322600,2.374322509765625,0.014727613532543182,-0.011512597008794546,0.014392344563035293
1733851218533291500,2.38429150390625,0.012620412120223044,0.0078971829906106,0.014438955617160536
1733851218543259600,2.394259765625,0.041023499783873554,0.03320610403120518,-0.009120007350412197
1733851218553228500,2.404228515625,0.07973989166915416,0.030763679315149783,-0.028804147311788982
1733851218563197700,2.41419775390625,0.07810206133425235,0.0408374756924808,-0.052165089789498596
1733851218573166600,2.42416650390625,0.09227905524671078,0.04335881086364388,-0.04558658818202093
1733851218583134700,2.434134765625,0.07652794388532638,0.03509396360442042,-0.025042342526279387
1733851218593103600,2.444103515625,0.025969138514995573,0.03667947923019528,-0.0046757138931890945
1733851218603072800,2.45407275390625,0.010400397983193397,0.049506373707950115,0.017152091599954292
1733851218613041700,2.464041748046875,0.031850597769021986,0.0005384907908737659,0.02338566364372382
1733851218623009800,2.474009765625,0.014461071550846099,-0.012931816156953572,0.006344756783684715
1733851218632978700,2.483978759765625,0.005401566782593727,-0.018745763132721183,0.0033946405571070497
1733851218642947600,2.493947509765625,0.001505143865942955,-0.024356442621350286,-0.0314875434601563
1733851218652916700,2.503916748046875,0.041920156362652776,-0.03495192478522658,-0.0795809656472411
1733851218662884600,2.513884521484375,0.04748948092758655,-0.023590865076333283,-0.08586745290504769
1733851218672853800,2.523853759765625,0.05334697478413582,-0.019904285518079996,-0.011113304626056924
1733851218682822700,2.53382275390625,0.058819268715381616,-0.007523088981211185,0.04251087966426276
1733851218692791800,2.543791748046875,0.07036942125558852,-0.0008132160790264606,0.07240570372301153
1733851218702759700,2.553759765625,0.06321019715070725,-0.009388152200728654,0.0486992403098382
1733851218712728800,2.563728759765625,0.05003390471339225,-0.032181583289057014,0.010516617374541237
1733851218722697700,2.57369775390625,0.043130116674304005,-0.040826077515631914,-0.007553310589538887
1733851218732666600,2.58366650390625,0.020100538742542265,0.030904987481981516,0.013367458494706079
1733851218742634800,2.593634765625,0.034551673421263696,0.04089432044625282,-0.03081390709846746
1733851218752603600,2.603603759765625,0.04673953934311866,0.04765899227559566,-0.07508516119848936
1733851218762572800,2.61357275390625,0.08260229536294937,0.030975714630633592,-0.08669655153979547
1733851218772541700,2.623541748046875,0.10261106416881084,0.027511399520933625,-0.03453898975291522
1733851218782509600,2.633509521484375,0.06942717196941375,0.03340586438700557,0.02263363970002392
1733851218792478500,2.643478515625,0.04257832801043987,0.05076850259825587,0.02871792576648295
1733851218802447400,2.653447265625,0.04791676642894745,0.06100464993044734,0.0006795637789764441
1733851218812416300,2.663416259765625,0.04940203655064106,0.06048047992587089,-0.00913424365503015
1733851218822385400,2.673385498046875,0.028707623568177222,0.024461948822438715,-0.052738866522884925
1733851218832353300,2.683353271484375,0.032467852884531016,0.0037302725695073603,-0.07738837837325409
1733851218842322400,2.693322509765625,0.0570031592041254,0.0033960721790790554,-0.03577973792847478
1733851218852291300,2.703291259765625,0.04602817620337009,-0.005084171396493912,0.022219261629297396
1733851218862260200,2.71326025390625,0.045913609912991524,-0.02358253563940525,0.022466075997217557
1733851218872228400,2.723228271484375,0.06570727466344833,0.01571487100422382,0.013963690230139764
1733851218882197500,2.733197509765625,0.04603694403171539,0.021680647540837525,0.005918691700097406
1733851218892166400,2.74316650390625,0.054692544174194335,0.04416559720188379,-0.0029590370352612807
1733851218902135300,2.75313525390625,0.07691548189818859,0.03153554047048092,-0.02029961182846455
1733851218912103400,2.763103515625,0.057203065690398215,-0.0010354805275797844,-0.03080658687511459
1733851218922072300,2.773072265625,0.024992986959218977,0.002631955938786268,-0.02878781494820723
1733851218932041500,2.78304150390625,0.02190904946923256,-0.0330361542917788,-0.08025894710719585
1733851218942010400,2.79301025390625,0.024590251377224922,-0.0635123949676752,-0.07128995190029963
1733851218951978200,2.802978271484375,0.01650982077419758,-0.028212533527612684,-0.018288091626251116
1733851218961947100,2.812947021484375,0.04206394874751568,0.01860620853155851,0.010839990410278551
1733851218971916300,2.822916259765625,0.03413374027013778,0.05453998396098613,0.020263666015537453
1733851218981885200,2.83288525390625,0.0630114597082138,0.047066140948981046,0.00506263313483214
1733851218991853300,2.842853271484375,0.09570318447649478,0.058805970842391246,-0.0007713405655231327
1733851219001822200,2.852822265625,0.091894439843297,0.044541444776952266,-0.008085475529258838
1733851219011791000,2.862791015625,0.06689093149006366,0.04848039166107773,-0.014276976838347036
1733851219021760300,2.87276025390625,0.043075171616673465,0.040845951259881254,-0.04932925900879782
1733851219031728400,2.882728271484375,0.041433249628543854,-0.006749035868793726,-0.07085703124259599
1733851219041697300,2.892697265625,0.050158992397785186,-0.015666355687379837,-0.03564239126741886
1733851219051666200,2.902666259765625,0.04852233110666275,-0.0030588030487298965,0.024414029443927572
1733851219061635300,2.91263525390625,0.054793081939220424,-0.0016159107640385626,0.038142873163509644
1733851219071604200,2.922604248046875,0.044671500897407526,-0.0016122575022280215,-0.013168531539256218
1733851219081572400,2.932572265625,0.03602525310516357,0.011755027462542056,-0.039048012159555216
1733851219091541200,2.942541259765625,0.04300970516502857,0.03652648062556982,-0.006413411847903626
1733851219101510400,2.952510498046875,0.06714402946829795,0.04469473564252257,-0.007525495567428879
1733851219111479300,2.962479248046875,0.06524082619547844,0.03311857187822461,0.010563411091757006
1733851219121447400,2.972447509765625,0.06077975513339042,0.01983092802092433,0.035784710931114384
1733851219131416300,2.982416259765625,0.05059504572749138,0.022212708590924737,0.011149289254890754
1733851219141385200,2.99238525390625,0.052720951840281485,0.024357319404184816,-0.010587878812733105
1733851219151354400,3.002354248046875,0.046479427102208135,0.021471534834802148,-0.003980527853395324
1733851219161322200,3.012322265625,0.048829789620637894,0.04729615031257271,-0.0174615137421526
1733851219171291400,3.02229150390625,0.05559212336242199,0.07495192674025893,-0.019740007467614486
1733851219181260300,3.03226025390625,0.06418517966270447,0.031543431515991684,-0.041589956293907014
1733851219191229400,3.0422294921875,0.06613748277425766,-0.001811141075193882,-0.03123467837736243
1733851219201197300,3.052197265625,0.04724047460258007,-0.025667379089444876,-0.033157024742069184
1733851219211166500,3.06216650390625,0.036484687310457224,-0.05938230942562222,-0.036526327645231504
1733851219221135400,3.07213525390625,0.04565232862830162,-0.02698912921249866,-0.04876360621636267
1733851219231104300,3.082104248046875,0.05083236161470413,0.02272153489589691,-0.07318146473532543
1733851219241072000,3.092072021484375,0.06031973640620708,0.03648760991990566,-0.023010877797869034
1733851219251041500,3.10204150390625,0.038249943417310715,0.01290668171569705,0.03913967706495896
1733851219261010400,3.112010498046875,0.04807692542672157,0.0032236382216215133,0.06343627012469806
1733851219270979300,3.121979248046875,0.052713937577605244,-0.005015490074455738,0.0593056228936417
1733851219280947200,3.131947265625,0.04601122506856918,0.0038202889405190943,0.0244010854806751
1733851219290916000,3.141916015625,0.03756020758748054,-0.007746814734488725,0.003570086172269657
1733851219300885200,3.15188525390625,0.03315758871436119,0.003468260632455349,-0.021408933910389897
1733851219310854100,3.161854248046875,0.02456803954541683,-0.015828998903185128,-0.0549594971478451
1733851219320822300,3.171822265625,0.028130700463056563,0.00947656113654375,-0.06148455153503455
1733851219330791200,3.181791259765625,0.05408288784325122,0.012989683824032544,-0.05706908231349662
1733851219340760300,3.19176025390625,0.09437105908989905,0.017415829703211785,-0.02216187801940832
1733851219350729200,3.201729248046875,0.09458616314530371,0.027949937068670987,-0.015263734269817359
1733851219360697300,3.211697265625,0.100551793551445,0.022782325172424314,-0.031233402019017375
1733851219370666200,3.221666259765625,0.0659831689953804,0.011283610558509826,-0.014143721830518916
1733851219380635100,3.23163525390625,0.043374446824192996,0.008564414727687835,0.04385912050202023
1733851219390604300,3.241604248046875,-0.00755903707742691,0.011894289802759885,0.06128480944554321
1733851219400572400,3.251572509765625,-0.00882218888103962,0.01488105052858591,0.0446248259112006
1733851219410541300,3.261541259765625,0.02046761848926544,0.009473784657567739,0.012321488539152778
1733851219420510200,3.27151025390625,0.04786357493698597,-0.009276070128381251,-0.000015115370741114019
1733851219430479400,3.281479248046875,0.0784182876765728,-0.007135843229293823,-0.022328042066283523
1733851219440448300,3.2914482421875,0.07397592131495476,0.014703063613176345,-0.016935444041434676
1733851219450416400,3.30141650390625,0.07379471952915191,0.021328326971828935,-0.04887351459793281
1733851219460385300,3.31138525390625,0.05591068779230118,0.061533349979668854,-0.0642326218338916
1733851219470354400,3.3213544921875,0.040944589328765865,0.07995265763700007,-0.07487342271052766
1733851219480323300,3.3313232421875,0.04546937327682972,0.07566475118473172,-0.049867010014154944
1733851219490291500,3.34129150390625,0.025726561930775643,0.05269464835524559,-0.005784478852688335
1733851219500260400,3.35126025390625,0.008172200539708137,0.0827227068722248,0.025993893930339254
1733851219510229200,3.361229248046875,-0.06678454850614071,0.06980638054534792,0.04390699193147011
1733851219520198400,3.371198486328125,-0.09988719216287135,0.05983838263005018,0.04827298685493879
1733851219530166300,3.381166259765625,-0.07876549367904663,0.06827887871712446,0.06655605524620041
1733851219540135400,3.391135498046875,-0.05110416429340839,0.05062456408292055,0.050673627389036115
1733851219550104300,3.401104248046875,-0.06223404559493065,0.05673997822329402,0.010193527466594242
1733851219560073500,3.411073486328125,-0.10463175634145735,0.03428293948248028,-0.00038070184669923037
1733851219570041000,3.421041015625,-0.12552490676641465,0.047552755422145127,-0.010759828713000751
1733851219580010500,3.431010498046875,-0.1491027662307024,0.08005860222950577,0.06717770340903662
1733851219589979400,3.4409794921875,-0.20784195544719694,0.06711772598326206,0.14603428203817456
1733851219599948300,3.4509482421875,-0.20276655187904832,0.0579921702414751,0.22052827241048215
1733851219609916200,3.460916259765625,-0.19608488215804099,0.11629925165101886,0.20707772960904985
1733851219619885300,3.47088525390625,-0.14954875643253326,0.13269260643869638,0.1827992475947365
1733851219629854200,3.480854248046875,-0.11470073041319846,0.0829845726788044,0.13857481461139395
1733851219639823000,3.490822998046875,-0.1594716000318527,0.0992393957786262,0.10566291688694618
1733851219649791200,3.500791259765625,-0.23556115249991416,0.13041136363372205,0.05714345359080471
1733851219659760000,3.510760009765625,-0.22601883265078065,0.16128595597743986,0.054015028505120424
1733851219669729300,3.520729248046875,-0.09529168106615543,0.2347999588690698,0.15947147216768934
1733851219679698200,3.5306982421875,-0.06833820768892765,0.23802374322116374,0.2808608865645714
1733851219689666300,3.540666259765625,0.15097089819014073,0.197347449439764,0.12057219799617305
1733851219699635200,3.55063525390625,0.3397825744748115,-0.04082914625555276,-0.22821955756545065
1733851219709604400,3.560604248046875,0.507854245069623,-0.0981423943221569,-0.34125505818016827
1733851219719573200,3.5705732421875,0.6467553507596254,-0.1941251263923943,-0.431778721126914
1733851219729541400,3.580541259765625,0.7774959463477135,-0.2616907422736287,-0.5490303781319409
1733851219739510300,3.59051025390625,0.8066232566326856,-0.2265045703411102,-0.5649100843090563
1733851219749479200,3.600479248046875,0.7850695964723825,-0.19860607119873164,-0.47994471307657655
1733851219759448300,3.6104482421875,0.7785761427998542,-0.14834391068741679,-0.36979306080248203
1733851219769416400,3.62041650390625,0.7406243055462837,-0.135486182679981,-0.28474118033032864
1733851219779385300,3.63038525390625,0.7322714877426624,-0.12009528293311596,-0.21528207885269074
1733851219789354200,3.640354248046875,0.6180255153596401,-0.07379223531112074,-0.15301761985318735
1733851219799323100,3.6503232421875,0.43921325504183767,-0.035269904693216086,-0.11781920949360355
1733851219809291000,3.660291015625,0.33469138881564137,0.009762830732017756,-0.09646570241474546
1733851219819260200,3.67026025390625,0.06694470750391483,0.05124108854606747,-0.012835153132735285
1733851219829229000,3.68022900390625,-0.1905810240447521,0.1374455000542104,0.15765086914440615
1733851219839198200,3.6901982421875,-0.4116524634212255,0.2193167046636343,0.20579486845796927
1733851219849165800,3.700165771484375,-0.5787117421030998,0.16515037632063032,0.20552293791510162
1733851219859135000,3.710135009765625,-0.6802993084430694,0.1179502337284386,0.19651638717679307
1733851219869103900,3.720103759765625,-0.7138444351702928,0.06762845198437571,0.18009990724185482
1733851219879073000,3.730072998046875,-0.6375403631687164,0.03885696939975023,0.13684008150696753
1733851219889041000,3.740041015625,-0.42009529759585856,-0.03080795684829354,0.1123680040161591
1733851219899010000,3.750010009765625,-0.18911504314541816,-0.034329847364127634,0.11349963839459232
1733851219908979000,3.75997900390625,0.02584288178682327,-0.058131140320748086,0.07307821898998226
1733851219918947800,3.76994775390625,0.18787351865172386,-0.0902262143701315,0.013667370739753822
1733851219928916000,3.779916015625,0.29039807358086106,-0.10165171761736273,-0.04584237587426323
1733851219938884900,3.789884765625,0.35576048032939434,-0.12239669174328445,-0.11057994242245331
1733851219948854000,3.79985400390625,0.339268779733777,-0.059112698704004284,-0.1420842475044541
1733851219958823000,3.809822998046875,0.2452969490945339,-0.021513912671804428,-0.09343506601457484
1733851219968791000,3.819791015625,0.14183599009811879,0.020270634612441062,-0.039927224413189105
1733851219978760000,3.829760009765625,0.019328969848155974,0.06835048264861106,0.0040053266512230035
1733851219988729000,3.83972900390625,-0.05378945785462856,0.08982625526711344,0.012826474352646618
1733851219998698000,3.849697998046875,-0.10767010112404822,0.06160349260643124,-0.0040575043630320575
1733851220008666000,3.859666015625,-0.11741641911268233,0.023409224899113176,-0.04111761694126762
1733851220018635000,3.869635009765625,-0.0762608173817396,-0.012971709775924682,-0.0237883649763884
1733851220028604000,3.87960400390625,-0.05254968692660331,-0.002177782430499792,0.024247817447991107
1733851220038573000,3.889572998046875,-0.011533785927295684,0.017894114739447832,0.028127006102050652
1733851220048542000,3.8995419921875,0.049782560300827026,0.012396978627890349,0.006680304314405657
1733851220058510000,3.909510009765625,0.08281330776512623,0.018722528387606144,-0.027304145411844363
1733851220068479000,3.91947900390625,0.12006488779485225,0.014610124632716178,-0.07819548437190242
1733851220078448000,3.9294482421875,0.12271861717402935,0.012908873672783374,-0.06694002219564281
1733851220088417000,3.9394169921875,0.10988719265162944,0.005903378824889659,-0.022229435963439754
1733851220098385200,3.94938525390625,0.09589198504686355,0.005320902761816978,-0.02796265041977167
1733851220108354000,3.95935400390625,0.060139703664183614,0.015933336060494182,-0.05698140403004363
1733851220118323200,3.9693232421875,0.04777005143463611,0.06474076771885157,-0.04969698720949236
1733851220128292000,3.9792919921875,0.046374797683954236,0.059159898846596476,0.002724118601111695
1733851220138260000,3.989260009765625,0.03663958561122417,0.04687719424813985,0.03889150185701437
1733851220148229000,3.99922900390625,0.03799275378584861,0.0023155834659934044,0.03898140863017179
1733851220158198000,4.009197998046875,0.05026888251304626,-0.005276625228673219,0.004970874614594504
1733851220168167200,4.019167236328125,0.056230421265959736,-0.026760142762213945,-0.04510002850778401
1733851220178135000,4.029135009765625,0.05414367811977863,-0.030216128434985876,-0.05499289709394797
1733851220188104000,4.03910400390625,0.05513794985413551,-0.008342442540079355,-0.0309005122362636
1733851220198072800,4.04907275390625,0.08334872981607913,0.021955811220407486,-0.03872495878422633
1733851220208042000,4.0590419921875,0.08315642211437226,0.014901362664252519,-0.021950915849581358
1733851220218009900,4.069009765625,0.07025017879009246,0.012852467310428618,0.009491813504602759
1733851220227979000,4.07897900390625,0.046351416808366776,0.027014848175644875,0.03859018082288094
1733851220237948000,4.088947998046875,0.045941666963696476,0.013011603394895791,0.04233717619832605
1733851220247917000,4.0989169921875,0.04485796338021755,0.01599880251213908,0.01330948122977279
1733851220257885000,4.108885009765625,0.06315232948362827,0.014295505725592374,0.00040095461686141787
1733851220267854000,4.11885400390625,0.06945639806389808,-0.0012448854945600032,-0.008116771424887701
1733851220277823000,4.128822998046875,0.058361003553867336,-0.022216654113680123,-0.02010468519469723
1733851220287791900,4.1387919921875,0.06013093583583831,-0.0035386955201625824,-0.0925506387297064
1733851220297760000,4.148760009765625,0.052316462692618367,0.010474778393656015,-0.09234749910673126
1733851220307729000,4.15872900390625,0.046270752787590026,0.010285685562342405,-0.04378952129795216
1733851220317698000,4.168697998046875,0.06743278328180313,0.004253565791249275,-0.03551099257324822
1733851220327667000,4.1786669921875,0.08749299001395702,0.009879881240427494,0.00906482026418671
1733851220337635000,4.188635009765625,0.07668108862042426,0.004472176977992058,0.03821698186262511
1733851220347604000,4.19860400390625,0.07348433840572834,0.004805646716058254,0.030669571290910243
1733851220357573000,4.208572998046875,0.053389644882082934,-0.013664952737092971,-0.024071168539719655
1733851220367542000,4.2185419921875,0.034384500160813326,-0.013800415685027836,-0.05796579369120299
1733851220377510100,4.22851025390625,0.02667991713285446,0.0074298577398061744,-0.019661325341369957
1733851220387479000,4.23847900390625,0.04268529551625252,0.02469575757831335,-0.022379416060494258
1733851220397448000,4.248447998046875,0.06690846714675426,0.00897679492086172,-0.04754815231226384
1733851220407417000,4.2584169921875,0.0687584789276123,0.02369257188513875,-0.03714112365888431
1733851220417385200,4.26838525390625,0.06755027218163014,0.024010990184545517,-0.021701653796248138
1733851220427354000,4.27835400390625,0.06911795988976956,0.0031938276052474973,-0.031529256860166784
1733851220437323000,4.288322998046875,0.0691641371190548,0.014115472983568906,-0.020737466672901064
1733851220447292200,4.298292236328125,0.05959492926299571,0.013904898972809315,-0.00935022220998071
1733851220457259800,4.308259765625,0.06849135242402553,-0.019081424827873707,-0.001146293091448024
1733851220467229000,4.31822900390625,0.04646306048929691,-0.003037029608339071,0.00741118957195431
1733851220477197800,4.32819775390625,0.026546646142005918,0.002775748323649168,-0.013373732971865683
1733851220487167200,4.338167236328125,0.0037818566262722013,0.025341946527361867,-0.013418585893744603
1733851220497134800,4.348134765625,0.01598550463914871,0.03740267893821001,0.010898648095224051
1733851220507104000,4.35810400390625,0.02308627655506134,0.0061836570709943766,0.0026865539365448056
1733851220517073000,4.368072998046875,0.03021042934656143,-0.0019983342103660107,-0.023382291226414963
1733851220527041800,4.378041748046875,0.048234746336936946,-0.01225596272200346,0.00649715260011144
1733851220537010000,4.388010009765625,0.05696224267184734,0.0025058453410863875,-0.0044164738685358315
1733851220546979000,4.39797900390625,0.07624737337827682,0.026323504910618065,-0.03696444278457202
1733851220556948000,4.407947998046875,0.06551145983040332,0.03409340825974941,-0.048640806387178596
1733851220566916900,4.417916748046875,0.058334700068831444,0.00683817545697093,-0.027655493299895896
1733851220576885000,4.427885009765625,0.09057458941638469,0.02855024104937911,-0.01802112951944582
1733851220586854000,4.43785400390625,0.08469605277180671,0.04959156777337193,0.009557617882965132
1733851220596823000,4.447822998046875,0.05848842932581901,0.01778831627741456,-0.00374978098757565
1733851220606792000,4.4577919921875,0.04052373356819153,0.008645809400826692,-0.010558419822808354
1733851220616760000,4.467760009765625,0.03574292903244495,0.014370470657944678,-0.011007232169387862
1733851220626729000,4.47772900390625,0.03187047151327133,0.015180471866577862,-0.0027579660717863587
1733851220636698000,4.487697998046875,0.02856616927087307,-0.006783230399340391,-0.013598408573213963
1733851220646667000,4.4976669921875,0.024659224960207938,-0.016208792001008988,-0.027801294978754592
1733851220656635100,4.50763525390625,0.044700726991891856,-0.013326368432492018,-0.011135982248745858
1733851220666604000,4.51760400390625,0.04872808281183243,-0.01776873479411006,0.02146640200195834
1733851220676573000,4.527572998046875,0.06465747334957123,-0.0014304711945354938,0.0022640359418466685
1733851220686542000,4.5375419921875,0.06266483822762965,0.011349515401571988,-0.025001389461383222
1733851220696511000,4.547510986328125,0.057473699325323105,0.009791910696029662,-0.03569212129381485
1733851220706479000,4.55747900390625,0.0474175847351551,0.015001169776916503,-0.027480903917970135
1733851220716448000,4.567447998046875,0.0652075084477663,0.03894420929178595,-0.01164778596209362
1733851220726417200,4.577417236328125,0.06385550931692123,0.04858092942610383,-0.01380637050177902
1733851220736386000,4.587385986328125,0.04037175787687301,0.026130466556549072,-0.01789131086100824
1733851220746354200,4.597354248046875,0.04662263496518135,-0.003245119401067495,-0.004509485914232209
1733851220756323000,4.607322998046875,0.0588636923789978,0.031441724707186224,-0.014412373570911586
1733851220766292000,4.6172919921875,0.031088965746760365,0.017634440889954566,-0.026741940385242923
1733851220776261000,4.62726123046875,0.03558919977545738,0.019914076259732245,-0.05390271810390986
1733851220786229000,4.63722900390625,0.0558224249869585,0.02021203629299998,-0.07187062873193062
1733851220796198000,4.647197998046875,0.08596388075053692,-0.001317658469825983,-0.05883561706198379
1733851220806167300,4.657167236328125,0.08015314864516258,0.004313040893524885,-0.02623795465216972
1733851220816136400,4.667136474609375,0.07786357640326022,0.01152721005603671,-0.00024105134741403162
1733851220826104300,4.677104248046875,0.055740591922402376,-0.0015805471897125244,0.03923270737696439
1733851220836073500,4.687073486328125,0.04991933842301369,-0.0036702129453420637,0.023029495733371003
1733851220846042400,4.69704248046875,0.04895195469558239,-0.008711568113416434,0.012428378413151949
1733851220856011300,4.70701123046875,0.02257131277024746,-0.043999885246157645,-0.008269267706014216
1733851220865979100,4.716979248046875,0.005482815325260162,-0.030875907517969606,-0.004685016011074185
1733851220875948300,4.7269482421875,0.004554010042548179,0.0293872763954103,-0.017794088431075213
1733851220885917200,4.736917236328125,0.03104571112692356,0.04032368095144629,-0.03881369651360437
1733851220895886000,4.746885986328125,0.05529693980813026,0.05756371569633484,-0.05036879009041004
1733851220905854200,4.756854248046875,0.08850421288311482,0.05194397611841559,-0.021782372615952044
1733851220915823000,4.766822998046875,0.0757557904690504,0.01840279491394758,0.0031013635488227006
1733851220925792300,4.776792236328125,0.05300678304433822,0.015369856958836315,-0.010860672438703476
1733851220935761200,4.78676123046875,0.03847381530106067,-0.005540098470449447,0.004819903570273891
1733851220945729300,4.796729248046875,0.041866964870691296,-0.027360154481977223,0.004625760104507207
1733851220955698200,4.8066982421875,0.03186462629437446,-0.02940437366068363,0.009780229391390458
1733851220965667300,4.816667236328125,0.03558744620978832,-0.015829291164129972,-0.0038067536055110393
1733851220975636200,4.82663623046875,0.07759411181211472,0.024846418095380067,-0.05009223817135207
1733851220985604400,4.836604248046875,0.060303954315185544,0.03377016765475273,-0.06731621226400603
1733851220995573200,4.8465732421875,0.04684124615192413,0.017425766575336454,-0.002085122011252679
1733851221005542400,4.85654248046875,0.06089139881432056,0.009392097723484039,0.03316121457670815
1733851221015511300,4.86651123046875,0.04522387408316135,0.028161241731792686,0.03661906797958072
1733851221025479400,4.8764794921875,0.0417927305907011,-0.0032253917872905728,0.01605163781107403
1733851221035448300,4.8864482421875,0.027531565526127812,-0.02786708109080791,-0.012414240289945155
1733851221045417200,4.896417236328125,0.03494038047790527,-0.022740677987784147,-0.003993846275983378
1733851221055386400,4.906386474609375,0.0766226364314556,0.013676643174886703,-0.011739839026564731
1733851221065354200,4.916354248046875,0.07461188113093375,0.007598784565925598,-0.027053093260223975
1733851221075323400,4.926323486328125,0.05807224974036217,0.006237433084845543,0.0004348294869996607
1733851221085292300,4.936292236328125,0.06578501607477664,0.004786065232753754,-0.025400741209625266
1733851221095261400,4.946261474609375,0.043269232884049415,0.020702157897502182,-0.06999429519972764
1733851221105229300,4.956229248046875,0.017542086431384087,0.06698883890658616,-0.06254092415359337
1733851221115198500,4.966198486328125,0.027471359771490095,0.14821531587168574,-0.04720748108185362
1733851221125167400,4.97616748046875,0.05145487742722034,0.16355682351887224,0.017586966752726585
1733851221135136300,4.98613623046875,0.0826443809390068,0.060643415402621026,0.027085885851550844
1733851221145104400,4.9961044921875,0.11124269891381264,-0.06019099546000361,-0.07072897528298198
1733851221155073300,5.0060732421875,0.0804530083745718,-0.08698124109953641,-0.06621310986031312
1733851221165042400,5.01604248046875,0.06014554888308048,-0.07828779316470026,-0.06701049361596816
1733851221175011300,5.02601123046875,0.04976911629736423,-0.09536386951953173,-0.09740273666968569
1733851221184979200,5.035979248046875,0.002714519655704498,-0.08199015481397509,-0.06915266131039242
1733851221194948000,5.045947998046875,0.026776947766542433,-0.05359758854433894,0.0026481490217614917
1733851221204917200,5.055917236328125,0.05421206718087196,-0.0015982289768755435,0.02942444376775529
1733851221214886100,5.06588623046875,0.07166647532880306,0.01846402358189225,0.038900666977581565
1733851221224854300,5.075854248046875,0.04119651826322079,0.08548325762674212,0.009354090100922622
1733851221234823200,5.0858232421875,0.03211889331638813,0.11132833137065172,0.000895167874591425
1733851221244792300,5.095792236328125,0.03495850065648556,0.07944616941958665,0.013863968740799464
1733851221254761200,5.10576123046875,0.0417751949340105,0.03109378805235028,0.004403363225213252
1733851221264729300,5.115729248046875,0.03068973729610443,0.015492898816615343,0.003649690747121349
1733851221274698200,5.1256982421875,0.03507598955631256,0.015313742857426404,-0.015926203066809103
1733851221284667100,5.135667236328125,0.03227437613904476,0.004328530723601579,-0.042381851023691706
1733851221294636300,5.14563623046875,0.048151159706711764,0.0009742518596351146,-0.03722770596379414
1733851221304604400,5.1556044921875,0.0671463675558567,0.00947743791937828,-0.0649060732492013
1733851221314573300,5.1655732421875,0.08780512470304966,0.02601239313483238,-0.05235705043133348
1733851221324542200,5.175542236328125,0.11379998218119143,0.04455108938813209,-0.01146316380992066
1733851221334511400,5.185511474609375,0.09604220717251301,0.02226151616871357,-0.017862048233905806
1733851221344479200,5.195479248046875,0.05987666881382465,0.03287000394463539,-0.011017196440976113
1733851221354448400,5.205448486328125,0.03748012808859348,0.02254281732812524,0.003095650760666467
1733851221364417300,5.215417236328125,-0.01843640492260456,0.03138239573538303,-0.0196386751181446
1733851221374386400,5.225386474609375,-0.027599954587221143,0.023808745610713958,-0.03905293036326766
1733851221384354300,5.235354248046875,-0.03139116356372833,0.05208674558997154,-0.03953582764253952
1733851221394323500,5.245323486328125,-0.002746083837747574,0.03125175509303808,-0.02000967298815958
1733851221404292400,5.255292236328125,0.056393502873182295,0.020876637681573627,-0.011589370305743068
1733851221414261200,5.26526123046875,0.0700222152531147,0.0012469313211739062,0.02107121040560305
1733851221424229400,5.2752294921875,0.055256607797741886,-0.0034225217945873737,0.04603447807999327
1733851221434198300,5.2851982421875,0.06274433320462704,-0.025266981595009563,0.04049767667832784
1733851221444167400,5.29516748046875,0.051639586344361305,-0.05364566546976566,-0.021395665720151735
1733851221454136300,5.30513623046875,0.018173954594135282,-0.0771383308686316,-0.04093898157188668
1733851221464104400,5.3151044921875,0.0064963762819767,-0.055282326760888095,-0.0009115344875026493
1733851221474073300,5.3250732421875,0.030873277169466015,-0.026596915024518965,-0.006932685340009629
1733851221484042500,5.33504248046875,0.00016717326045036316,-0.026143472168594598,-0.02226506896582432
1733851221494011400,5.345011474609375,0.009866144976019859,-0.07582388726919889,0.009829941151477397
1733851221503979300,5.354979248046875,0.007401800689101219,-0.09066022187322377,0.0860926308298949
1733851221513948200,5.3649482421875,0.027054011142253875,-0.06074439155906439,0.12080270055010914
1733851221523917300,5.374917236328125,0.023716975674033164,-0.09548574233353137,0.034720668746042065
1733851221533886200,5.38488623046875,-0.004799509236216545,-0.037621874646842475,-0.042265398736903444
1733851221543854300,5.394854248046875,-0.021281857481598852,0.006236410171538591,-0.06947044485555962
1733851221553823200,5.4048232421875,-0.020406828212738037,0.03377396704703569,-0.03160919479515869
1733851221563792100,5.414792236328125,-0.09319207843840122,-0.028096213671565055,0.04444510826300829
1733851221573761300,5.42476123046875,-0.13200842356681822,-0.01582183851003647,0.1283590524801053
1733851221583729200,5.434729248046875,-0.09865092836618423,-0.004572422482073307,0.05774418682977557
1733851221593698300,5.4446982421875,-0.05040799872279167,0.03521072185188532,0.018218604303325992
1733851221603667200,5.454667236328125,-0.08955869037210941,0.23124124347418545,0.07013199577052145
1733851221613636400,5.46463623046875,-0.09345803589820861,0.3337060310401022,0.07894371805647388
1733851221623604200,5.474604248046875,-0.11093991657495499,0.31101518354341384,-0.019155691073904742
1733851221633573400,5.484573486328125,-0.20084172129631042,0.20143033483922482,-0.06765349966066424
1733851221643542300,5.494542236328125,-0.17905951307713985,0.04258884940445423,-0.15995982194021344
1733851221653511200,5.50451123046875,-0.06474865876436234,-0.14306129410937427,-0.22936881893211974
1733851221663479300,5.514479248046875,-0.05462707772254943,-0.11369447598010302,-0.03611459362274035
1733851221673448400,5.524448486328125,0.043809331110119816,-0.19715411882475017,-0.10042517149709164
1733851221683417300,5.534417236328125,0.0412526323646307,-0.25544746396988627,-0.16864400885635986
1733851221693386200,5.54438623046875,-0.03814239138960838,-0.18199732009470462,-0.06228255634519737
1733851221703354400,5.554354248046875,-0.15385785180330275,-0.05752440659925341,0.001067149740899913
1733851221713323300,5.5643232421875,-0.2637713479399681,-0.019984803408384322,0.02590514706780668
1733851221723292400,5.57429248046875,-0.3346276759296655,0.045697336813807485,0.0734857951438753
1733851221733261300,5.58426123046875,-0.4421615834534168,0.038474545953422784,0.07973389118663035
1733851221743229400,5.5942294921875,-0.5599859988451004,0.055646337767690415,0.1874080930970609
1733851221753198300,5.6041982421875,-0.5359352611720561,0.1326395610772073,0.31639727844055743
1733851221763167500,5.61416748046875,-0.4884785134702921,0.26652050051763654,0.4519038097888231
1733851221773136400,5.624136474609375,-0.40855683549344535,0.26447379712089897,0.33179621536340564
1733851221783104300,5.634104248046875,-0.38419162504374976,0.27503976092934607,0.26436018067859113
1733851221793073200,5.6440732421875,-0.44402854636907574,0.3626841421127319,0.15507376693170516
1733851221803041800,5.654041748046875,-0.4900409404814243,0.32336437750682234,-0.017916043443465604
1733851221813010700,5.6640107421875,-0.5130214185744524,0.3029555034674704,-0.15008777694636954
1733851221822978800,5.673978759765625,-0.5767267057657242,0.24866525648385285,0.06662263594269752
1733851221832947700,5.68394775390625,-0.5740063408911228,0.05305296027362346,-0.09643548080641776
1733851221842916600,5.69391650390625,-0.4982710086882114,-0.0600707300812006,-0.24138671684823929
1733851221852885800,5.7038857421875,-0.3832277484476566,-0.011454144819825887,-0.23132976200785488
1733851221862854000,5.71385400390625,-0.32285891220271584,0.06962678619474172,-0.21668781746476887
1733851221872822800,5.72382275390625,-0.2725023514062166,0.08613426888138055,-0.1938112381376326
1733851221882791700,5.733791748046875,-0.2021446205884218,0.0960826853133738,-0.1491898599922657
1733851221892760800,5.7437607421875,-0.10825286944806575,0.09040127867609261,-0.11859846850410104
1733851221902728700,5.753728759765625,-0.0839040256112814,0.0966281903669238,-0.13774254677202552
1733851221912697900,5.76369775390625,-0.029900048223137854,0.049558688417077064,-0.13455555076636372
1733851221922666800,5.773666748046875,0.004341244074702263,0.008866904805600642,-0.14313063301853834
1733851221932636000,5.783635986328125,0.10469196209609508,-0.023849223751574753,-0.19342654966898262
1733851221942603800,5.793603759765625,0.22732699263989925,-0.0353321562744677,-0.18652414986938237
1733851221952573000,5.803572998046875,0.2113917568832636,-0.020327625496685504,-0.1962313779566437
1733851221962541800,5.813541748046875,0.1759627161055803,-0.02806640305519104,-0.19371669172197578
1733851221972510700,5.8235107421875,0.18296411930024623,-0.010168927314877509,-0.21905703081414102
1733851221982478800,5.833478759765625,0.2208680257588625,-0.059468088012933726,-0.18474165036678314
1733851221992447700,5.84344775390625,0.18387363536059856,-0.05936345859467983,-0.16585275243632494
1733851222002417000,5.8534169921875,0.21126725372076033,-0.10071969746425748,-0.16715353283658624
1733851222012385800,5.8633857421875,0.28687749823927877,-0.11945377015918493,-0.15922807359956204
1733851222022353700,5.873353759765625,0.3279927679598331,-0.029235446834564208,-0.11045388662368058
1733851222032322600,5.883322509765625,0.3023158903896808,-0.007141396187245845,-0.13984920019507407
1733851222042291700,5.893291748046875,0.3054980275571346,0.0011824877828359604,-0.23636706205531954
1733851222052260600,5.903260498046875,0.254094003534317,-0.012731763540208338,-0.2701253931418061
1733851222062228700,5.913228759765625,0.19434943666756152,-0.02681231134086847,-0.21787337398752568
1733851222072197600,5.92319775390625,0.17121698288321494,-0.011343524052202701,-0.1317658469825983
1733851222082166800,5.933166748046875,0.22523966497182846,0.014701602308452128,-0.027769758196175096
1733851222092135700,5.9431357421875,0.2160357832968235,-0.011743921546638012,-0.08874737398922443
1733851222102103800,5.953103759765625,0.0768453392714262,0.049182548581063745,-0.06234247440546751
1733851222112072700,5.96307275390625,0.027286650854349136,0.11790215680301189,-0.01059241342395544
1733851222122041600,5.97304150390625,0.07513678178787231,0.16969021170735357,-0.0013904314450919628
1733851222132010800,5.9830107421875,0.09609072248935699,0.18045096743553876,-0.016905395963042972
1733851222141978600,5.992978515625,0.05373451279699802,0.10774930384010076,-0.11572992733046412
1733851222151947800,6.00294775390625,0.05467734660506248,0.0761021196886897,-0.25754195203110575
1733851222161916700,6.012916748046875,0.03471300146281719,0.08407119887173176,-0.27525544950664044
1733851222171884800,6.022884765625,-0.003116670715808868,0.06873626709580422,-0.17858634260743855
1733851222181853700,6.032853759765625,-0.07534545610249042,0.16023673918545245,0.0038148821130394935
1733851222191822800,6.04282275390625,-0.09581658172309399,0.2838037898823619,0.1082525771871209
1733851222201791700,6.052791748046875,-0.08568740189671516,0.37984570479393004,0.07535437006130814
1733851222211759900,6.062759765625,-0.0522106642305851,0.33867665905952454,-0.004591419443488121
1733851222221728800,6.072728759765625,-0.07146890693008899,0.21356617831289768,-0.04995952430292964
1733851222231698000,6.082697998046875,-0.1477729789316654,0.16643734739124774,-0.10017784567251801
1733851222241666800,6.092666748046875,-0.2069154882520437,0.12069704821854829,-0.2746637672238052
1733851222251635000,6.102635009765625,-0.21698738493323325,0.13768676146417855,-0.40898762812614436
1733851222261603800,6.112603759765625,-0.26278350594639777,0.2623229026973247,-0.34007454315871
1733851222271572700,6.12257275390625,-0.3549339663773775,0.41013212198615073,-0.2276987485617399
1733851222281542000,6.1325419921875,-0.4962286892056465,0.4209133359804749,-0.12867109583765268
1733851222291509800,6.142509765625,-0.5418967999249696,0.47493747937381264,-0.011039572669565676
1733851222301479000,6.15247900390625,-0.5909387709915638,0.49671325785219667,0.10482128756418824
1733851222311447800,6.16244775390625,-0.5290548540085553,0.29734131684750315,0.09226955676600336
1733851222321417000,6.1724169921875,-0.42605858991444107,0.16777619477957487,-0.0029686405472457407
1733851222331384600,6.182384521484375,-0.4078326128721237,0.09920943903177976,-0.09239639801606535
1733851222341353700,6.192353759765625,-0.3720475982636213,0.02332943766117096,-0.24475948121696708
1733851222351322600,6.202322509765625,-0.2415975100547075,-0.06583645400106906,-0.30008272451013324
1733851222361291500,6.21229150390625,-0.10946984402239322,-0.07338935359865427,-0.3044470571994781
1733851222371259600,6.222259765625,-0.054684945389628405,0.0019888357296586035,-0.33546617258042094
1733851222381228800,6.232228759765625,0.07022387530505657,-0.042084114752709866,-0.3886798763737082
1733851222391197700,6.24219775390625,0.18500585426092148,-0.11522183167785405,-0.47746553654670715
1733851222401166600,6.25216650390625,0.20701777958273887,-0.1429176478549838,-0.2637275087982416
1733851222411134700,6.262134765625,0.23461714964807032,-0.11141717869788408,-0.019217910689115523
1733851222421103600,6.272103515625,0.16466858415305613,-0.1960404584944248,-0.08192103510051965
1733851222431072800,6.28207275390625,0.14770634343624114,-0.21623130586892364,-0.11292699873894452
1733851222441041700,6.292041748046875,0.20170389108359812,-0.2578156544059515,-0.22697014202624557
1733851222451009800,6.302009765625,0.2523760937005281,-0.3034045624092221,-0.3688008714273572
1733851222460978700,6.311978759765625,0.2830161466360092,-0.2620397018417716,-0.3379164883419871
1733851222470947800,6.32194775390625,0.25424948635697364,-0.12930530208796262,-0.31124066286236046
1733851222480916700,6.331916748046875,0.2238999408006668,-0.09628419923484324,-0.33937428593486546
1733851222490884900,6.341884765625,0.2524275316268205,-0.1409700209185481,-0.3554986145228147
1733851222500853800,6.351853759765625,0.26541911514699457,-0.21318653134554624,-0.2926785857334733
1733851222510822700,6.36182275390625,0.15642741003036498,-0.19404373171925543,-0.17128332611769437
1733851222520791800,6.371791748046875,0.03726970020830631,-0.1796972264587879,-0.09601415012180804
1733851222530760000,6.381760009765625,-0.03800970492064953,-0.13842179774045943,-0.01359656367599964
1733851222540728800,6.391728759765625,-0.046075522476434705,-0.09856938756257295,-0.010862170276045798
1733851222550697700,6.40169775390625,-0.03464519692361354,-0.10100509027689694,-0.05282002830058336
1733851222560667000,6.4116669921875,0.016865794605016707,-0.109248310226202,-0.03559446047246456
1733851222570634800,6.421634765625,0.03659340838193893,-0.04220014234781265,0.003062310180068016
1733851222580604000,6.43160400390625,-0.00490647674202919,0.032794892881810665,-0.05162701912373304
1733851222590572800,6.44157275390625,-0.008761398604512215,-0.08847674035429955,-0.149741356395185
1733851222600542000,6.4515419921875,-0.04568272376656532,-0.13044219716340302,-0.1634551167100668
1733851222610509800,6.461509765625,-0.09878478387892245,-0.07723375406712293,-0.11530687961280345
1733851222620479000,6.47147900390625,-0.1458475638270378,0.0073506550237536425,-0.09313888694643974
1733851222630447900,6.48144775390625,-0.1270902563869953,0.01118979479521513,-0.07244944240003824
1733851222640415700,6.491415771484375,-0.09452654191255569,0.005012567465007305,-0.022548808677494526
1733851222650384600,6.501384521484375,-0.018516484421491623,-0.06500555613487959,0.011239186894893645
1733851222660353500,6.511353515625,-0.060170683324337004,-0.10210340690761804,0.0013084522500634193
1733851222670322700,6.52132275390625,-0.10283961222767829,-0.1185132744386792,0.0147398884922266
1733851222680290800,6.531290771484375,-0.10025836356282233,-0.1641781702876091,-0.03694324473291635
1733851222690259700,6.541259765625,-0.10764204407334327,-0.18984014254957438,-0.12243424727469682
1733851222700228600,6.551228515625,-0.15589666415452957,-0.1938490859299898,-0.16023527788072822
1733851222710197800,6.56119775390625,-0.14745909067690371,-0.19457447759509086,-0.1835343204036355
1733851222720165600,6.57116552734375,-0.19610124877095222,-0.11611118173301219,-0.14365706804543732
1733851222730134800,6.581134765625,-0.17172960858047007,-0.05867898346185684,-0.044102761098742484
1733851222740103700,6.591103759765625,-0.13076631455123425,-0.010756371814012526,-0.041459260852634905
1733851222750072800,6.60107275390625,-0.08917816662192345,0.08275690140277146,-0.10776274784356354
1733851222760040700,6.611040771484375,-0.11353694733083247,0.1731616872102022,-0.12720920659154653
1733851222770009900,6.621009765625,-0.14347674304246902,0.13718670298755167,-0.15957243005782365
1733851222779978800,6.630978759765625,-0.17601766116321085,0.03147182758450508,-0.18433190052211285
1733851222789947600,6.64094775390625,-0.1863333034723997,-0.046210547032952305,-0.23194793043881654
1733851222799916500,6.65091650390625,-0.14128361691236496,-0.10243103142678738,-0.2553016257584095
1733851222809885400,6.660885498046875,-0.0589899491071701,-0.15181962397396565,-0.291110605764389
1733851222819854600,6.6708544921875,0.02620236274898052,-0.1965554222792387,-0.3108843967705965
1733851222829823500,6.680823486328125,0.07811141368448733,-0.17175035910755396,-0.3380675872504711
1733851222839791600,6.69079150390625,0.09598200141787529,-0.08855039011240005,-0.30477789658904075
1733851222849760500,6.700760498046875,0.12592355069518088,-0.051718204538524146,-0.1463753870934248
1733851222859729400,6.7107294921875,0.13929215083420277,0.008861644108593464,-0.0922474910646677
1733851222869698600,6.720698486328125,0.1327238783597946,-0.024476854130625725,-0.08910627042949198
1733851222879666700,6.730666748046875,0.11620762784481048,-0.07472030994147062,-0.14436463179290293
1733851222889635600,6.740635498046875,0.1090302835613489,-0.06676818189322949,-0.17007774972021578
1733851222899604500,6.7506044921875,0.16773966216146946,-0.0786667094796896,-0.16664660622775554
1733851222909573600,6.76057373046875,0.1432645615965128,-0.10225245998948812,-0.1713794799685478
1733851222919541500,6.77054150390625,0.15260580591559408,-0.11754063001424074,-0.2049684458374977
1733851222929510700,6.7805107421875,0.20271920560598372,-0.12779343622028827,-0.23149288014769553
1733851222939479600,6.7904794921875,0.13688216708302497,-0.11314911705702542,-0.2751210094720125
1733851222949447400,6.800447509765625,0.07015373267829418,-0.07552227397412062,-0.2564724231034517
1733851222959416300,6.810416259765625,0.0818038384616375,-0.01040858128964901,-0.19538930110931396
1733851222969385500,6.820385498046875,0.0979115081757307,0.010823007309436798,-0.16952186940312386
1733851222979354600,6.830354736328125,0.10938041217327117,0.04219692747741938,-0.11105039121210575
1733851222989322500,6.840322509765625,0.11379939765930175,-0.018970365668833256,-0.02471533906161785
1733851222999291400,6.85029150390625,0.07088146243095397,-0.05018792623132467,-0.015716040048003196
1733851223009260500,6.860260498046875,0.005937573355436325,-0.04325958827286958,-0.059408466780185694
1733851223019229400,6.8702294921875,-0.01994037974476814,-0.04522562764883041,-0.0814770907253027
1733851223029197600,6.880197509765625,-0.02415069091618061,0.0009366963282227516,-0.08806991311907768
1733851223039166500,6.89016650390625,-0.10352642544806002,0.033785949745774264,-0.060250762823224065
1733851223049135400,6.90013525390625,-0.15383213284015654,-0.011451952862739562,-0.10143792873620987
1733851223059104500,6.9101044921875,-0.11893909863531589,-0.09837240368574857,-0.18018237962722777
1733851223069072400,6.920072265625,-0.06968962229788303,-0.12785539554059505,-0.17721183938384055
1733851223079041500,6.93004150390625,-0.044345337682962414,-0.012611644291877746,-0.1840641894966364
1733851223089010400,6.940010498046875,-0.006489362019300461,0.04936170454025268,-0.1088689555197954
1733851223098979600,6.9499794921875,0.026512743872404095,0.05297054268717766,0.03297930953800678
1733851223108947500,6.959947509765625,0.038514731833338735,-0.006362813030183315,0.06840893483757972
1733851223118916600,6.96991650390625,-0.020494506496191025,0.016017068821191787,0.0751069711714983
1733851223128885500,6.979885498046875,-0.11130582727789878,0.016152385638654232,0.048335868623852724
1733851223138853600,6.989853515625,-0.16587912898659704,0.035729192768037314,-0.10277765290737151
1733851223148822500,6.999822509765625,-0.1604647027224302,-0.00452653751373291,-0.11537468415200709
1733851223158791400,7.00979150390625,-0.10587035822570323,-0.046425943349301814,-0.13077800498902797
1733851223168760600,7.019760498046875,-0.07557984938025473,-0.07300649176090955,-0.19958909088671206
1733851223178728700,7.029728759765625,-0.08659984056651591,-0.13198738077878952,-0.23814006307721136
1733851223188697600,7.039697509765625,-0.10107435612082481,-0.1459326117619872,-0.1981359694689512
1733851223198666500,7.04966650390625,-0.09233224673867226,-0.10280161830484867,-0.17588205208480356
1733851223208635600,7.0596357421875,-0.09051555270552634,-0.10271364776045083,-0.14456336923539637
1733851223218603500,7.069603515625,-0.12171674665510654,-0.05188859266936779,-0.16403262433707713
1733851223228572700,7.07957275390625,-0.11879355268478393,-0.06544540885686874,-0.11227964074611663
1733851223238541600,7.08954150390625,-0.11486088941097258,0.0035220366463065145,-0.15148235484361647
1733851223248510700,7.0995107421875,-0.13439035026729107,0.06536240674853325,-0.23041735987067222
1733851223258478300,7.109478271484375,-0.09238017753362655,0.05032002817839384,-0.28047113832831383
1733851223268447500,7.119447509765625,-0.040019291177392,-0.02083177562654018,-0.24547347470521924
1733851223278416400,7.12941650390625,-0.03131283763051033,-0.015632453417778015,-0.17353519669771195
1733851223288385300,7.13938525390625,-0.045646483409404755,-0.003738602006435394,-0.062090837731957435
1733851223298353400,7.149353515625,-0.0785579884082079,-0.10146014056801796,-0.023545710760354995
1733851223308322300,7.159322265625,-0.1302840839922428,-0.16589198846817016,-0.07351122641265392
1733851223318291500,7.16929150390625,-0.13305939392447472,-0.13745295270830393,-0.1113882448643446
1733851223328260400,7.17926025390625,-0.15462883617579937,-0.02602642166018486,-0.12693652713000775
1733851223338228500,7.189228515625,-0.09054010262489319,-0.007048749467730522,-0.24498539892733096
1733851223348197400,7.199197265625,-0.06101707102060318,-0.0167550277069211,-0.2727121947646141
1733851223358166500,7.20916650390625,-0.09096154290735721,-0.031875147688388825,-0.13392331727743148
1733851223368135400,7.219135498046875,-0.10557868180274962,-0.05032996505051851,-0.008629881179332733
1733851223378103600,7.229103515625,-0.11622516350150108,-0.09227496359348297,-0.03907178119421005
1733851223388072400,7.239072509765625,-0.11119944429397582,-0.09062690412551164,-0.0871060365229845
1733851223398041600,7.24904150390625,-0.11485387514829636,-0.029774960538744923,-0.08806523694396018
1733851223408009500,7.259009521484375,-0.08201075921058654,-0.011639292128384113,-0.11407003129422665
1733851223417978600,7.268978515625,-0.056014732688665386,0.016320435681939124,-0.1233218437641859
1733851223427947500,7.278947509765625,-0.07705752071738242,0.044774961271882054,-0.1329594406813383
1733851223437916400,7.28891650390625,-0.12447042927742004,0.1009507297411561,-0.12580723083913325
1733851223447884500,7.298884521484375,-0.14358487959206104,0.05348141481876373,-0.15264379983842372
1733851223457853400,7.308853515625,-0.13218261108994483,-0.000822130037844181,-0.19628186603486536
1733851223467822600,7.318822509765625,-0.07933890965282916,-0.01263502516746521,-0.2946358572810888
1733851223477791500,7.32879150390625,-0.0009767360776662827,-0.003202303172647953,-0.2612999893903732
1733851223487759600,7.338759521484375,0.03685468966662884,-0.04471563230007887,-0.18855740926265716
1733851223497728500,7.348728515625,0.07988017692267894,-0.03190320473909378,-0.13811492374837397
1733851223507697700,7.35869775390625,0.09948153397142886,-0.034331016407907006,-0.1625187126427889
1733851223517666600,7.36866650390625,0.13109306228756903,-0.04103811283111572,-0.2059668092250824
1733851223527634700,7.378634765625,0.11278700574636459,-0.06871347074210643,-0.2350146245330572
1733851223537603600,7.388603515625,0.11294541117846965,-0.03924743002206087,-0.14390695115327834
1733851223547572700,7.39857275390625,0.12652210111021994,-0.024368717581033705,-0.08038637287914753
1733851223557541600,7.408541748046875,0.083472063934803,0.014077625191211699,-0.07024141096174717
1733851223567509500,7.418509521484375,0.12320786199569701,-0.05900514667630195,-0.0970440776914358
1733851223577478400,7.428478515625,0.14779402171969414,-0.09760258835703134,-0.1154489184319973
1733851223587447300,7.438447265625,0.18781623550653456,-0.06317395679354668,-0.06412614295184611
1733851223597416400,7.44841650390625,0.2123585560888052,-0.05597264711260795,-0.03237959007918834
1733851223607384300,7.45838427734375,0.21016221508830785,-0.09418284304141998,-0.018963059145212173
1733851223617353500,7.468353515625,0.18696546389609575,-0.08810703025907278,-0.005907762739062309
1733851223627322400,7.478322265625,0.15984978569447994,-0.08151479238718748,0.027981647381186484
1733851223637290500,7.48829052734375,0.14833704255521296,-0.16194003597199916,-0.04867898297309875
1733851223647259400,7.49825927734375,0.15750994457006454,-0.23626637815982102,-0.1901549075871706
1733851223657228500,7.508228515625,0.2045622031241655,-0.3086719814181328,-0.2732300811588764
1733851223667197400,7.518197509765625,0.27686230018138885,-0.26038082871884105,-0.3278641731441021
1733851223677165600,7.52816552734375,0.362863005810976,-0.24260230318307874,-0.440025740468502
1733851223687134500,7.538134521484375,0.40117198593914505,-0.18688567665815353,-0.3785223472356796
1733851223697103600,7.548103515625,0.399620372582972,-0.14451193130910395,-0.3084475250124931
1733851223707072500,7.558072509765625,0.3617024375990033,-0.15255553703308106,-0.21736966224908827
1733851223717040600,7.56804052734375,0.24174480957090852,-0.02216214744746685,-0.044319034197926516
1733851223727009500,7.578009521484375,0.15771744984090327,0.019666531239449978,0.06737491561472415
1733851223736978400,7.587978515625,0.14504735336005686,-0.03404986137896776,-0.061139820617437356
1733851223746947600,7.597947509765625,0.12009411388933658,-0.08135346434563398,-0.10865209789872168
1733851223756915500,7.60791552734375,0.09695435358136892,-0.1105316280350089,-0.13798983606398105
1733851223766884600,7.617884521484375,0.09457155009806155,-0.1709898961290717,-0.18250643866062163
1733851223776853500,7.627853515625,0.057609892925620076,-0.08094751389324664,-0.13879238461852073
1733851223786822700,7.63782275390625,-0.011052139890193938,0.03893646437674761,-0.12155483409166336
1733851223796790500,7.64779052734375,-0.10446399855911731,0.08605038999021053,-0.12535130376517772
1733851223806759400,7.657759521484375,-0.19565116691589354,0.19738222849220036,-0.007733224600553512
1733851223816728300,7.667728271484375,-0.2815978042706847,0.24685440766960381,0.11054828690886497
1733851223826697500,7.677697509765625,-0.27070786920487877,0.1533428880184889,0.12673778968751429
1733851223836665300,7.687665283203125,-0.2612882989525795,0.10687369004935025,0.13937866007387636
1733851223846634500,7.697634521484375,-0.24268530529141424,0.08090776640474796,0.10824059448838233
1733851223856603400,7.707603271484375,-0.26777649192810055,0.018856676161289214,0.005917115089297294
1733851223866571500,7.717571533203125,-0.27197657396644354,0.05577975488901138,-0.023049451676011082
1733851223876540400,7.72754052734375,-0.2852054733738303,0.12274813552945851,-0.02307750872671604
1733851223886509300,7.73750927734375,-0.3258504952341318,0.23051935894042253,0.05716740985512733
1733851223896478500,7.747478515625,-0.34438626887798307,0.27258272316604854,0.06901683760285376
1733851223906446300,7.7574462890625,-0.307642053848505,0.21907062094807622,-0.008788871133327483
1733851223916415500,7.76741552734375,-0.2986141132622957,0.17686054172813892,-0.09993979913294315
1733851223926384400,7.77738427734375,-0.23758359823822975,0.13100041556805372,-0.21422084282934664
1733851223936353500,7.787353515625,-0.18396131364405155,0.03269581642150879,-0.24568156449794767
1733851223946321400,7.7973212890625,-0.12721359050571918,0.03817804722487926,-0.16303016929626463
1733851223956290600,7.80729052734375,-0.04821691841930151,-0.008859598281979561,-0.1305412736237049
1733851223966259500,7.817259521484375,0.04671323585808277,-0.06215221253037452,-0.17694120574891567
1733851223976228400,7.827228271484375,0.06930909854769707,-0.06267828223109245,-0.1369341895312071
1733851223986196500,7.837196533203125,0.13575813148915766,-0.03497340596467256,-0.17998305766284464
1733851223996165600,7.84716552734375,0.1968038440823555,0.0023775427863001824,-0.3204004131346941
1733851224006134500,7.857134521484375,0.25158640462756154,-0.019539397728443146,-0.3713683838278055
1733851224016103400,7.867103515625,0.3783367615357041,-0.08627689222246408,-0.4128676844298839
1733851224026071300,7.8770712890625,0.42868017058968544,-0.13412643863409757,-0.4133955076962709
1733851224036040200,7.887040283203125,0.4169909018397331,-0.14520254392176865,-0.31179099022150036
1733851224046009300,7.89700927734375,0.3707067050486803,-0.1892874771028757,-0.324027955982089
1733851224055977500,7.9069775390625,0.3186281427651644,-0.22968436942100523,-0.31222704355120656
1733851224065946400,7.9169462890625,0.24524317308068275,-0.22910540048927067,-0.3509294069111347
1733851224075915300,7.926915283203125,0.19310966573953628,-0.17102204483300446,-0.3094885584980249
1733851224085884400,7.936884521484375,0.18215601778775453,-0.0629115064650774,-0.17872224394679068
1733851224095852300,7.946852294921875,0.18753303465098142,-0.045426995439827436,-0.13440613235831259
1733851224105821400,7.956821533203125,0.17525339879244564,0.03534457736462354,-0.12084171738624572
1733851224115790300,7.966790283203125,0.064665364395082,0.05013853413164615,-0.011627893951535224
1733851224125759500,7.976759521484375,-0.034766485215723515,0.12023323009908199,0.12565876227915287
1733851224135727400,7.986727294921875,-0.13755261369049548,0.09639292030632496,0.20817162579298018
1733851224145696500,7.996696533203125,-0.12334376333504915,0.019506664502620695,0.14526011932790278
1733851224155665400,8.00666552734375,-0.1426274327367544,0.008213409332931042,0.12256196530759333
1733851224165634300,8.01663427734375,-0.12549246580153703,0.03149930011332035,0.04788929390013218
1733851224175602400,8.0266025390625,-0.0975645944342017,-0.01736672986447811,-0.0862041192471981
1733851224185571300,8.0365712890625,-0.05256956067085266,-0.06272562850415707,-0.10479425342679023
1733851224195540500,8.04654052734375,-0.08218085508048534,-0.030358021123707293,-0.12010989598035812
1733851224205509400,8.05650927734375,-0.08780483244210481,-0.016397008049488068,-0.05756196213066578
1733851224215477500,8.0664775390625,-0.2655266671746969,0.03151332863867283,0.011262567770481109
1733851224225446400,8.0764462890625,-0.4771811666473746,0.20165888289809225,0.1900070235490799
1733851224235415600,8.08641552734375,-0.5390829115480185,0.1888391488134861,0.3430781088888645
1733851224245384400,8.096384521484374,-0.5680278510034084,0.13513532341569662,0.34856852299869057
1733851224255352600,8.1063525390625,-0.5656134833380579,0.12003946109265089,0.24515140314400194
1733851224265321500,8.116321533203125,-0.4309250269070267,0.09890841025859116,0.1476560745537281
1733851224275290400,8.126290283203126,-0.30431553977429865,0.04859510408192873,0.08247837672233581
1733851224285258500,8.136258544921875,-0.22241847007125615,-0.025613456945121287,0.0995411552041769
1733851224295227600,8.1462275390625,-0.22645079432725906,-0.03761164551377296,0.1397872408747673
1733851224305196500,8.156196533203126,-0.27149814279973505,-0.050992812873423096,0.08703355580866336
1733851224315165400,8.16616552734375,-0.28020751895606516,-0.08569733876883984,0.044299160453677176
1733851224325133300,8.17613330078125,-0.29573987300023435,-0.08502338503003119,-0.0012596446722745894
1733851224335102200,8.186102294921875,-0.3629027532994747,-0.09125701872259379,-0.05515548551082611
1733851224345071400,8.1960712890625,-0.4141448647588491,-0.08413929567188023,-0.002413490882515907
1733851224355040300,8.206040283203125,-0.41296296149790285,-0.12896306452155112,-0.057523968207836146
1733851224365008400,8.21600830078125,-0.3640700435131788,-0.18756313752830028,-0.12734627697467804
1733851224374977300,8.225977294921876,-0.311138956053555,-0.19371932207047937,-0.047266778087615965
1733851224384946400,8.235946533203125,-0.24362097870633004,-0.20345570318698883,0.020890812337398527
1733851224394915300,8.245915283203125,-0.20685206762701272,-0.21697598675638435,0.012205986100435256
1733851224404883500,8.255883544921875,-0.17342384527772664,-0.18118278884142636,0.06898293533325195
1733851224414852400,8.265852294921874,-0.07579904508888721,-0.16598901910185812,0.08335223694741725
1733851224424821500,8.275821533203125,0.031984453281760215,-0.24874241337329148,-0.05283551813066006
1733851224434789400,8.285789306640625,0.12666092505902052,-0.28870880531966686,-0.2702420052587986
1733851224444758500,8.295758544921876,0.259140765529871,-0.3770958215638995,-0.5177274043083191
1733851224454727400,8.3057275390625,0.3808683258399367,-0.3339268341839313,-0.5248012882173061
1733851224464696300,8.3156962890625,0.5151644219525158,-0.2953951512157917,-0.5065682969123125
1733851224474664400,8.32566455078125,0.5701217545427382,-0.25664953323602674,-0.5467541768282651
1733851224484633300,8.33563330078125,0.5644331875123083,-0.15297668505460024,-0.5361246462643147
1733851224494602500,8.3456025390625,0.5497726478666067,-0.0788496648311615,-0.5030488906145095
1733851224504571400,8.3555712890625,0.5813467667818069,-0.05240969393402338,-0.4019096525639295
1733851224514539500,8.36553955078125,0.5507238111115992,-0.036537878802418704,-0.29188159013688564
1733851224524508400,8.37550830078125,0.4891654728211462,-0.05602057790756225,-0.26185470066368577
1733851224534477600,8.3854775390625,0.4556747066296637,0.052257718242704865,-0.21688626264631747
1733851224544446500,8.395446533203126,0.4605408513613045,0.08906184676587581,-0.21118483613431452
1733851224554414600,8.40541455078125,0.45224633961617944,0.06485942566245793,-0.22093466125428676
1733851224564383500,8.415383544921875,0.4746218375533819,0.048743280380964274,-0.1983463973492384
1733851224574352400,8.425352294921876,0.4984814365684986,0.024943887120485304,-0.19844810415804384
1733851224584321500,8.435321533203124,0.5291922166526317,-0.023245851030945775,-0.2378384497821331
1733851224594289400,8.445289306640625,0.5792062476217746,-0.08302899634242057,-0.28089667026400567
1733851224604258600,8.455258544921875,0.6473498095214366,-0.11939297988265753,-0.3051443918138742
1733851224614227500,8.4652275390625,0.6370142934679984,-0.16128946310877798,-0.3807137198001146
1733851224624195300,8.4751953125,0.579549800362438,-0.09811755214184523,-0.3834510358095169
1733851224634164200,8.485164306640625,0.4828998365551233,-0.01973433577865362,-0.34811844114363194
1733851224644133400,8.49513330078125,0.4417430657804012,0.02107552125453949,-0.3249392256081104
1733851224654102300,8.505102294921874,0.401052743473649,0.11037000773251056,-0.26823534161150453
1733851224664070400,8.5150703125,0.39820612187087534,0.13403028478324414,-0.2731915027141571
1733851224674039300,8.525039306640625,0.39692952606379983,0.10708820958286523,-0.3034451866805553
1733851224684008400,8.535008544921874,0.3663968790255487,0.12945610873550176,-0.2320031677573919
1733851224693977300,8.544977294921875,0.3352957844495773,0.13345336167812347,-0.09280044877231121
1733851224703945500,8.554945556640625,0.2813525973379612,0.14440467154234646,-0.027478958556056022
1733851224713914400,8.564914306640626,0.18984744907319545,0.13658435318022966,-0.11371698007285594
1733851224723883300,8.57488330078125,0.1854793169915676,0.07318009476214647,-0.11807049910724163
1733851224733852400,8.584852294921875,0.1269740826614201,0.04648585684299469,-0.13683540533185004
1733851224743820500,8.594820556640625,0.05090820332989096,-0.010022212320566177,-0.16094108806252477
1733851224753789400,8.60478955078125,0.02324979655370116,0.002927285623550415,-0.1963631145775318
1733851224763758300,8.61475830078125,0.022688801670074463,0.049365503932535644,-0.1586924323529005
1733851224773727500,8.6247275390625,-0.045859833899140355,0.10360036746710538,-0.10893851362466811
1733851224783695400,8.6346953125,-0.09225801245868205,0.12155278826504945,-0.1006213516563177
1733851224793664500,8.64466455078125,-0.14982538141682744,0.10910217975378037,-0.05357669188678264
1733851224803634000,8.654634033203125,-0.1380921273946762,0.14261428099423645,-0.019342998373508453
1733851224813602000,8.66460205078125,-0.11635390444770455,0.12731003661751747,-0.002242225968837738
1733851224823571000,8.674571044921874,-0.07760229511857032,0.07024959426820278,-0.049051907938718796
1733851224833539800,8.684539794921875,-0.07753755931928753,0.026515081959962845,-0.089537063062191
1733851224843509000,8.694509033203126,-0.0760346074104309,0.008453647829592228,-0.10266776279211044
1733851224853476900,8.704476806640624,-0.06660451576411723,0.032788755401968954,-0.09390402610003948
1733851224863446000,8.714446044921875,-0.029076456880569455,0.08483370767682791,-0.04674363099634647
1733851224873415000,8.724414794921875,-0.020844635108113286,0.06427198116332292,-0.006034603989124298
1733851224883384000,8.734384033203124,-0.03760346220731735,0.021524726326763628,-0.018066987088322637
1733851224893351700,8.7443515625,-0.030772739404439923,-0.007948036395013331,0.01714285798072815
1733851224903320800,8.75432080078125,-0.036651276049017904,0.0011626140385866165,0.020597382348775863
1733851224913289700,8.764289794921876,-0.09916136210635304,-0.031192133860290048,0.014320786297321319
1733851224923259000,8.7742587890625,-0.11431392305269837,-0.06434796900898218,0.006927168914675712
1733851224933226800,8.784226806640625,-0.13316519238650798,-0.0649941579580307,-0.0150187054336071
1733851224943196000,8.79419580078125,-0.11231894984319805,-0.06583353139162063,0.029627076500654218
1733851224953164800,8.804164794921874,-0.07810337650850414,-0.059734337733685965,0.06550678365528582
1733851224963133000,8.8141328125,-0.08045125480890274,-0.05720540377795696,0.042893969830870626
1733851224973101800,8.824101806640625,-0.06802198134660721,-0.02858341266661882,0.0513216064363718
1733851224983071000,8.834071044921876,-0.05346387916207313,-0.008576981948316097,0.03450140453875065
1733851224993040000,8.844039794921875,-0.03185249746516347,-0.07980594264268874,-0.012964110991358756
1733851225003008000,8.854008056640625,-0.024923428854346275,-0.15365005427151918,-0.06267886675298213
1733851225012977000,8.863976806640625,-0.06340192033052444,-0.16242518914043902,0.03215338010787964
1733851225022945800,8.87394580078125,-0.027404724276065825,-0.1598819343984127,0.07251637015640736
1733851225032915000,8.8839150390625,-0.03254164877310395,-0.1690954606845975,0.02758300345242023
1733851225042882800,8.8938828125,-0.07497969153001904,-0.15448504379093647,0.05837269399166107
1733851225052852000,8.90385205078125,-0.08939633941724896,-0.18283581674546,0.12079729372262954
1733851225062820900,8.91382080078125,-0.08599091488793492,-0.2329346033886075,0.07913666507899761
1733851225072790000,8.9237900390625,-0.04599880397841334,-0.24562252778708935,0.027751930278539658
1733851225082758000,8.9337578125,-0.02577259302958846,-0.21743162156939505,-0.03884615574479103
1733851225092727000,8.94372705078125,-0.02695931859612465,-0.12989625371843574,-0.09429624028801918
1733851225102696000,8.953696044921875,-0.02177797043547034,-0.051881578406691546,-0.058986441975831985
1733851225112664000,8.9636640625,-0.01757365061342716,0.009012743017077446,-0.07475508899390697
1733851225122633000,8.973633056640624,-0.012615882075577973,-0.024082594116032124,-0.07401040810644627
1733851225132601900,8.983601806640625,0.035734161204099654,-0.029395313571393487,-0.04755027120411396
1733851225142571000,8.993571044921875,0.06553250261843205,-0.05726268692314625,-0.053850248131155964
1733851225152539000,9.003538818359376,0.12380699693262576,-0.07271481533795594,-0.06635667848289012
1733851225162507800,9.0135078125,0.165485745754838,-0.051612990598380565,-0.07812427316606044
1733851225172476700,9.0234765625,0.17825287286937236,-0.08098550781607627,-0.057314124849438666
1733851225182445800,9.03344580078125,0.1990836255826056,-0.11879822885990142,-0.13053425936102867
1733851225192413700,9.04341357421875,0.1945154408842325,-0.14722966583520172,-0.16117489681839942
1733851225202382800,9.0533828125,0.16042422458156944,-0.15157324799746275,-0.16898294022083282
1733851225212351700,9.063351806640625,0.14406711015105247,-0.11192132882773875,-0.16080489446222782
1733851225222321000,9.07332080078125,0.15957330684065818,-0.054091947932541365,-0.10868600016832351
1733851225232288800,9.083288818359375,0.17482289842069149,-0.0017068039178848265,-0.044508419290184974
1733851225242258000,9.0932578125,0.16641265134140848,0.05445990446209907,-0.05497311468124389
1733851225252226800,9.103226806640626,0.17328268324136734,0.0638747985392809,-0.11465747579336166
1733851225262195000,9.11319482421875,0.18484350330606103,0.04756956042647362,-0.12087795774340629
1733851225272163800,9.123163818359375,0.2213001335658133,0.022337796275317668,-0.1540437297642231
1733851225282132700,9.1331328125,0.20309680674672126,-0.020162205801904202,-0.1694371137291193
1733851225292102000,9.143101806640624,0.17132029712721705,-0.03736673084199428,-0.13396306476593017
1733851225302070000,9.153070068359375,0.13082330543547868,-0.05605214208960533,-0.15181144066751
1733851225312039000,9.163038818359375,0.11437237524166703,-0.10911562375724315,-0.16903671623468397
1733851225322007800,9.1730078125,0.10530366425365209,-0.11339081685841083,-0.15896715764105318
1733851225331977000,9.18297705078125,0.14666136442795394,-0.12938830419629813,-0.1478390299052
1733851225341944800,9.19294482421875,0.17087869083955884,-0.12266484116017817,-0.1372381409138441
1733851225351914000,9.2029140625,0.23746274833753703,-0.0987242858633399,-0.08819149367213248
1733851225361883000,9.2128828125,0.2875966062940657,-0.06425181515812874,-0.11121990256011485
1733851225371851000,9.22285107421875,0.30649536803141236,-0.04709551317393779,-0.15237375072538853
1733851225381820000,9.23281982421875,0.29639409912526604,-0.027708383397758007,-0.19329379013478754
1733851225391789000,9.2427890625,0.2479135613337159,0.04090338053554296,-0.2087409501135349
1733851225401758000,9.252758056640625,0.24356267264783382,0.06429156264662743,-0.15996552102863787
1733851225411726000,9.26272607421875,0.22524448727741836,0.08388999708592891,-0.14997779549956322
1733851225421695000,9.272695068359376,0.17428455376029015,0.04057984766960144,-0.1922667851746082
1733851225431663900,9.282663818359374,0.10801511516943574,0.054181379781663416,-0.15456863042116165
1733851225441633000,9.292633056640625,0.062291474870592355,0.06091770229935646,-0.12253449277877806
1733851225451601000,9.302600830078125,0.02773088749051094,0.0815115775167942,-0.09150573278665541
1733851225461569800,9.31256982421875,-0.012990998998284339,0.10189531711488961,-0.04642214395701885
1733851225471538700,9.32253857421875,0.0010908639766275881,0.0899035582870245,0.0014864391654729843
1733851225481507800,9.3325078125,-0.01782382598221302,0.09225596663206816,0.027321137645840644
1733851225491475700,9.342475830078126,-0.024851532661914824,0.09185498461574315,0.022715105155110358
1733851225501444900,9.35244482421875,-0.02879281763359904,0.1076300613746047,0.03662789517343044
1733851225511413800,9.362413818359375,-0.03468479828163981,0.14883037903010846,0.0754074154227972
1733851225521382000,9.3723818359375,-0.04239011196196079,0.12520225068330765,0.026736615756154058
1733851225531350800,9.382350830078124,-0.036796968130022284,0.10643120697885751,-0.06134498780071735
1733851225541320000,9.39231982421875,0.0008363046936690807,0.09411240815371275,-0.09325169967114925
1733851225551288800,9.402288818359375,0.027455431549996134,0.048402211858332156,-0.12446283049285412
1733851225561257000,9.412257080078126,0.06148161979243159,0.05458469988554716,-0.15302958428561686
1733851225571225900,9.422225830078125,0.11431903761923312,0.0752069244146347,-0.12426000139713286
1733851225581194800,9.43219482421875,0.12996259695291518,0.050260406945645805,-0.09223112445175648
1733851225591164000,9.442163818359376,0.12414996515139937,0.04350450294464826,-0.078766662722826
1733851225601132000,9.452132080078124,0.13601838986054063,0.025481354998052118,-0.13684884933531283
1733851225611101000,9.462100830078125,0.17875395425930618,-0.014793372245132922,-0.19225567925870418
1733851225621069800,9.47206982421875,0.16660276708602903,-0.005698211641609668,-0.1442091489702463
1733851225631038000,9.482037841796876,0.13337401283159853,-0.02854424970000982,-0.12112345693707466
1733851225641006800,9.4920068359375,0.09104688310325146,-0.010240531246364116,-0.13942951347827912
1733851225650976000,9.50197607421875,0.1009615433961153,-0.005486614717543125,-0.1582481957167387
1733851225660945000,9.51194482421875,0.11484116179719567,-0.010685352404415607,-0.17642624196410178
1733851225670913000,9.5219130859375,0.09326207493469119,-0.01415478208065033,-0.09546060789227485
1733851225680882000,9.5318818359375,0.10354279206097125,0.016992343594133853,-0.019619477227330206
1733851225690851000,9.54185107421875,0.11288315959721804,-0.001855272477865219,-0.006941781961917877
1733851225700820000,9.551820068359374,0.1360594525232911,0.01403057117909193,-0.03637538171708583
1733851225710787800,9.561787841796875,0.14976795214116573,0.03021042934656143,-0.05661795927882194
1733851225720756700,9.5717568359375,0.1599251890182495,0.03758212715834379,-0.06842004075348376
1733851225730726000,9.581725830078126,0.16492577378451823,0.006032850423455238,-0.0962730933189392
1733851225740693800,9.59169384765625,0.1859201926268637,-0.07445289117693901,-0.1626741954654455
1733851225750663000,9.601662841796875,0.19486060106009243,-0.07031652202457189,-0.2131558439463377
1733851225760631800,9.6116318359375,0.21080957308113574,-0.030678339119255542,-0.19335867206454277
1733851225770600700,9.6216005859375,0.2170364847719669,-0.028415654884278774,-0.18157412624657154
1733851225780568800,9.63156884765625,0.19948124659806488,0.003772504276037216,-0.09330664472877978
1733851225790537700,9.641537841796875,0.20094372036606073,-0.0034650457620620727,-0.061952890565991396
1733851225800507000,9.6515068359375,0.21486060203760862,-0.009546411502361298,-0.054205052918195724
1733851225810475500,9.6614755859375,0.21179054694250224,0.008593933083117008,-0.09953121833205222
1733851225820443400,9.671443359375,0.2514820674702525,-0.04328180010467767,-0.13968962571918964
1733851225830412300,9.681412353515626,0.23785861578732728,-0.07168371872454882,-0.18905249930322168
1733851225840381700,9.691381591796874,0.15853987213969228,-0.07946049020588397,-0.1724555847674608
1733851225850349300,9.701349365234375,0.07015636302679777,-0.057469607672095295,-0.16419745950996875
1733851225860318500,9.711318359375,0.04224018209725618,-0.03071662530303001,-0.12989829954504967
1733851225870287400,9.721287353515624,0.025561726757884023,-0.030320027200877665,-0.06678104137480259
1733851225880256500,9.731256591796875,0.02518587918281555,-0.006842120979726314,-0.010694412493705749
1733851225890224400,9.741224365234375,0.026359014615416527,0.03894201733469963,-0.005440145227313041
1733851225900193500,9.751193603515626,0.09148761260807514,0.05289397031962871,0.0000011690437793731689
1733851225910162400,9.761162353515624,0.07498129896521567,0.0871384774878621,0.02487082188427448
1733851225920131300,9.77113134765625,0.09567541968673467,0.10133856001496315,0.04222118513584137
1733851225930099500,9.781099365234375,0.0913463044412434,0.09714753806591034,0.03361000865697861
1733851225940068600,9.791068603515624,0.08006970814540981,0.10497370164692402,0.003998129725456237
1733851225950037500,9.80103759765625,0.09326397463083266,0.13737024286091326,-0.06606441753804683
1733851225960005600,9.811005615234375,0.048529929891228674,0.11867226439267396,-0.08759177421331406
1733851225969974500,9.820974609375,0.06807634188234805,0.08814005574584007,-0.12818798849582672
1733851225979943400,9.830943359375,0.047535658156871795,0.04632745141088962,-0.1146820257127285
1733851225989912600,9.84091259765625,0.023125147260725495,0.03557575577199459,-0.08061024476289749
1733851225999880400,9.85088037109375,0.025333178699016568,-0.005419686961174011,-0.09436229126155377
1733851226009849600,9.860849609375,0.041649522727727886,-0.006366320161521434,-0.1378448746353388
1733851226019818500,9.870818603515625,0.027255378933250904,0.002171498820185661,-0.11726502794325351
1733851226029787600,9.88078759765625,-0.03639993163645267,0.07357377025485039,-0.04674538456201553
1733851226039755500,9.890755615234376,-0.0883320711866021,0.09594780688732862,0.006968085446953773
1733851226049724700,9.900724609375,-0.17298282351195812,0.10787293021976947,0.015010522127151489
1733851226059693600,9.910693603515625,-0.19605419475883246,0.13070990818887948,0.003443418452143669
1733851226069661700,9.92066162109375,-0.16381488993316887,0.0897509980738163,0.07073182482719421
1733851226079630600,9.930630615234374,-0.1312426998913288,0.09205606014579534,0.14165537283420562
1733851226089599500,9.940599609375,-0.09643938979655503,0.04247399085313081,0.14864625463485717
1733851226099568600,9.950568603515626,-0.10878332306295632,0.015273849238455295,0.13611235175430775
1733851226109536500,9.96053662109375,-0.13546820863187312,0.04510726196616888,0.11067395911514759
1733851226119505400,9.97050537109375,-0.13238047174960374,0.06158785664588213,0.07363280696570873
1733851226129474300,9.980474365234375,-0.15112316614240406,0.060845806106925006,0.0264776725590229
1733851226139443500,9.990443359375,-0.1756748390749097,0.03136719816625118,-0.005941665008664131
1733851226149411300,10.000411376953124,-0.16055267326682804,-0.03431494205594063,-0.03009235592484474
1733851226159380500,10.01038037109375,-0.16096797606945037,-0.013151450257003306,-0.028303134420514107
1733851226169349400,10.020349365234376,-0.1653583199828863,0.01296703360080719,0.01702595360279083
1733851226179317500,10.0303173828125,-0.1577399539336562,0.07827449529170989,0.03457096264362335
1733851226189286400,10.040286376953125,-0.1597422336667776,0.099177290327847,0.005738835912942886
1733851226199255600,10.050255615234375,-0.16635171493440865,0.1257920332700014,-0.0016050971090793608
1733851226209224400,10.060224365234374,-0.16208324383497238,0.1302124800607562,0.030796704801917076
1733851226219192600,10.070192626953125,-0.14533493812978268,0.10184534049332142,0.04199029898941516
1733851226229161500,10.080161376953125,-0.11601239753365516,0.10751607960611581,0.031089550268650054
1733851226239130600,10.090130615234376,-0.11563304282724857,0.08769260423928499,0.0054524201869964595
1733851226249098500,10.100098388671874,-0.12351385920494794,-0.018806991800665855,-0.024659809482097624
1733851226259067600,10.110067626953125,-0.1121808565467596,-0.09564414776563644,-0.031523850032687185
1733851226269036500,10.12003662109375,-0.14195084864944219,-0.10822510465830563,-0.028147067075967785
1733851226279005400,10.13000537109375,-0.1605678708359599,-0.11544804164916277,0.034679683715105054
1733851226288973600,10.1399736328125,-0.14143500808179377,-0.037084991291165346,0.08283084342181682
1733851226298942500,10.1499423828125,-0.13314210377186536,-0.0012254501417279242,0.079372811922431
1733851226308911600,10.15991162109375,-0.10143296030014752,0.016884207044541834,0.06716098060309887
1733851226318880500,10.169880615234375,-0.11169161172509193,0.04544949953258037,0.028681320083141327
1733851226328848600,10.1798486328125,-0.10555442414432764,0.07934358582794666,-0.06330488969683647
1733851226338817500,10.189817626953126,-0.12138678404837847,0.09499591298997402,-0.0850935276567936
1733851226348786700,10.19978662109375,-0.13357991066724062,0.11159195074290036,-0.08419628655612468
1733851226358754300,10.20975439453125,-0.16395663649141787,0.07804507045000791,0.020436054307222364
1733851226368723500,10.219723388671875,-0.19325725751668213,0.05667553468495607,0.14973229630589485
1733851226378692400,10.2296923828125,-0.20339725099802017,0.04003828813880682,0.18461714720427988
1733851226388661500,10.23966162109375,-0.19486352366954088,0.03840425719618797,0.17596973036825656
1733851226398629400,10.24962939453125,-0.20933044043928384,0.07235153498351574,0.11748188556432723
1733851226408598500,10.2595986328125,-0.17719722633659837,0.09579407763034105,0.03134966250956058
1733851226418567400,10.2695673828125,-0.1522279125139117,0.08625292682498693,-0.07283435006439685
1733851226428535600,10.27953564453125,-0.12582476649582386,0.08710019130408764,-0.11591828950941561
1733851226438504400,10.28950439453125,-0.0955365957379341,0.10064531705379486,-0.046890345990657806
1733851226448473300,10.299473388671874,-0.08798808005452155,0.12287731486707926,-0.03739069623947144
1733851226458442500,10.3094423828125,-0.0825458890005946,0.1064540033325553,-0.058496612632274625
1733851226468410400,10.319410400390625,-0.0867725667849183,0.1247705812677741,-0.033684242936968804
1733851226478379500,10.329379638671876,-0.08669336406886577,0.1493593713402748,-0.07714402995705603
1733851226488348400,10.339348388671874,-0.0608916910752654,0.12026830141246318,-0.09153086722791194
1733851226498317600,10.349317626953125,-0.05668079538196325,0.05800152259171009,-0.09989946712255478
1733851226508285400,10.359285400390625,-0.0216980370670557,0.016045125871896743,-0.15266133549511432
1733851226518254600,10.369254638671874,-0.0612926730915904,-0.011645721869170665,-0.16727847439050675
1733851226528223500,10.379223388671875,-0.04660188443809747,-0.034489129579067225,-0.1269862114906311
1733851226538191600,10.389191650390625,-0.027175007173418995,-0.017856266947090624,-0.0824701934158802
1733851226548160500,10.399160400390626,-0.010327332746982575,0.0352133522003889,-0.06460369733572006
1733851226558129700,10.409129638671875,0.034579145950078966,0.05750643255114555,-0.03134615537822246
1733851226568098600,10.4190986328125,0.028559447269141672,0.048203474415838714,-0.03420563646256924
1733851226578066700,10.429066650390626,0.02800795086622238,0.09846183553487062,-0.007201894202828407
1733851226588035600,10.43903564453125,0.020078619171679017,0.09150397922098637,0.03382511271238327
1733851226598004500,10.44900439453125,0.027030922527611256,0.04325257401019335,0.007229366731643676
1733851226607972600,10.45897265625,0.05176759663820266,0.03512596617788076,-0.02259878529906273
1733851226617941500,10.46894140625,0.08501169459223747,0.0403594829171896,-0.0308913973480463
1733851226627910700,10.47891064453125,0.13081716795563697,-0.0021738369077444076,-0.09160977768301963
1733851226637879600,10.488879638671875,0.1480436125665903,-0.04076689467430115,-0.11636603327691554
1733851226647847400,10.498847412109376,0.13864479284137488,-0.07587737102210522,-0.11020575708150863
1733851226657816300,10.50881640625,0.11714666226059198,-0.0550292287826538,-0.07148878067433834
1733851226667785500,10.518785400390625,0.08861147264987229,-0.03610007190704345,-0.06432546491622924
1733851226677754400,10.52875439453125,0.06383622009456158,-0.015433715975284576,-0.0856546686708927
1733851226687722500,10.538722412109376,0.03434212232381105,0.01441226397305727,-0.08068447904288768
1733851226697691400,10.54869140625,0.025646190170943734,-0.03056640317738056,-0.071869888946414
1733851226707660500,10.55866064453125,0.054502866820991036,-0.055736792530119414,-0.03513736435472965
1733851226717628400,10.56862841796875,0.033600071784853934,-0.03672141867578029,0.057170332464575764
1733851226727597600,10.57859765625,0.043436113883554936,-0.016165245120227337,0.08744681278467178
1733851226737566500,10.58856640625,0.028571429967880247,0.045505905894935125,0.05003799636662006
1733851226747535400,10.598535400390626,0.019121026185899972,0.08464812197685241,-0.0004319616764783859
1733851226757503500,10.60850341796875,0.013746785801649094,0.056525020298361775,-0.13863982440531253
1733851226767472400,10.618472412109375,0.026119360640645024,0.04463964445441961,-0.24395254874825475
1733851226777441500,10.628441650390625,0.037255817813426254,0.0772638569444418,-0.24032325233519075
1733851226787409700,10.63840966796875,0.05347790768742561,0.09357464801520109,-0.22413842573165893
1733851226797378600,10.648378662109375,0.047507601106166836,0.1457481951057911,-0.259649884095788
1733851226807347500,10.658347412109375,0.0494232254691422,0.13219956222474574,-0.25210896719694137
1733851226817316600,10.668316650390626,0.017227613654732705,0.07626520129591226,-0.19098083701729773
1733851226827284500,10.678284423828124,0.008230652728676796,0.02563333068937063,-0.1913572691142559
1733851226837253600,10.688253662109375,-0.011762918508052824,-0.062062780681252476,-0.1073573819130659
1733851226847222500,10.698222412109375,-0.022069208467006683,-0.10245090517103671,0.012024784314632416
1733851226857190700,10.708190673828126,0.03380406992435455,-0.07409341021478176,0.10778174480497836
1733851226867159600,10.71815966796875,0.031102702011168,-0.06722001731395721,0.21441958027184008
1733851226877128700,10.728128662109375,-0.029813392852991817,-0.07088175469189882,0.3043184623837471
1733851226887097600,10.73809765625,-0.11102452611848711,-0.12431816132515668,0.21563947745561599
1733851226897065500,10.7480654296875,-0.2047457429975271,-0.16194149727672338,-0.03378536522388458
1733851226907034400,10.758034423828125,-0.2777390830159187,-0.1946086721256375,-0.08364157528281212
1733851226917003500,10.76800341796875,-0.3742072605155408,-0.03847147721350193,0.012886954101920128
1733851226926971400,10.777971435546876,-0.41497751619070766,0.08027326789349318,0.09983984588980674
1733851226936940500,10.7879404296875,-0.3761040340475738,0.10400310304909943,0.1869172408401966
1733851226946909400,10.797909423828125,-0.32256811256259676,0.12481792754083872,0.12380816597640514
1733851226956878300,10.80787841796875,-0.20743074429780245,0.10386661718785763,0.1481260301530361
1733851226966846500,10.817846435546874,-0.10100596705973147,0.12671703916043042,0.1316997960090637
1733851226976815400,10.8278154296875,0.0046207916684448715,0.023392858286201954,0.10647416933774947
1733851226986784500,10.837784423828126,0.05543225662559271,-0.07356120303422212,0.10709025540947914
1733851226996753400,10.84775341796875,0.05060381355583667,-0.1845382367491722,-0.019051906472444532
1733851227006721500,10.857721435546875,0.01863353492990136,-0.29263474659174676,-0.10617138699889182
1733851227016690400,10.8676904296875,0.005629676450043916,-0.3508247774928808,-0.16405249808132646
1733851227026659600,10.87765966796875,-0.05730301893353462,-0.36791210589408874,-0.20754034215211867
1733851227036627500,10.88762744140625,-0.06782850460112094,-0.17664806802123784,-0.12615794397294522
1733851227046596600,10.8975966796875,-0.03703589145243168,-0.0894675049573183,-0.07765490208864212
1733851227056565500,10.9075654296875,-0.023012042275071143,0.04667436515241861,-0.0349871422290802
1733851227066534400,10.917534423828124,0.00045651159584522244,0.10589666171073912,-0.059251814913749694
1733851227076502500,10.92750244140625,0.021229835033416748,0.0818754423931241,-0.10455401493012904
1733851227086471700,10.9374716796875,0.09523863570466637,0.06552022765874863,-0.12238368613123893
1733851227096440600,10.947440673828124,0.12272007847875356,0.03612462182641029,-0.15325696330070496
1733851227106408700,10.95740869140625,0.12475859856903553,-0.028029870437085627,-0.11831366021335124
1733851227116377600,10.967377685546875,0.05770984616875648,-0.17390519905388355,-0.11645721869170665
1733851227126346500,10.977346435546876,0.016813918287307023,-0.19413783974349497,-0.029321371552348135
1733851227136315600,10.987315673828125,0.03856090906262397,-0.19493162046968937,-0.026018822875618932
1733851227146283300,10.997283203125,0.09911854587793349,-0.20048808555305003,-0.09547112928628922
1733851227156252700,11.007252685546876,0.1473166134662926,-0.1500499839529395,-0.06844400615096091
1733851227166221600,11.0172216796875,0.178396226862818,-0.039193069486320016,-0.09368307682573795
1733851227176189400,11.027189453125,0.17179229855313896,-0.005450374360382556,-0.11125614291727542
1733851227186158300,11.037158447265625,0.18636209117546676,0.026619126856327054,-0.14142740929722786
1733851227196127500,11.04712744140625,0.17030410582199693,-0.04138444205075502,-0.17854396477043627
1733851227206096400,11.057096435546875,0.11150631828606128,-0.09562281271666288,-0.14330956978201864
1733851227216064500,11.067064453125,0.05791735143959522,-0.10340016871988773,-0.05907821191251278
1733851227226033400,11.077033447265626,0.04810249825939536,-0.2599883222699165,-0.03198912945687771
1733851227236002600,11.08700244140625,0.15127894122600555,-0.3473752215608954,-0.13399053729474544
1733851227245970400,11.096970458984375,0.2505572077102959,-0.3606102584481239,-0.2322299622505903
1733851227255939600,11.106939697265625,0.32550928058102724,-0.42720951351523395,-0.25126725567579267
1733851227265908500,11.116908447265626,0.4094283576309681,-0.2675003053352237,-0.3007178075432777
1733851227275877400,11.12687744140625,0.35676994963288305,-0.059358490158617494,-0.1875228055179119
1733851227285845500,11.136845458984375,0.23102073259130118,0.06483370669931172,0.03318038506805897
1733851227295814400,11.146814453125,0.09866744110956788,0.2075418034568429,0.10975918235778807
1733851227305783600,11.156783447265624,0.033180531198531385,0.03592559212297201,0.028563831183314323
1733851227315751700,11.166751708984375,-0.0396000428520143,-0.1538458691045642,-0.1340133336484432
1733851227325720600,11.176720458984375,-0.06443301694393158,-0.24490648847222327,-0.2427653847903013
1733851227335689500,11.186689453125,-0.05581190359294414,-0.17147008086144924,-0.0939379283696413
1733851227345658600,11.19665869140625,-0.00847074509486556,-0.00571340921074152,-0.07460369782447815
1733851227355626500,11.20662646484375,0.0690865418381989,0.280491304333508,-0.11743863094449043
1733851227365595600,11.216595703125,0.18011925126314163,0.3242319541215896,-0.15110358465909957
1733851227375564500,11.226564453125,0.21555705986917018,0.3159250212863087,-0.12744506117403506
1733851227385532700,11.23653271484375,0.15940715649351478,0.26083850935846564,-0.053149406385421746
1733851227395501600,11.24650146484375,0.15536650280058384,-0.002868541173636913,-0.01187339314520359
1733851227405470700,11.256470703125,0.043138884502649306,-0.20316753389537334,-0.05458849927783012
1733851227415439600,11.266439697265625,-0.044405543437600135,-0.27178046687245366,-0.12683949649631976
1733851227425407500,11.276407470703125,-0.05619578834399581,-0.13962941996455192,-0.13434884921312332
1733851227435376400,11.28637646484375,-0.059483723973482845,0.017233166612684727,-0.17411796502172946
1733851227445345300,11.29634521484375,-0.024303104998916386,0.2756406494319439,-0.11144728157520294
1733851227455314400,11.306314453125,0.015262012670189142,0.3935764162436127,-0.02973638209402561
1733851227465282600,11.316282470703126,0.03212240044772625,0.4420446790754795,0.01847907502055168
1733851227475251500,11.32625146484375,0.07655190928280353,0.36274639369398354,0.012495324435830115
1733851227485220400,11.336220458984375,0.014205050963163376,0.23772592931836842,-0.11401976241171359
1733851227495188500,11.3461884765625,-0.09223799258396029,0.14852145921140908,-0.20948037030398844
1733851227505157400,11.356157470703126,-0.1365441673003137,0.10553016648590564,-0.21100480339229105
1733851227515126500,11.36612646484375,-0.21144611741900443,0.11782616895735264,-0.19520342314839362
1733851227525095400,11.376095458984375,-0.13794453561753034,0.13030337321460247,-0.29364918433129783
1733851227535063600,11.3860634765625,-0.023598171599954365,0.15466741462051867,-0.4499795637279749
1733851227545032400,11.396032470703124,0.09315130803659558,0.17951164075881243,-0.4247638739287853
1733851227555001600,11.406001708984375,0.18521043692231176,0.16953180627524853,-0.29450843150913714
1733851227564969500,11.415969482421875,0.22605624205172062,0.25340689805299044,-0.08678104235231876
1733851227574938600,11.425938720703124,0.23266776914596557,0.17909546117335556,-0.0907785875558853
1733851227584907500,11.435907470703125,0.15890125279799103,0.19318769941180944,-0.08488894499540328
1733851227594875600,11.445875732421875,0.14592004454135893,0.1920458359003067,0.020921791997551918
1733851227604844500,11.455844482421876,0.19866876117140053,0.20812398725897072,0.06617781478464603
1733851227614813400,11.4658134765625,0.24976298859268425,0.17232085247188805,0.010907178461551665
1733851227624782600,11.475782470703125,0.21681495097577572,0.12569061872214077,0.07229717444777488
1733851227634750700,11.485750732421875,0.11985577508881687,-0.028937048409879207,0.12088964818120002
1733851227644719600,11.4957197265625,0.03880012464597821,-0.11883680730462073,0.1462783564597368
1733851227654688500,11.5056884765625,-0.021890198638290167,-0.21338643783181904,0.13150631926357745
1733851227664656400,11.515656494140625,-0.05254501075148582,-0.2736012525588274,-0.07283318102061748
1733851227674625300,11.525625244140626,-0.06313947000205516,-0.15592705929279327,-0.2357937922120094
1733851227684594400,11.535594482421875,-0.03735153327286243,0.0696969288215041,-0.24107260939776895
1733851227694563300,11.545563232421875,0.06933160264044999,0.13545038071423768,-0.029459903240203856
1733851227704531500,11.555531494140626,0.10658990467190742,0.10255378102362156,0.2010696848332882
1733851227714500400,11.565500244140624,0.055961248935759066,0.020317104102671145,0.390713135766983
1733851227724469500,11.575469482421875,-0.047998307232558726,-0.11979483868181705,0.47075054907798763
1733851227734437400,11.585437255859375,-0.13694821805655955,-0.15318331354260445,0.4562070599406957
1733851227744406500,11.595406494140626,-0.209124980995059,-0.16771686580777168,0.38314766894876956
1733851227754375400,11.60537548828125,-0.2959270661354065,-0.12860066094994543,0.2678787832587957
1733851227764344600,11.615344482421875,-0.3723156015500426,-0.048185354237258435,0.09763210671246052
1733851227774312400,11.6253125,-0.3947572965912521,0.0739390964359045,0.047076808473467825
1733851227784281600,11.635281494140624,-0.3806488378703594,0.14311989242881534,0.0772679485976696
1733851227794250500,11.64525048828125,-0.3333578021243214,0.14859773931801318,0.1957008512765169
1733851227804217900,11.6552177734375,-0.2622220726713538,0.07354922033548354,0.31837270669937134
1733851227814186800,11.665186767578126,-0.20885303218588233,-0.021891806073486803,0.24495909544229505
1733851227824156000,11.675156005859375,-0.138910311909765,-0.19471826997995376,0.07333411628007888
1733851227834124800,11.685124755859375,-0.08470686642676592,-0.303488733561337,-0.14020692759156225
1733851227844093000,11.695093017578126,-0.0961542892448604,-0.2575438517272472,-0.24544717122018336
1733851227854061800,11.705061767578124,-0.03718289870768785,-0.12943126655519008,-0.3062999915897846
1733851227864030700,11.71503076171875,0.04247019146084785,-0.12846300604492425,-0.5072130245566367
1733851227873998600,11.72499853515625,0.10557605145424603,-0.04108779719173908,-0.6101824006438255
1733851227883967700,11.7349677734375,0.15726283794119952,0.028941432324051854,-0.4529489349275827
1733851227893937000,11.74493701171875,0.14558935128226874,0.060252516388893125,-0.24690263072550295
1733851227903905800,11.75490576171875,0.13152575461640953,-0.09328823228925466,-0.20406535951793192
1733851227913873700,11.764873779296876,0.1368345285490155,-0.2698594356819987,-0.19719839635789393
1733851227923842600,11.774842529296874,0.13872896399348975,-0.42916532375812527,-0.15274375308156013
1733851227933811700,11.784811767578125,0.10551993735283613,-0.34105244828015563,-0.08918576540648937
1733851227943779600,11.794779541015625,0.1073661497414112,-0.217200443162024,-0.02416238135397434
1733851227953748700,11.804748779296874,0.13655921873897314,-0.003103226712346077,0.11034370424747467
1733851227963717600,11.814717529296875,0.14148936861753464,0.11493746177852153,0.12096505150496958
1733851227973686800,11.824686767578125,0.10702332765311003,0.17849661849737167,0.050477556827664374
1733851227983654700,11.834654541015626,0.06520604714304208,0.18540128331929445,-0.002385433831810951
1733851227993623800,11.844623779296874,0.038435821378231046,0.15302549263238907,0.03805179049670696
1733851228003592700,11.8545927734375,-0.04064063794612884,0.10904694243520498,0.08541326113045215
1733851228013560800,11.864560791015625,-0.12015125090405344,0.14277064059972763,0.2662251708328724
1733851228023529700,11.87452978515625,-0.15910729676410554,0.09302958135306835,0.37841654877364633
1733851228033499000,11.884498779296875,-0.16760989830195902,0.0476093079149723,0.30828210531771183
1733851228043467800,11.8944677734375,-0.14107450420632958,-0.002848375168442726,0.18216507787704467
1733851228053436000,11.904435791015626,-0.06631576195061206,-0.0007853051587939262,0.04144903171956539
1733851228063404800,11.91440478515625,0.012031214055418968,-0.005866846206784248,-0.10664192712008952
1733851228073373700,11.924373779296875,0.019320055889338255,0.007932254303991795,-0.21460662727653979
1733851228083341800,11.934341796875,0.019186931028962136,0.0378866630628705,-0.2680325125157833
1733851228093310700,11.944310791015624,0.03337327729165554,0.06431348221749067,-0.30870296107828615
1733851228103279900,11.95427978515625,0.08861877917349338,0.049693128451704975,-0.3084656451910734
1733851228113248800,11.964248779296875,0.11905614914372563,0.04015577703863382,-0.257499428063631
1733851228123217000,11.974216796875,0.10387246240675449,0.03564356031119823,-0.21882687532007694
1733851228133185800,11.984185791015625,0.01797989332675934,0.03345511035621166,-0.1592068116158247
1733851228143155000,11.994155029296875,-0.10758636836335063,0.006465104360878467,-0.043892333218455315
1733851228153122600,12.00412255859375,-0.20981647039055823,-0.025522563791275023,0.016433248406648636
1733851228163091700,12.014091796875,-0.27065993840992447,0.017442717710137366,0.046646015840768815
1733851228173060600,12.024060546875,-0.2999678659588098,0.11037819103896618,0.12148644503057002
1733851228183029800,12.03402978515625,-0.2783789883546531,0.23587182588428257,0.15215397049486637
1733851228192997600,12.04399755859375,-0.215789553450793,0.2702516498699784,0.1762771888822317
1733851228202966800,12.053966796875,-0.13362272689566015,0.24236644860059023,0.17066285613179205
1733851228212935700,12.063935791015625,-0.10223039428815245,0.19911796624362468,0.0847311240851879
1733851228222903800,12.07390380859375,-0.08896291643604635,0.16081979977041483,-0.028722821137309073
1733851228232872700,12.083872802734374,-0.09386471700295805,0.09450140747129916,-0.17317688477933404
1733851228242841600,12.093841552734375,-0.12677446843609214,-0.025286709208786486,-0.23389994128942487
1733851228252810800,12.103810791015626,-0.1541382761798799,-0.0476835421949625,-0.1563742185384035
1733851228262779000,12.11377880859375,-0.1267627779982984,0.008090951997041702,-0.054898880401253694
1733851228272747800,12.123747802734375,-0.08677154387161135,0.06369388901442288,0.00144610715508461
