time,seconds_elapsed,z,y,x
1733851216160725000,0.01172509765625,-0.7283207774162292,-0.2535349428653717,1.0157252550125122
1733851216170693000,0.021693115234375,-0.7488076686859131,-0.2297365516424179,1.1259084939956665
1733851216180662300,0.031662353515625,-0.6432215571403503,-0.3993045687675476,1.314473032951355
1733851216190631200,0.041631103515625,-0.31890493631362915,-0.656782329082489,1.5453726053237915
1733851216200600000,0.05160009765625,0.46908289194107056,-0.760646402835846,1.7696025371551514
1733851216210569200,0.0615693359375,1.1502759456634521,-0.7531036138534546,1.8266276121139526
1733851216220537000,0.071537109375,1.2274367809295654,-1.0023478269577026,1.8052704334259033
1733851216230506200,0.08150634765625,0.7483178973197937,-1.4472302198410034,1.7893445491790771
1733851216240475100,0.09147509765625,0.19664567708969116,-1.7967402935028076,1.8550316095352173
1733851216250444300,0.1014443359375,-0.11724620312452316,-1.9384162425994873,2.087430000305176
1733851216260412200,0.111412109375,-0.32600075006484985,-1.8627464771270752,2.3583946228027344
1733851216270381300,0.12138134765625,-0.633392870426178,-1.6899155378341675,2.5087013244628906
1733851216280350200,0.13135009765625,-0.9951241612434387,-1.5264812707901,2.555687189102173
1733851216290319000,0.141319091796875,-1.278809905052185,-1.5160728693008423,2.6699130535125732
1733851216300287200,0.151287353515625,-1.4142543077468872,-1.8921120166778564,2.9749093055725098
1733851216310256000,0.161256103515625,-1.484696865081787,-2.549861431121826,3.4536428451538086
1733851216320225300,0.171225341796875,-1.5059587955474854,-3.197951555252075,4.082397937774658
1733851216330194200,0.181194091796875,-1.4761890172958374,-3.7295475006103516,4.761271953582764
1733851216340163300,0.191163330078125,-1.4749482870101929,-4.258879661560059,5.426122665405273
1733851216350131000,0.201130859375,-1.6377016305923462,-4.81255578994751,6.0165205001831055
1733851216360100000,0.21110009765625,-1.947721242904663,-5.190548896789551,6.546515464782715
1733851216370069000,0.221069091796875,-2.1298909187316895,-5.493563652038574,7.05263614654541
1733851216380038100,0.2310380859375,-2.1286611557006836,-5.938787460327148,7.6234025955200195
1733851216390006000,0.241006103515625,-2.2687125205993652,-6.721297740936279,8.307472229003906
1733851216399975200,0.25097509765625,-2.6816115379333496,-7.361453533172607,8.703557968139648
1733851216409944000,0.260944091796875,-3.243204116821289,-7.514802932739258,8.499617576599121
1733851216419913000,0.270912841796875,-3.633854627609253,-7.0801682472229,7.843965530395508
1733851216429881000,0.280881103515625,-3.798920154571533,-6.00795841217041,7.133981704711914
1733851216439850000,0.29085009765625,-3.8131465911865234,-5.012784481048584,6.548863887786865
1733851216449819100,0.300819091796875,-3.797396659851074,-4.54568338394165,5.988032341003418
1733851216459788000,0.3107880859375,-3.7631752490997314,-4.520544528961182,5.486556529998779
1733851216469757200,0.320757080078125,-3.78524112701416,-4.471246719360352,5.140077114105225
1733851216479725000,0.33072509765625,-3.794433832168579,-4.061697006225586,4.945054531097412
1733851216489694200,0.340694091796875,-3.6926262378692627,-3.2677528858184814,4.686934471130371
1733851216499663000,0.3506630859375,-3.5042433738708496,-2.664036273956299,4.3235931396484375
1733851216509632000,0.360632080078125,-3.298222780227661,-2.678377866744995,4.018832206726074
1733851216519600000,0.37060009765625,-3.175004243850708,-3.2222743034362793,3.888850688934326
1733851216529569000,0.380569091796875,-3.1831986904144287,-3.955240249633789,4.011932849884033
1733851216539538200,0.3905380859375,-3.3701913356781006,-4.607187271118164,4.3801960945129395
1733851216549507000,0.400507080078125,-3.6049368381500244,-5.078922748565674,4.889944553375244
1733851216559475200,0.41047509765625,-3.772972583770752,-5.292181015014648,5.386386394500732
1733851216569444000,0.420444091796875,-3.9485254287719727,-5.1338725090026855,5.735132694244385
1733851216579413200,0.430413330078125,-4.017125129699707,-4.713319778442383,5.872012138366699
1733851216589382100,0.440382080078125,-3.9852547645568848,-4.365878582000732,5.759299278259277
1733851216599351000,0.45035107421875,-3.914738893508911,-4.239940166473389,5.4231696128845215
1733851216609319200,0.460319091796875,-3.7643182277679443,-4.1882500648498535,5.0229692459106445
1733851216619288300,0.470288330078125,-3.5823349952697754,-4.165256023406982,4.705399990081787
1733851216629257200,0.48025732421875,-3.4341611862182617,-4.090363502502441,4.474220275878906
1733851216639226000,0.49022607421875,-3.378538131713867,-3.9311282634735107,4.316616058349609
1733851216649194200,0.5001943359375,-3.3611888885498047,-3.586418867111206,4.294311046600342
1733851216659163100,0.5101630859375,-3.3966009616851807,-3.31912899017334,4.242519378662109
1733851216669132300,0.52013232421875,-3.3791911602020264,-3.3142943382263184,4.020854949951172
1733851216679101200,0.53010107421875,-3.279059410095215,-3.4451074600219727,3.7320456504821777
1733851216689069000,0.540069091796875,-3.1458215713500977,-3.465259552001953,3.495166063308716
1733851216699038000,0.550037841796875,-2.9757628440856934,-3.334986448287964,3.341855049133301
1733851216709007000,0.560007080078125,-2.8187403678894043,-3.216893434524536,3.2557852268218994
1733851216718976000,0.56997607421875,-2.6742608547210693,-3.159640312194824,3.2667057514190674
1733851216728945000,0.57994482421875,-2.5174553394317627,-3.0118653774261475,3.4259731769561768
1733851216738913000,0.5899130859375,-2.34049391746521,-2.754197597503662,3.5993638038635254
1733851216748882200,0.599882080078125,-2.1164345741271973,-2.5063271522521973,3.6142654418945312
1733851216758851000,0.60985107421875,-1.8940942287445068,-2.329526424407959,3.407975435256958
1733851216768820000,0.619820068359375,-1.6873371601104736,-2.2219479084014893,3.0505869388580322
1733851216778788000,0.6297880859375,-1.4899063110351562,-2.1951775550842285,2.694918155670166
1733851216788757000,0.639757080078125,-1.3226099014282227,-2.0687801837921143,2.5113720893859863
1733851216798726400,0.649726318359375,-1.224933385848999,-1.8203368186950684,2.5263466835021973
1733851216808695300,0.6596953125,-1.1689789295196533,-1.602518081665039,2.62719464302063
1733851216818663400,0.669663330078125,-1.13240385055542,-1.3652034997940063,2.7495694160461426
1733851216828632300,0.67963232421875,-1.1593579053878784,-1.0971873998641968,2.806541919708252
1733851216838601500,0.6896015625,-1.169607400894165,-0.9490799307823181,2.7800722122192383
1733851216848570400,0.6995703125,-1.1259068250656128,-0.9401662945747375,2.75480580329895
1733851216858538500,0.70953857421875,-1.0704935789108276,-0.9838048815727234,2.758666515350342
1733851216868507400,0.71950732421875,-1.0087642669677734,-1.01803457736969,2.7633771896362305
1733851216878476300,0.729476318359375,-1.0020948648452759,-0.9753561019897461,2.7329673767089844
1733851216888445400,0.739445556640625,-1.083620309829712,-0.8226567506790161,2.65234112739563
1733851216898414300,0.749414306640625,-1.2407574653625488,-0.5368225574493408,2.523662567138672
1733851216908382500,0.759382568359375,-1.4346894025802612,-0.17313989996910095,2.3064279556274414
1733851216918351400,0.769351318359375,-1.5059199333190918,0.15505795180797577,2.021723508834839
1733851216928320500,0.779320556640625,-1.4423271417617798,0.47053977847099304,1.7690378427505493
1733851216938289400,0.789289306640625,-1.3489162921905518,0.6489989757537842,1.600252389907837
1733851216948257500,0.799257568359375,-1.236312747001648,0.6479843854904175,1.5417845249176025
1733851216958226400,0.809226318359375,-1.1412773132324219,0.6100937724113464,1.582716464996338
1733851216968195300,0.8191953125,-1.026329755783081,0.5947487354278564,1.6435962915420532
1733851216978164500,0.82916455078125,-0.8711216449737549,0.5392383933067322,1.6082862615585327
1733851216988132400,0.83913232421875,-0.763488233089447,0.5520632863044739,1.341227650642395
1733851216998101500,0.8491015625,-0.72792649269104,0.6225675344467163,0.8375447988510132
1733851217008070400,0.8590703125,-0.7094678282737732,0.6107044219970703,0.30191078782081604
1733851217018039600,0.86903955078125,-0.6615554690361023,0.4719851315021515,0.045833196491003036
1733851217028007200,0.879007080078125,-0.6318921446800232,0.21724070608615875,0.13081130385398865
1733851217037976300,0.888976318359375,-0.6544637680053711,0.01875000074505806,0.3432431221008301
1733851217047945200,0.8989453125,-0.7247866988182068,-0.08077986538410187,0.4737016558647156
1733851217057914400,0.908914306640625,-0.8067334890365601,-0.06915383040904999,0.4506365656852722
1733851217067882200,0.91888232421875,-0.8310033679008484,0.0639185830950737,0.35392093658447266
1733851217077851400,0.928851318359375,-0.8235161900520325,0.19690538942813873,0.3257574737071991
1733851217087820300,0.9388203125,-0.8439245223999023,0.13448497653007507,0.40204501152038574
1733851217097789200,0.9487890625,-0.8903066515922546,-0.10924085974693298,0.455784410238266
1733851217107758300,0.95875830078125,-0.9708273410797119,-0.2903660535812378,0.42565733194351196
1733851217117726200,0.968726318359375,-1.0326850414276123,-0.2862277626991272,0.35154181718826294
1733851217127695400,0.9786953125,-1.0609126091003418,-0.25438013672828674,0.28232425451278687
1733851217137664300,0.988664306640625,-1.0082107782363892,-0.2593248188495636,0.232782781124115
1733851217147633400,0.99863330078125,-0.890194833278656,-0.27628612518310547,0.17469008266925812
1733851217157601300,1.008601318359375,-0.7947508692741394,-0.22002682089805603,0.1165279820561409
1733851217167570400,1.0185703125,-0.774251401424408,-0.13546331226825714,0.11983836442232132
1733851217177539300,1.028539306640625,-0.75638347864151,-0.1305929273366928,0.18729835748672485
1733851217187508200,1.03850830078125,-0.727477490901947,-0.2447773814201355,0.29789918661117554
1733851217197476400,1.048476318359375,-0.7287217378616333,-0.45513486862182617,0.44867244362831116
1733851217207445500,1.058445556640625,-0.7268399596214294,-0.7421799898147583,0.6375516057014465
1733851217217414400,1.068414306640625,-0.7040081024169922,-1.084018588066101,0.8399451971054077
1733851217227383300,1.07838330078125,-0.6765645742416382,-1.3538618087768555,0.9976918697357178
1733851217237352400,1.0883525390625,-0.6618660688400269,-1.5184056758880615,1.1005017757415771
1733851217247320300,1.0983203125,-0.6744311451911926,-1.5843106508255005,1.158828616142273
1733851217257289500,1.10828955078125,-0.7003205418586731,-1.5767723321914673,1.1861852407455444
1733851217267258400,1.11825830078125,-0.7263728380203247,-1.501222014427185,1.188510775566101
1733851217277227500,1.1282275390625,-0.7548404335975647,-1.3787155151367188,1.1778030395507812
1733851217287195400,1.1381953125,-0.7646341323852539,-1.2495577335357666,1.117010235786438
1733851217297164500,1.14816455078125,-0.7318133115768433,-1.1889656782150269,1.004425048828125
1733851217307133400,1.158133544921875,-0.6587750315666199,-1.209058165550232,0.8652143478393555
1733851217317102300,1.168102294921875,-0.5694339275360107,-1.1832242012023926,0.7029662728309631
1733851217327070500,1.178070556640625,-0.50053870677948,-0.949033796787262,0.5473276376724243
1733851217337039400,1.188039306640625,-0.4581840932369232,-0.6124935746192932,0.41976669430732727
1733851217347008500,1.198008544921875,-0.43577778339385986,-0.34520480036735535,0.33779317140579224
1733851217356977400,1.207977294921875,-0.424110472202301,-0.23496218025684357,0.290588915348053
1733851217366945300,1.2179453125,-0.409595787525177,-0.29881879687309265,0.25775498151779175
1733851217376914200,1.2279140625,-0.3736630976200104,-0.3644132614135742,0.2375495880842209
1733851217386883600,1.237883544921875,-0.31024035811424255,-0.35579052567481995,0.22190526127815247
1733851217396852500,1.2478525390625,-0.23757842183113098,-0.41155073046684265,0.17025485634803772
1733851217406820400,1.2578203125,-0.15788497030735016,-0.4505274295806885,0.15265582501888275
1733851217416789200,1.267789306640625,-0.08485043793916702,-0.38461339473724365,0.1722700148820877
1733851217426758400,1.27775830078125,-0.03352780640125275,-0.29629629850387573,0.17466717958450317
1733851217436727300,1.287727294921875,-0.00923418439924717,-0.22535687685012817,0.1735934019088745
1733851217446696200,1.2976962890625,0.007124141789972782,-0.19569702446460724,0.19933892786502838
1733851217456664300,1.307664306640625,-0.003533030394464731,-0.31092241406440735,0.2547491788864136
1733851217466633200,1.31763330078125,-0.026622386649250984,-0.5075200200080872,0.35884514451026917
1733851217476602400,1.327602294921875,-0.04405916482210159,-0.6472437977790833,0.46567198634147644
1733851217486571300,1.3375712890625,-0.07868918776512146,-0.7020177841186523,0.5461347699165344
1733851217496539400,1.347539306640625,-0.1103014424443245,-0.4849605858325958,0.5959217548370361
1733851217506508300,1.35750830078125,-0.10493601113557816,0.0005244931671768427,0.5932469964027405
1733851217516477400,1.3674775390625,-0.05688272416591644,0.49965813755989075,0.5063642859458923
1733851217526446300,1.3774462890625,0.019695639610290527,0.77571702003479,0.3475901782512665
1733851217536414500,1.38741455078125,0.08819480985403061,0.7465934753417969,0.18247897922992706
1733851217546383400,1.39738330078125,0.1144161969423294,0.5716564059257507,0.051638972014188766
1733851217556352300,1.407352294921875,0.12242911756038666,0.419996052980423,-0.04643752798438072
1733851217566321400,1.4173212890625,0.1535765528678894,0.3507801294326782,-0.09365542978048325
1733851217576289500,1.42728955078125,0.2318258136510849,0.2945607900619507,-0.09113501757383347
1733851217586258400,1.437258544921875,0.27534347772598267,0.2086515724658966,-0.02818242274224758
1733851217596227300,1.447227294921875,0.27680182456970215,0.150753915309906,0.09732623398303986
1733851217606196500,1.457196533203125,0.25592759251594543,0.10303967446088791,0.2194565385580063
1733851217616164400,1.467164306640625,0.23370243608951569,0.11197218298912048,0.2970418632030487
1733851217626133500,1.477133544921875,0.21513023972511292,0.15667824447155,0.3345331847667694
1733851217636102400,1.487102294921875,0.18485063314437866,0.14330624043941498,0.3349696695804596
1733851217646071600,1.497071533203125,0.15521371364593506,0.11873316019773483,0.3053390681743622
1733851217656040400,1.50704052734375,0.12788915634155273,0.14316047728061676,0.24737563729286194
1733851217666008600,1.517008544921875,0.13572528958320618,0.19244688749313354,0.17935144901275635
1733851217675977500,1.5269775390625,0.14116452634334564,0.22746692597866058,0.1290866881608963
1733851217685946400,1.5369462890625,0.10350033640861511,0.25608503818511963,0.11059889942407608
1733851217695915500,1.54691552734375,0.06952612102031708,0.25186607241630554,0.10211034119129181
1733851217705883400,1.55688330078125,0.051844581961631775,0.21402914822101593,0.091342031955719
1733851217715852300,1.566852294921875,0.0475584901869297,0.20032665133476257,0.0738421380519867
1733851217725821400,1.576821533203125,0.04298264905810356,0.21124747395515442,0.05708712711930275
1733851217735790600,1.58679052734375,0.03804461658000946,0.19508607685565948,0.05072003975510597
1733851217745758200,1.59675830078125,0.03157935291528702,0.15094272792339325,0.05049470439553261
1733851217755727400,1.606727294921875,0.03149732947349548,0.13599200546741486,0.05478186160326004
1733851217765696300,1.6166962890625,0.03569669649004936,0.13265196979045868,0.06264223903417587
1733851217775665400,1.62666552734375,0.02388104796409607,0.1205630749464035,0.07280459254980087
1733851217785633300,1.63663330078125,0.01076567079871893,0.11773618310689926,0.07887681573629379
1733851217795602700,1.646602783203125,0.0048768892884254456,0.11543920636177063,0.0676574558019638
1733851217805571600,1.656571533203125,-0.007062251213937998,0.07345721870660782,0.0630335584282875
1733851217815540500,1.66654052734375,-0.025454040616750717,0.05646997690200806,0.06303488463163376
1733851217825508600,1.676508544921875,-0.029070189222693443,0.07276138663291931,0.06112348660826683
1733851217835477500,1.6864775390625,-0.02724512480199337,0.07840649038553238,0.06154266744852066
1733851217845446700,1.69644677734375,-0.025666670873761177,0.07704326510429382,0.0790398120880127
1733851217855415600,1.70641552734375,-0.0336202047765255,0.05848582461476326,0.09451597183942795
1733851217865384700,1.716384765625,-0.04108380526304245,0.052196890115737915,0.08503168821334839
1733851217875352600,1.7263525390625,-0.04376906901597977,0.07186859846115112,0.057827502489089966
1733851217885321700,1.73632177734375,-0.04186677560210228,0.08514765650033951,0.033027347177267075
1733851217895290600,1.74629052734375,-0.03538677096366882,0.049860499799251556,0.014041936956346035
1733851217905259500,1.756259521484375,-0.025866674259305,0.022575493901968002,-0.013283459469676018
1733851217915227600,1.7662275390625,-0.015008967369794846,0.043226975947618484,-0.01191273145377636
1733851217925196500,1.776196533203125,-0.009626656770706177,0.04688616842031479,0.022829869762063026
1733851217935165700,1.786165771484375,-0.01100084837526083,0.049080342054367065,0.05630500614643097
1733851217945134600,1.796134521484375,-0.008460990153253078,0.0729355588555336,0.0712456926703453
1733851217955102700,1.806102783203125,-0.006769882515072823,0.07914445549249649,0.06778811663389206
1733851217965071600,1.816071533203125,-0.0058976043947041035,0.09185320138931274,0.06074056029319763
1733851217975040800,1.826040771484375,-0.001516970805823803,0.09266120195388794,0.0518336147069931
1733851217985009700,1.836009765625,0.007062230724841356,0.08260147273540497,0.035749778151512146
1733851217994977800,1.845977783203125,0.013096154667437077,0.06303789466619492,0.01796971634030342
1733851218004946700,1.85594677734375,-0.0028767171315848827,0.02637428790330887,-0.018994592130184174
1733851218014915600,1.86591552734375,-0.009289342910051346,0.038456518203020096,-0.03680714592337608
1733851218024884700,1.875884765625,-0.008939465507864952,0.03930499404668808,-0.028061924502253532
1733851218034852900,1.885852783203125,-0.007657685317099094,0.034398384392261505,-0.008075166493654251
1733851218044821800,1.89582177734375,0.003444264642894268,0.038164231926202774,-0.0020831541623920202
1733851218054790700,1.905790771484375,0.00974743440747261,0.036609746515750885,-0.006490419618785381
1733851218064759800,1.915759765625,0.010566135868430138,0.029636995866894722,-0.011940328404307365
1733851218074728700,1.925728759765625,0.00442781625315547,0.029828744009137154,-0.008565571159124374
1733851218084696800,1.93569677734375,-0.019184160977602005,0.016963578760623932,-0.010819362476468086
1733851218094665700,1.945665771484375,-0.03058408759534359,0.002182768192142248,-0.02011139690876007
1733851218104635000,1.955634765625,-0.03425881266593933,0.005049878731369972,-0.024409351870417595
1733851218114603800,1.965603759765625,-0.03410967439413071,-0.0031428036745637655,-0.022430889308452606
1733851218124571600,1.975571533203125,-0.030911987647414207,0.0031588573474437,-0.02092275395989418
1733851218134540500,1.98554052734375,-0.02683521993458271,0.014842945151031017,-0.01833149790763855
1733851218144509400,1.995509521484375,-0.01921434886753559,0.01936751790344715,-0.015782220289111137
1733851218154478800,2.005478759765625,-0.014939176850020885,0.01784871704876423,-0.015163036994636059
1733851218164446700,2.01544677734375,-0.012671009637415409,0.01968209818005562,-0.010651892051100731
1733851218174415600,2.02541552734375,-0.005282335449010134,0.022012364119291306,-0.007950646802783012
1733851218184384500,2.035384521484375,0.004569730255752802,0.022555027157068253,-0.005392670165747404
1733851218194353700,2.045353759765625,0.021313823759555817,0.008301790803670883,-0.006645155604928732
1733851218204321500,2.055321533203125,0.033044420182704926,0.006731713190674782,-0.010633207857608795
1733851218214290700,2.065290771484375,0.0326116569340229,0.012073216028511524,-0.0077996039763092995
1733851218224259600,2.075259521484375,0.023217279464006424,0.01099003292620182,0.0005934647051617503
1733851218234228700,2.085228759765625,0.01149590965360403,0.010316519066691399,0.00596665870398283
1733851218244196600,2.095196533203125,0.009328925982117653,0.0178973451256752,0.01546498853713274
1733851218254165800,2.105165771484375,0.016452083364129066,0.025418642908334732,0.02036999724805355
1733851218264134700,2.115134765625,0.02382357232272625,0.024572523310780525,0.01918831281363964
1733851218274103600,2.125103515625,0.026564763858914375,0.022590864449739456,0.016136063262820244
1733851218284072700,2.13507275390625,0.029705241322517395,0.015221173875033855,0.009540095925331116
1733851218294040600,2.14504052734375,0.031038153916597366,0.02104843780398369,0.003913103137165308
1733851218304009700,2.155009765625,0.024518314749002457,0.01529053132981062,0.003578844014555216
1733851218313978600,2.164978515625,0.017460139468312263,0.014980007894337177,0.001916498877108097
1733851218323947800,2.17494775390625,0.014573786407709122,0.01756032556295395,-0.002263508504256606
1733851218333915600,2.18491552734375,0.012276810593903065,0.02123708464205265,-0.003919195383787155
1733851218343884800,2.194884765625,0.008665766566991806,0.014952598139643669,-0.008357510901987553
1733851218353853700,2.204853759765625,0.00438873004168272,0.004906621761620045,-0.007061882875859737
1733851218363822600,2.214822509765625,0.0038435496389865875,0.013631799258291721,0.00046031479723751545
1733851218373790700,2.224790771484375,0.017919154837727547,0.020256947726011276,-0.00004302244633436203
1733851218383759600,2.234759521484375,0.03568395972251892,0.02857477031648159,-0.0009476719424128532
1733851218393728800,2.244728759765625,0.05007115378975868,0.027759043499827385,0.0008457006188109517
1733851218403697700,2.25469775390625,0.052715517580509186,0.029741130769252777,0.005163091700524092
1733851218413665800,2.264665771484375,0.05280260369181633,0.034056782722473145,0.008789517916738987
1733851218423634700,2.274634765625,0.0507642962038517,0.026799697428941727,0.008695483207702637
1733851218433603800,2.284603759765625,0.04876852408051491,0.01754947379231453,0.010170340538024902
1733851218443572700,2.29457275390625,0.059664659202098846,0.017293570563197136,0.004918029997497797
1733851218453540600,2.30454052734375,0.06798171252012253,0.020581509917974472,0.005257316865026951
1733851218463509500,2.314509521484375,0.06463359296321869,0.018052838742733,0.00997084565460682
1733851218473478700,2.324478759765625,0.056709084659814835,0.006953848525881767,0.015240708366036415
1733851218483447800,2.33444775390625,0.053856946527957916,0.019924234598875046,0.01831529289484024
1733851218493415700,2.344415771484375,0.05347238853573799,0.023939749225974083,0.014149576425552368
1733851218503384600,2.354384521484375,0.04107231646776199,0.0166010819375515,0.017309902235865593
1733851218513353500,2.364353515625,0.02192685380578041,0.011240936815738678,0.01686115935444832
1733851218523322600,2.374322509765625,0.00307193910703063,0.013263075612485409,0.016653433442115784
1733851218533291500,2.38429150390625,-0.01201380230486393,0.018963303416967392,0.015043817460536957
1733851218543259600,2.394259765625,-0.018010392785072327,0.025254113599658012,0.014013252221047878
1733851218553228500,2.404228515625,-0.016095314174890518,0.029608115553855896,0.01441645435988903
1733851218563197700,2.41419775390625,-0.009641927666962147,0.025986285880208015,0.01823497749865055
1733851218573166600,2.42416650390625,-0.009497851133346558,0.010782032273709774,0.009990628808736801
1733851218583134700,2.434134765625,-0.008158659562468529,0.006197551265358925,0.0021955890115350485
1733851218593103600,2.444103515625,-0.011410378850996494,0.009735028259456158,0.00013323710300028324
1733851218603072800,2.45407275390625,-0.01991409808397293,0.006333876401185989,-0.0006649072747677565
1733851218613041700,2.464041748046875,-0.02550540491938591,0.011932107619941235,0.006859587971121073
1733851218623009800,2.474009765625,-0.02200283482670784,0.020354116335511208,0.007203663699328899
1733851218632978700,2.483978759765625,-0.006587926764041185,0.03137188032269478,0.0014770680572837591
1733851218642947600,2.493947509765625,0.008335052989423275,0.03395196422934532,0.0006036615232005715
1733851218652916700,2.503916748046875,0.019978659227490425,0.03280787169933319,0.0020367084071040154
1733851218662884600,2.513884521484375,0.016185015439987183,0.02231626585125923,0.003436538390815258
1733851218672853800,2.523853759765625,0.003062288276851177,0.010980254970490932,0.00013288715854287148
1733851218682822700,2.53382275390625,-0.011616162024438381,-0.00030239811167120934,-0.005220807157456875
1733851218692791800,2.543791748046875,-0.02306535840034485,-0.011301252990961075,-0.00690712034702301
1733851218702759700,2.553759765625,-0.029418468475341797,-0.015544235706329346,-0.00692154373973608
1733851218712728800,2.563728759765625,-0.034888338297605515,-0.014778310433030128,-0.009763402864336967
1733851218722697700,2.57369775390625,-0.03308332338929176,-0.0054109347984194756,-0.00884272251278162
1733851218732666600,2.58366650390625,-0.023769984021782875,0.0029191665817052126,-0.00508393719792366
1733851218742634800,2.593634765625,-0.0086359279230237,0.015178926289081573,-0.001422481844201684
1733851218752603600,2.603603759765625,0.001397797022946179,0.017888693138957024,0.00925466325134039
1733851218762572800,2.61357275390625,0.0053308019414544106,0.014546582475304604,0.01444204431027174
1733851218772541700,2.623541748046875,0.0024170372635126114,0.0070298099890351295,0.012531491927802563
1733851218782509600,2.633509521484375,-0.0005592345260083675,0.0010337780695408583,0.0077099883928895
1733851218792478500,2.643478515625,-0.005768110975623131,-0.00996214710175991,0.001204684842377901
1733851218802447400,2.653447265625,-0.007138760760426521,-0.012691061943769455,-0.005552311427891254
1733851218812416300,2.663416259765625,-0.003446021815761924,-0.006694422103464603,-0.00986263807862997
1733851218822385400,2.673385498046875,0.00548136280849576,-0.0017182640731334686,-0.007135186810046434
1733851218832353300,2.683353271484375,0.010829256847500801,0.0017590252682566643,-0.0035199462436139584
1733851218842322400,2.693322509765625,0.013452613726258278,0.008420375175774097,0.0026888155844062567
1733851218852291300,2.703291259765625,0.009722590446472168,0.009079241193830967,0.00864311121404171
1733851218862260200,2.71326025390625,0.005510831251740456,0.004133888520300388,0.012618311680853367
1733851218872228400,2.723228271484375,-0.003935134503990412,0.0005394201725721359,0.008548468351364136
1733851218882197500,2.733197509765625,-0.012957816012203693,-0.007808845490217209,0.00033932412043213844
1733851218892166400,2.74316650390625,-0.01676187664270401,-0.010755100287497044,-0.001956320833414793
1733851218902135300,2.75313525390625,-0.02035696804523468,-0.016871459782123566,-0.004034085664898157
1733851218912103400,2.763103515625,-0.005212637595832348,-0.010998922400176525,-0.007533213123679161
1733851218922072300,2.773072265625,0.01606307365000248,-0.003158911596983671,-0.012434843927621841
1733851218932041500,2.78304150390625,0.024157218635082245,-0.003009774722158909,-0.012774130329489708
1733851218942010400,2.79301025390625,0.026425015181303024,0.004932684823870659,-0.0038206102326512337
1733851218951978200,2.802978271484375,0.020660603418946266,0.013192745856940746,0.004500170238316059
1733851218961947100,2.812947021484375,0.009241057559847832,0.015602033585309982,0.008488655090332031
1733851218971916300,2.822916259765625,-0.005328031722456217,0.01137879304587841,0.009096121415495872
1733851218981885200,2.83288525390625,-0.014543691650032997,0.00735709723085165,0.0068084970116615295
1733851218991853300,2.842853271484375,-0.025735892355442047,0.001664057606831193,0.0001910740975290537
1733851219001822200,2.852822265625,-0.022085141390562057,0.0013313556555658579,-0.007138874381780624
1733851219011791000,2.862791015625,-0.008164534345269203,0.004382006824016571,-0.011364512145519257
1733851219021760300,2.87276025390625,0.0027401403058320284,0.003215371398255229,-0.009514355100691319
1733851219031728400,2.882728271484375,0.006488539278507233,0.0007620675023645163,-0.0062647657468914986
1733851219041697300,2.892697265625,0.007002483122050762,0.008691690862178802,-0.0024076933041214943
1733851219051666200,2.902666259765625,0.005972106475383043,0.010733270086348057,0.005154885351657867
1733851219061635300,2.91263525390625,0.010564162395894527,0.006444426253437996,0.009839394129812717
1733851219071604200,2.922604248046875,0.012644623406231403,0.003929337486624718,0.011520647443830967
1733851219081572400,2.932572265625,0.011408603750169277,-0.004068073816597462,0.008525672368705273
1733851219091541200,2.942541259765625,0.006356321275234222,-0.012576607055962086,0.005361038260161877
1733851219101510400,2.952510498046875,-0.0036286688409745693,-0.023001817986369133,0.0032821749337017536
1733851219111479300,2.962479248046875,-0.014110071584582329,-0.02520851232111454,0.0030819051899015903
1733851219121447400,2.972447509765625,-0.01904863491654396,-0.027723118662834167,0.0009035334223881364
1733851219131416300,2.982416259765625,-0.022632185369729996,-0.024800032377243042,0.0003591831773519516
1733851219141385200,2.99238525390625,-0.020856468006968498,-0.02136697806417942,0.0035552664194256067
1733851219151354400,3.002354248046875,-0.019447388127446175,-0.012841933406889439,0.0018007759936153889
1733851219161322200,3.012322265625,-0.0099876057356596,-0.0028917016461491585,-0.005213623400777578
1733851219171291400,3.02229150390625,-0.003084159456193447,0.005134266801178455,-0.0059427968226373196
1733851219181260300,3.03226025390625,-0.005109025165438652,0.01344683300703764,-0.0016083952505141497
1733851219191229400,3.0422294921875,0.0013818973675370216,0.011745871976017952,0.003966133110225201
1733851219201197300,3.052197265625,-0.002683384343981743,0.018956203013658524,0.007864462211728096
1733851219211166500,3.06216650390625,-0.0019989516586065292,0.015144686214625835,0.011336158961057663
1733851219221135400,3.07213525390625,-0.0017462787218391895,0.006831088103353977,0.00905110314488411
1733851219231104300,3.082104248046875,-0.0017191143706440926,-0.00786103866994381,0.0009348536841571331
1733851219241072000,3.092072021484375,-0.0032359932083636522,-0.014093576930463314,-0.008251218125224113
1733851219251041500,3.10204150390625,-0.012851336039602757,-0.01433512568473816,-0.010765242390334606
1733851219261010400,3.112010498046875,-0.026534657925367355,-0.01470051147043705,-0.009141512215137482
1733851219270979300,3.121979248046875,-0.03220506012439728,-0.008607199415564537,-0.006986483000218868
1733851219280947200,3.131947265625,-0.03311975672841072,-0.0086654769256711,-0.004196401685476303
1733851219290916000,3.141916015625,-0.029069356620311737,-0.0054691508412361145,-0.004111712798476219
1733851219300885200,3.15188525390625,-0.02378242090344429,-0.008450107648968697,-0.0036892651114612818
1733851219310854100,3.161854248046875,-0.011054109781980515,-0.006407196633517742,-0.0016199888195842505
1733851219320822300,3.171822265625,-0.003798388410359621,-0.011325263418257236,0.0019871972035616636
1733851219330791200,3.181791259765625,-0.0021645394153892994,-0.022427449002861977,0.0045028189197182655
1733851219340760300,3.19176025390625,-0.0015888280468061566,-0.02498963475227356,-0.00020208023488521576
1733851219350729200,3.201729248046875,-0.000831158715300262,-0.022071076557040215,-0.008327650837600231
1733851219360697300,3.211697265625,-0.0011281473562121391,-0.02285105548799038,-0.008494348265230656
1733851219370666200,3.221666259765625,-0.007886983454227448,-0.029873544350266457,-0.006573676131665707
1733851219380635100,3.23163525390625,-0.012488815933465958,-0.020500916987657547,-0.010454557836055756
1733851219390604300,3.241604248046875,-0.020531294867396355,-0.01882951706647873,-0.011727016419172287
1733851219400572400,3.251572509765625,-0.02395300567150116,-0.018078001216053963,-0.011162935756146908
1733851219410541300,3.261541259765625,-0.024718398228287697,-0.015120294876396656,-0.008563424460589886
1733851219420510200,3.27151025390625,-0.024166570976376534,-0.017903011292219162,-0.006254551932215691
1733851219430479400,3.281479248046875,-0.02186240442097187,-0.02113528922200203,-0.0034523741342127323
1733851219440448300,3.2914482421875,-0.01630479469895363,-0.01599622331559658,-0.004977607633918524
1733851219450416400,3.30141650390625,-0.007767765317112207,-0.011835566721856594,0.002303740940988064
1733851219460385300,3.31138525390625,0.010053339414298534,-0.005011078901588917,0.006320219486951828
1733851219470354400,3.3213544921875,0.02041729725897312,-0.0018432490760460496,0.009648904204368591
1733851219480323300,3.3313232421875,0.027218539267778397,-0.0020749366376549006,0.010237794369459152
1733851219490291500,3.34129150390625,0.028769033029675484,-0.008615926839411259,0.008378108963370323
1733851219500260400,3.35126025390625,0.028524864464998245,-0.01314597763121128,0.004134255461394787
1733851219510229200,3.361229248046875,0.022684818133711815,-0.020741047337651253,-0.0008884663693606853
1733851219520198400,3.371198486328125,0.013816524296998978,-0.030214354395866394,-0.0004139011725783348
1733851219530166300,3.381166259765625,0.004416631069034338,-0.02272048592567444,0.005312427878379822
1733851219540135400,3.391135498046875,-0.0037832087837159634,-0.02280641533434391,0.010572163388133049
1733851219550104300,3.401104248046875,-0.0011112592183053493,-0.010244552046060562,0.017202103510499
1733851219560073500,3.411073486328125,0.0029708342626690865,-0.00010190345346927643,0.026966050267219543
1733851219570041000,3.421041015625,0.022068895399570465,0.004285387694835663,0.04540977254509926
1733851219580010500,3.431010498046875,0.03456870838999748,0.016996655613183975,0.07380147278308868
1733851219589979400,3.4409794921875,0.05412137135863304,-0.002814066596329212,0.11547860503196716
1733851219599948300,3.4509482421875,0.07377548515796661,-0.01448916643857956,0.1650037318468094
1733851219609916200,3.460916259765625,0.0891919881105423,-0.04553177207708359,0.21133208274841309
1733851219619885300,3.47088525390625,0.0946078896522522,-0.0942474976181984,0.24541011452674866
1733851219629854200,3.480854248046875,0.09058012068271637,-0.13994069397449493,0.27258235216140747
1733851219639823000,3.490822998046875,0.09743521362543106,-0.1588849276304245,0.2925873398780823
1733851219649791200,3.500791259765625,0.08970831334590912,-0.16916686296463013,0.3157254159450531
1733851219659760000,3.510760009765625,0.09431383013725281,-0.15902402997016907,0.32269400358200073
1733851219669729300,3.520729248046875,0.12574045360088348,-0.06813647598028183,0.33548542857170105
1733851219679698200,3.5306982421875,0.1388264000415802,-0.03233489394187927,0.3224165141582489
1733851219689666300,3.540666259765625,0.11919756978750229,-0.01853172853589058,0.2952016592025757
1733851219699635200,3.55063525390625,0.09297485649585724,-0.019455797970294952,0.2593197226524353
1733851219709604400,3.560604248046875,0.07648643106222153,-0.003909862134605646,0.2116296887397766
1733851219719573200,3.5705732421875,0.05434156581759453,0.007133433595299721,0.1442013531923294
1733851219729541400,3.580541259765625,0.038131438195705414,0.029078412801027298,0.06529108434915543
1733851219739510300,3.59051025390625,0.03220176696777344,0.06216314062476158,-0.02250494807958603
1733851219749479200,3.600479248046875,0.031099218875169754,0.09518048912286758,-0.11143508553504944
1733851219759448300,3.6104482421875,0.014908267185091972,0.1259378045797348,-0.19164034724235535
1733851219769416400,3.62041650390625,-0.00911344587802887,0.13591481745243073,-0.2688102424144745
1733851219779385300,3.63038525390625,-0.025587620213627815,0.17112983763217926,-0.31804192066192627
1733851219789354200,3.640354248046875,-0.03861473873257637,0.23017291724681854,-0.35307633876800537
1733851219799323100,3.6503232421875,-0.05041768029332161,0.226282000541687,-0.38011378049850464
1733851219809291000,3.660291015625,-0.06023542582988739,0.22318421304225922,-0.37729936838150024
1733851219819260200,3.67026025390625,-0.059237439185380936,0.18356041610240936,-0.35682055354118347
1733851219829229000,3.68022900390625,-0.056583065539598465,0.13079281151294708,-0.3168526291847229
1733851219839198200,3.6901982421875,-0.05008232593536377,0.07127085328102112,-0.2493056356906891
1733851219849165800,3.700165771484375,-0.03493426740169525,0.030139129608869553,-0.1608218550682068
1733851219859135000,3.710135009765625,-0.010845002718269825,0.006917021237313747,-0.07247491180896759
1733851219869103900,3.720103759765625,0.020071635022759438,0.004171302542090416,0.00010395143181085587
1733851219879073000,3.730072998046875,0.04399632662534714,0.0061348238959908485,0.04534256085753441
1733851219889041000,3.740041015625,0.06015532463788986,0.01609504595398903,0.0710734874010086
1733851219899010000,3.750010009765625,0.06607833504676819,0.01865144819021225,0.07164184749126434
1733851219908979000,3.75997900390625,0.056960735470056534,0.025784458965063095,0.05363328754901886
1733851219918947800,3.76994775390625,0.04155203327536583,0.029582954943180084,0.026275942102074623
1733851219928916000,3.779916015625,0.020161256194114685,0.02172662876546383,-0.004021775908768177
1733851219938884900,3.789884765625,0.0019974028691649437,0.012537786737084389,-0.030942237004637718
1733851219948854000,3.79985400390625,-0.008532470092177391,0.0026875522453337908,-0.053442489355802536
1733851219958823000,3.809822998046875,-0.008708630688488483,0.0008191131055355072,-0.06152007728815079
1733851219968791000,3.819791015625,-0.0032206540927290916,0.008322303183376789,-0.06056373566389084
1733851219978760000,3.829760009765625,0.003106217598542571,0.014104025438427925,-0.04931188374757767
1733851219988729000,3.83972900390625,0.012021414935588837,0.021855423226952553,-0.02676769345998764
1733851219998698000,3.849697998046875,0.01703662984073162,0.02969241701066494,-0.007749336771667004
1733851220008666000,3.859666015625,0.015118356794118881,0.018937507644295692,0.005811478942632675
1733851220018635000,3.869635009765625,0.01307915709912777,0.017518287524580956,0.011954951100051403
1733851220028604000,3.87960400390625,0.014972664415836334,0.014751262962818146,0.011297683231532574
1733851220038573000,3.889572998046875,0.013360125944018364,0.006763014011085033,0.006728950887918472
1733851220048542000,3.8995419921875,0.013589424081146717,0.00921099167317152,0.006216558627784252
1733851220058510000,3.909510009765625,0.016173439100384712,0.015604820102453232,0.00684977974742651
1733851220068479000,3.91947900390625,0.01701153628528118,0.024604972451925278,0.009420529007911682
1733851220078448000,3.9294482421875,0.017915353178977966,0.032393909990787506,0.004953012336045504
1733851220088417000,3.9394169921875,0.020738570019602776,0.03590422123670578,0.001607016660273075
1733851220098385200,3.94938525390625,0.0176375862210989,0.03500620648264885,-0.005601894110441208
1733851220108354000,3.95935400390625,0.017193369567394257,0.028703836724162102,-0.007176089100539684
1733851220118323200,3.9693232421875,0.012244257144629955,0.018253272399306297,-0.003304337849840522
1733851220128292000,3.9792919921875,0.008248183876276016,0.011090966872870922,-0.0007666116580367088
1733851220138260000,3.989260009765625,0.006506869103759527,0.000020971056073904037,-0.00019940012134611607
1733851220148229000,3.99922900390625,0.008454971015453339,-0.00196601334027946,0.0007678600959479809
1733851220158198000,4.009197998046875,0.01565849967300892,0.003113642567768693,-0.0006238750647753477
1733851220168167200,4.019167236328125,0.021292150020599365,0.012377182021737099,-0.0001237334217876196
1733851220178135000,4.029135009765625,0.022987624630331993,0.02181697078049183,0.003805006155744195
1733851220188104000,4.03910400390625,0.025331739336252213,0.02104252390563488,0.007304399739950895
1733851220198072800,4.04907275390625,0.024184666574001312,0.014670753851532936,0.0036073224619030952
1733851220208042000,4.0590419921875,0.019698305055499077,0.002342981519177556,-0.005739307962357998
1733851220218009900,4.069009765625,0.01291244849562645,-0.008709418587386608,-0.013166193850338459
1733851220227979000,4.07897900390625,0.007153629325330257,-0.009795988909900188,-0.015573692508041859
1733851220237948000,4.088947998046875,0.002823717426508665,-0.012033028528094292,-0.013266466557979584
1733851220247917000,4.0989169921875,0.0018758983351290226,-0.015376094728708267,-0.008333493024110794
1733851220257885000,4.108885009765625,0.002033988246694207,-0.011281214654445648,-0.006917970255017281
1733851220267854000,4.11885400390625,0.0011865703854709864,-0.003058971371501684,-0.008515067398548126
1733851220277823000,4.128822998046875,0.0027620913460850716,-0.00029189721681177616,-0.01034768857061863
1733851220287791900,4.1387919921875,0.004390880931168795,0.0024346469435840845,-0.008551652543246746
1733851220297760000,4.148760009765625,0.005923028104007244,0.006013805978000164,-0.010831952095031738
1733851220307729000,4.15872900390625,0.006764054298400879,0.004212177358567715,-0.010801591910421848
1733851220317698000,4.168697998046875,0.0026284768246114254,-0.0010984922992065549,-0.01455933041870594
1733851220327667000,4.1786669921875,-0.003347656223922968,-0.004499348811805248,-0.01865766942501068
1733851220337635000,4.188635009765625,-0.004037255421280861,-0.0050202105194330215,-0.019438287243247032
1733851220347604000,4.19860400390625,-0.004836203530430794,-0.010850136168301105,-0.01953762397170067
1733851220357573000,4.208572998046875,-0.0053815580904483795,-0.009069273248314857,-0.019411591812968254
1733851220367542000,4.2185419921875,-0.005755732301622629,-0.008918804116547108,-0.014998468570411205
1733851220377510100,4.22851025390625,-0.0025147562846541405,-0.005224611610174179,-0.01005986426025629
1733851220387479000,4.23847900390625,-0.0025027720257639885,-0.0038512195460498333,-0.0076289307326078415
1733851220397448000,4.248447998046875,-0.004678232595324516,-0.0033789651934057474,-0.011317262426018715
1733851220407417000,4.2584169921875,-0.0009202460641972721,0.0004610468167811632,-0.015968739986419678
1733851220417385200,4.26838525390625,0.0009725082200020552,0.0044860877096652985,-0.01970544084906578
1733851220427354000,4.27835400390625,0.0029578949324786663,0.006277596578001976,-0.020798934623599052
1733851220437323000,4.288322998046875,0.006327892653644085,0.004755420610308647,-0.02415744960308075
1733851220447292200,4.298292236328125,0.0036005498841404915,0.0008317856118083,-0.0237334743142128
1733851220457259800,4.308259765625,0.0018000443233177066,-0.006594648584723473,-0.019097207114100456
1733851220467229000,4.31822900390625,0.005335390567779541,-0.00570701714605093,-0.01658771187067032
1733851220477197800,4.32819775390625,0.004337964113801718,-0.006452294997870922,-0.0180977750569582
1733851220487167200,4.338167236328125,0.006061561871320009,0.00361072551459074,-0.01522395946085453
1733851220497134800,4.348134765625,0.009589402005076408,0.006581858731806278,-0.006613505072891712
1733851220507104000,4.35810400390625,0.011862143874168396,0.011340660974383354,-0.001739920349791646
1733851220517073000,4.368072998046875,0.012665272690355778,0.010728106833994389,-0.0026528281159698963
1733851220527041800,4.378041748046875,0.012110802344977856,0.007768535986542702,-0.0047479369677603245
1733851220537010000,4.388010009765625,0.012124167755246162,0.0005051868502050638,-0.006417395547032356
1733851220546979000,4.39797900390625,0.014044307172298431,-0.002998467767611146,-0.012705651111900806
1733851220556948000,4.407947998046875,0.009808690287172794,0.0015851331409066916,-0.01619621552526951
1733851220566916900,4.417916748046875,0.006042181514203548,0.0025758289266377687,-0.014120014384388924
1733851220576885000,4.427885009765625,0.0076599870808422565,0.0060057565569877625,-0.010325170122087002
1733851220586854000,4.43785400390625,0.008623252622783184,0.011085735633969307,-0.009486541152000427
1733851220596823000,4.447822998046875,0.005612815264612436,0.013307078741490841,-0.008046570234000683
1733851220606792000,4.4577919921875,0.002554174978286028,0.010987465269863605,-0.007444162853062153
1733851220616760000,4.467760009765625,0.00334389740601182,0.0014510469045490026,-0.006551944650709629
1733851220626729000,4.47772900390625,0.0060059926472604275,-0.0016480737831443548,-0.007471799850463867
1733851220636698000,4.487697998046875,0.006818915251642466,-0.008279645815491676,-0.008550688624382019
1733851220646667000,4.4976669921875,0.006649804767221212,-0.007515585049986839,-0.008044421672821045
1733851220656635100,4.50763525390625,0.0038740222807973623,-0.004399282857775688,-0.0055534010753035545
1733851220666604000,4.51760400390625,0.0008015332859940827,0.0003209039568901062,-0.003590385662391782
1733851220676573000,4.527572998046875,0.0006183420773595572,0.000670664245262742,-0.0020633330568671227
1733851220686542000,4.5375419921875,0.0009259372018277645,0.004004143178462982,-0.0018787761218845844
1733851220696511000,4.547510986328125,0.00045397542999126017,0.007071150466799736,-0.00645656231790781
1733851220706479000,4.55747900390625,-0.00016867165686562657,-0.003623305819928646,-0.009056339971721172
1733851220716448000,4.567447998046875,-0.00002656906144693494,-0.009727967903017998,-0.009354223497211933
1733851220726417200,4.577417236328125,-0.000496883294545114,-0.004608040675520897,-0.007885224185883999
1733851220736386000,4.587385986328125,-0.005069781560450792,-0.004783208016306162,-0.006764482241123915
1733851220746354200,4.597354248046875,-0.005709473043680191,-0.006333966739475727,-0.0007486680988222361
1733851220756323000,4.607322998046875,-0.0025626174174249172,-0.004229578655213118,-0.0024438765831291676
1733851220766292000,4.6172919921875,0.0023503820411860943,-0.0007458977634087205,-0.007080173585563898
1733851220776261000,4.62726123046875,0.0063607413321733475,0.0022908097598701715,-0.00585331441834569
1733851220786229000,4.63722900390625,0.004743137396872044,0.001627948833629489,-0.0037984196096658707
1733851220796198000,4.647197998046875,0.0046720001846551895,0.00046614138409495354,-0.002740777563303709
1733851220806167300,4.657167236328125,0.0008556904504075646,-0.0034439116716384888,-0.006174391135573387
1733851220816136400,4.667136474609375,0.00003228679997846484,-0.0007424622308462858,-0.013345769606530666
1733851220826104300,4.677104248046875,-0.003881494514644146,-0.004507106728851795,-0.015221701003611088
1733851220836073500,4.687073486328125,-0.005109542515128851,-0.003597329370677471,-0.013338739052414894
1733851220846042400,4.69704248046875,-0.003255449701100588,-0.0038109146989881992,-0.011900365352630615
1733851220856011300,4.70701123046875,-0.004714908078312874,-0.004049738869071007,-0.009802308864891529
1733851220865979100,4.716979248046875,-0.005161253735423088,-0.0005799063947051764,-0.010007372125983238
1733851220875948300,4.7269482421875,-0.002617353107780218,0.00023730727843940258,-0.008967597037553787
1733851220885917200,4.736917236328125,-0.0003219745121896267,0.0010077597107738256,-0.006400842219591141
1733851220895886000,4.746885986328125,0.00031607330311089754,-0.0006966026267036796,-0.008017363026738167
1733851220905854200,4.756854248046875,-0.0014149814378470182,0.00015188055112957954,-0.009696219116449356
1733851220915823000,4.766822998046875,-0.002532211598008871,-0.0008990900823846459,-0.00841603334993124
1733851220925792300,4.776792236328125,-0.004144489765167236,0.0015057444106787443,-0.008608313277363777
1733851220935761200,4.78676123046875,-0.008362499065697193,0.001553053269162774,-0.009851003997027874
1733851220945729300,4.796729248046875,-0.011723940260708332,-0.0002480426337569952,-0.012438797391951084
1733851220955698200,4.8066982421875,-0.014434175565838814,-0.009509759955108166,-0.016039762645959854
1733851220965667300,4.816667236328125,-0.010776056908071041,-0.0167306549847126,-0.015981972217559814
1733851220975636200,4.82663623046875,-0.004259819630533457,-0.017114613205194473,-0.01971857249736786
1733851220985604400,4.836604248046875,0.002501680050045252,-0.010340863838791847,-0.0188306737691164
1733851220995573200,4.8465732421875,0.0017430557636544108,-0.005176831036806107,-0.01232762448489666
1733851221005542400,4.85654248046875,0.0012186793610453606,-0.0005812798626720905,-0.0063568176701664925
1733851221015511300,4.86651123046875,0.0005544224404729903,0.0006275707855820656,-0.005948182195425034
1733851221025479400,4.8764794921875,-0.0008450686582364142,-0.0015708686551079154,-0.008932786993682384
1733851221035448300,4.8864482421875,-0.006784386001527309,-0.0010137773351743817,-0.012833358719944954
1733851221045417200,4.896417236328125,-0.008697334676980972,-0.00670255534350872,-0.012127887457609177
1733851221055386400,4.906386474609375,-0.01066022552549839,-0.009026730433106422,-0.0109257772564888
1733851221065354200,4.916354248046875,-0.013273585587739944,-0.009787595830857754,-0.011724993586540222
1733851221075323400,4.926323486328125,-0.012744289822876453,-0.012420697137713432,-0.01250267680734396
1733851221085292300,4.936292236328125,-0.007143395021557808,-0.011112019419670105,-0.011466707102954388
1733851221095261400,4.946261474609375,0.004697578959167004,-0.0023367186076939106,-0.010189383290708065
1733851221105229300,4.956229248046875,0.015486310236155987,-0.00030898768454790115,-0.0050963545218110085
1733851221115198500,4.966198486328125,0.02076653391122818,0.0017992511857300997,-0.004931310191750526
1733851221125167400,4.97616748046875,0.023860860615968704,0.004653893411159515,-0.00501280277967453
1733851221135136300,4.98613623046875,0.021306699141860008,-0.0030737249180674553,-0.004416906274855137
1733851221145104400,4.9961044921875,0.023701146245002747,-0.006579243578016758,-0.010519806295633316
1733851221155073300,5.0060732421875,0.027224306017160416,-0.014362107962369919,-0.01891925558447838
1733851221165042400,5.01604248046875,0.027513524517416954,-0.013336790725588799,-0.024193646386265755
1733851221175011300,5.02601123046875,0.01607475057244301,-0.01240592822432518,-0.029202522709965706
1733851221184979200,5.035979248046875,0.0002939238620456308,-0.008581895381212234,-0.026742560788989067
1733851221194948000,5.045947998046875,-0.014309790916740894,-0.0027172984555363655,-0.02357189916074276
1733851221204917200,5.055917236328125,-0.025457516312599182,-0.0020211483351886272,-0.01791987195611
1733851221214886100,5.06588623046875,-0.03154595568776131,0.005163287743926048,-0.018711918964982033
1733851221224854300,5.075854248046875,-0.02728862687945366,0.009072542190551758,-0.021418223157525063
1733851221234823200,5.0858232421875,-0.021449096500873566,0.008565545082092285,-0.019172031432390213
1733851221244792300,5.095792236328125,-0.016498547047376633,0.008703229948878288,-0.013769276440143585
1733851221254761200,5.10576123046875,-0.009417281486093998,0.007715436629951,-0.009657865390181541
1733851221264729300,5.115729248046875,-0.009502503089606762,0.012174101546406746,-0.006072185002267361
1733851221274698200,5.1256982421875,-0.007081861142069101,0.012422668747603893,-0.005504339933395386
1733851221284667100,5.135667236328125,-0.007419283501803875,0.00860875565558672,-0.005994094535708427
1733851221294636300,5.14563623046875,-0.0068102334626019,0.003976118750870228,-0.00859528686851263
1733851221304604400,5.1556044921875,-0.004670383874326944,0.008886721916496754,-0.0057379817590117455
1733851221314573300,5.1655732421875,0.0017259165178984404,0.010017206892371178,-0.007526271045207977
1733851221324542200,5.175542236328125,0.004643941763788462,0.014563488774001598,-0.011253098957240582
1733851221334511400,5.185511474609375,0.005127697717398405,0.014244673773646355,-0.012441975995898247
1733851221344479200,5.195479248046875,0.0049980017356574535,0.011002542451024055,-0.011648086830973625
1733851221354448400,5.205448486328125,0.009486572816967964,0.01492087822407484,-0.011874478310346603
1733851221364417300,5.215417236328125,0.012583829462528229,0.016676966100931168,-0.011511223390698433
1733851221374386400,5.225386474609375,0.019513215869665146,0.020861538127064705,-0.006087383255362511
1733851221384354300,5.235354248046875,0.0208077784627676,0.020633837208151817,0.002925020642578602
1733851221394323500,5.245323486328125,0.020044468343257904,0.018743902444839478,0.005627787671983242
1733851221404292400,5.255292236328125,0.020042870193719864,0.01475182268768549,-0.0004783084150403738
1733851221414261200,5.26526123046875,0.01596541702747345,0.007327578030526638,-0.011178387328982353
1733851221424229400,5.2752294921875,0.010648681782186031,-0.002961012301966548,-0.014354472979903221
1733851221434198300,5.2851982421875,0.0007968844147399068,-0.015503880567848682,-0.015661289915442467
1733851221444167400,5.29516748046875,-0.006358762737363577,-0.03025619499385357,-0.020648859441280365
1733851221454136300,5.30513623046875,-0.008201373741030693,-0.029399318620562553,-0.020730454474687576
1733851221464104400,5.3151044921875,-0.009906861931085587,-0.03210615739226341,-0.011170770041644573
1733851221474073300,5.3250732421875,-0.007392107043415308,-0.035333551466464996,-0.010074867866933346
1733851221484042500,5.33504248046875,-0.010496553964912891,-0.053627870976924896,-0.027239471673965454
1733851221494011400,5.345011474609375,-0.02142077311873436,-0.05635770037770271,-0.041601113975048065
1733851221503979300,5.354979248046875,-0.031189514324069023,-0.05400000512599945,-0.04649227485060692
1733851221513948200,5.3649482421875,-0.04610437899827957,-0.06000920385122299,-0.04410597309470177
1733851221523917300,5.374917236328125,-0.054854728281497955,-0.06216157227754593,-0.04155333340167999
1733851221533886200,5.38488623046875,-0.062202341854572296,-0.06749653071165085,-0.049858588725328445
1733851221543854300,5.394854248046875,-0.07449229806661606,-0.102725088596344,-0.08079999685287476
1733851221553823200,5.4048232421875,-0.08949466794729233,-0.11447462439537048,-0.12192737311124802
1733851221563792100,5.414792236328125,-0.09289685636758804,-0.09532489627599716,-0.15207435190677643
1733851221573761300,5.42476123046875,-0.09656894207000732,-0.0843295156955719,-0.14968110620975494
1733851221583729200,5.434729248046875,-0.10570065677165985,-0.08333029597997665,-0.11446239054203033
1733851221593698300,5.4446982421875,-0.12634819746017456,-0.06116902455687523,-0.07272815704345703
1733851221603667200,5.454667236328125,-0.1512833833694458,-0.06906796246767044,-0.05821792781352997
1733851221613636400,5.46463623046875,-0.16925936937332153,-0.08345341682434082,-0.07419586181640625
1733851221623604200,5.474604248046875,-0.14757885038852692,-0.04843631014227867,-0.11452304571866989
1733851221633573400,5.484573486328125,-0.11357975751161575,-0.005638200789690018,-0.1715712547302246
1733851221643542300,5.494542236328125,-0.09113197028636932,0.005969986319541931,-0.22499293088912964
1733851221653511200,5.50451123046875,-0.06446409970521927,0.04533730447292328,-0.24937261641025543
1733851221663479300,5.514479248046875,-0.04785609245300293,0.003309160703793168,-0.2648159861564636
1733851221673448400,5.524448486328125,-0.038113392889499664,-0.017003826797008514,-0.2533195912837982
1733851221683417300,5.534417236328125,-0.016978809610009193,-0.017229396849870682,-0.23238849639892578
1733851221693386200,5.54438623046875,0.006061341147869825,-0.00010471115820109844,-0.21332640945911407
1733851221703354400,5.554354248046875,0.020866384729743004,0.03207053616642952,-0.1844678670167923
1733851221713323300,5.5643232421875,0.021272925660014153,0.04645350202918053,-0.1484062224626541
1733851221723292400,5.57429248046875,0.012547876685857773,0.0573761910200119,-0.11671221256256104
1733851221733261300,5.58426123046875,0.007201219443231821,0.1133141964673996,-0.08146054297685623
1733851221743229400,5.5942294921875,0.01885760948061943,0.16562187671661377,-0.04960380867123604
1733851221753198300,5.6041982421875,0.05667527765035629,0.21566447615623474,-0.028002724051475525
1733851221763167500,5.61416748046875,0.07670917361974716,0.2346690595149994,-0.024590417742729187
1733851221773136400,5.624136474609375,0.08991991728544235,0.25650501251220703,-0.022017743438482285
1733851221783104300,5.634104248046875,0.09157320857048035,0.2928268015384674,-0.026003165170550346
1733851221793073200,5.6440732421875,0.08501958847045898,0.34451571106910706,-0.043982408940792084
1733851221803041800,5.654041748046875,0.067003034055233,0.39244142174720764,-0.06949149817228317
1733851221813010700,5.6640107421875,0.07387716323137283,0.4514467716217041,-0.10435500741004944
1733851221822978800,5.673978759765625,0.07475201040506363,0.49264535307884216,-0.13454484939575195
1733851221832947700,5.68394775390625,0.07215222716331482,0.49933844804763794,-0.14617285132408142
1733851221842916600,5.69391650390625,0.0867982804775238,0.47703874111175537,-0.13919617235660553
1733851221852885800,5.7038857421875,0.1029081642627716,0.44501379132270813,-0.11297056823968887
1733851221862854000,5.71385400390625,0.1140231266617775,0.43749675154685974,-0.08125445246696472
1733851221872822800,5.72382275390625,0.11903543770313263,0.43850085139274597,-0.06065470352768898
1733851221882791700,5.733791748046875,0.12237903475761414,0.44884511828422546,-0.05240875482559204
1733851221892760800,5.7437607421875,0.13061252236366272,0.4762336015701294,-0.054985567927360535
1733851221902728700,5.753728759765625,0.1322959065437317,0.4946509599685669,-0.05495867133140564
1733851221912697900,5.76369775390625,0.13848447799682617,0.5102125406265259,-0.04860221594572067
1733851221922666800,5.773666748046875,0.14535383880138397,0.49415984749794006,-0.038199640810489655
1733851221932636000,5.783635986328125,0.14500419795513153,0.4548864960670471,-0.035647355020046234
1733851221942603800,5.793603759765625,0.14169494807720184,0.4351215660572052,-0.05088596045970917
1733851221952573000,5.803572998046875,0.14306727051734924,0.4385288953781128,-0.07401455193758011
1733851221962541800,5.813541748046875,0.1417311578989029,0.4362172484397888,-0.09761308878660202
1733851221972510700,5.8235107421875,0.13900962471961975,0.42364630103111267,-0.11845531314611435
1733851221982478800,5.833478759765625,0.13669507205486298,0.4322690963745117,-0.12683121860027313
1733851221992447700,5.84344775390625,0.13396543264389038,0.4457475244998932,-0.12372156232595444
1733851222002417000,5.8534169921875,0.12380307912826538,0.4477084279060364,-0.11239780485630035
1733851222012385800,5.8633857421875,0.11396894603967667,0.43701767921447754,-0.0964466854929924
1733851222022353700,5.873353759765625,0.11089006811380386,0.41861337423324585,-0.07679495215415955
1733851222032322600,5.883322509765625,0.10738899558782578,0.3922322988510132,-0.06086752563714981
1733851222042291700,5.893291748046875,0.10911179333925247,0.3636685907840729,-0.054571546614170074
1733851222052260600,5.903260498046875,0.11450574547052383,0.3516770601272583,-0.05624702200293541
1733851222062228700,5.913228759765625,0.1301123946905136,0.34928929805755615,-0.057306695729494095
1733851222072197600,5.92319775390625,0.14272157847881317,0.3294142782688141,-0.048375844955444336
1733851222082166800,5.933166748046875,0.13755850493907928,0.2946142256259918,-0.05341481417417526
1733851222092135700,5.9431357421875,0.12700505554676056,0.3076072037220001,-0.0696595087647438
1733851222102103800,5.953103759765625,0.12685886025428772,0.33903488516807556,-0.084738589823246
1733851222112072700,5.96307275390625,0.13337299227714539,0.36489516496658325,-0.09730447083711624
1733851222122041600,5.97304150390625,0.147748202085495,0.369468629360199,-0.10654936730861664
1733851222132010800,5.9830107421875,0.15838783979415894,0.36530911922454834,-0.11487679928541183
1733851222141978600,5.992978515625,0.15834788978099823,0.3544037342071533,-0.10637839138507843
1733851222151947800,6.00294775390625,0.15121178328990936,0.3325016498565674,-0.10000710189342499
1733851222161916700,6.012916748046875,0.13032354414463043,0.3206987679004669,-0.10400157421827316
1733851222171884800,6.022884765625,0.1281149983406067,0.34128904342651367,-0.1131722554564476
1733851222181853700,6.032853759765625,0.13867948949337006,0.37086397409439087,-0.11804637312889099
1733851222191822800,6.04282275390625,0.1611817479133606,0.39066746830940247,-0.12327180057764053
1733851222201791700,6.052791748046875,0.18338026106357574,0.40074780583381653,-0.11309799551963806
1733851222211759900,6.062759765625,0.20806801319122314,0.3909684419631958,-0.10023183375597
1733851222221728800,6.072728759765625,0.23252327740192413,0.3970029056072235,-0.08572453260421753
1733851222231698000,6.082697998046875,0.24395893514156342,0.39847758412361145,-0.08418042957782745
1733851222241666800,6.092666748046875,0.25199633836746216,0.3926295340061188,-0.07770761847496033
1733851222251635000,6.102635009765625,0.25318044424057007,0.3706471621990204,-0.06873127073049545
1733851222261603800,6.112603759765625,0.25347471237182617,0.3556002974510193,-0.0678257942199707
1733851222271572700,6.12257275390625,0.26098763942718506,0.38771429657936096,-0.08185039460659027
1733851222281542000,6.1325419921875,0.2720578610897064,0.4488607347011566,-0.1010882705450058
1733851222291509800,6.142509765625,0.2972908616065979,0.5287244915962219,-0.11932837963104248
1733851222301479000,6.15247900390625,0.31092172861099243,0.5913977026939392,-0.13042044639587402
1733851222311447800,6.16244775390625,0.3064762353897095,0.6113083958625793,-0.13997521996498108
1733851222321417000,6.1724169921875,0.3005933165550232,0.6341942548751831,-0.15867966413497925
1733851222331384600,6.182384521484375,0.29619789123535156,0.6673609018325806,-0.18709056079387665
1733851222341353700,6.192353759765625,0.27280867099761963,0.6758260130882263,-0.20976950228214264
1733851222351322600,6.202322509765625,0.24738775193691254,0.6696457266807556,-0.2272920459508896
1733851222361291500,6.21229150390625,0.24320952594280243,0.666705846786499,-0.232023686170578
1733851222371259600,6.222259765625,0.24162833392620087,0.6428987979888916,-0.22911149263381958
1733851222381228800,6.232228759765625,0.22413428127765656,0.6044765710830688,-0.21623431146144867
1733851222391197700,6.24219775390625,0.1960596740245819,0.5838181972503662,-0.19682577252388
1733851222401166600,6.25216650390625,0.18646110594272614,0.561049222946167,-0.19366566836833954
1733851222411134700,6.262134765625,0.1794620305299759,0.5844247937202454,-0.20819391310214996
1733851222421103600,6.272103515625,0.19038471579551697,0.6025446653366089,-0.2325437366962433
1733851222431072800,6.28207275390625,0.2195785790681839,0.608571469783783,-0.2431890219449997
1733851222441041700,6.292041748046875,0.2511993646621704,0.5856014490127563,-0.2291855812072754
1733851222451009800,6.302009765625,0.26917120814323425,0.548357367515564,-0.18722333014011383
1733851222460978700,6.311978759765625,0.2825613021850586,0.5135621428489685,-0.13841557502746582
1733851222470947800,6.32194775390625,0.2790587246417999,0.49344033002853394,-0.09583704173564911
1733851222480916700,6.331916748046875,0.25575900077819824,0.4710306227207184,-0.07134741544723511
1733851222490884900,6.341884765625,0.22816374897956848,0.4444699287414551,-0.060708045959472656
1733851222500853800,6.351853759765625,0.21358640491962433,0.4215390384197235,-0.07101421803236008
1733851222510822700,6.36182275390625,0.20947539806365967,0.4321495592594147,-0.08472633361816406
1733851222520791800,6.371791748046875,0.21057714521884918,0.4425574541091919,-0.10637170821428299
1733851222530760000,6.381760009765625,0.21559323370456696,0.4562285542488098,-0.1268608272075653
1733851222540728800,6.391728759765625,0.2243150919675827,0.48177197575569153,-0.14053775370121002
1733851222550697700,6.40169775390625,0.22458909451961517,0.48945990204811096,-0.13811294734477997
1733851222560667000,6.4116669921875,0.2359408140182495,0.47419920563697815,-0.14318865537643433
1733851222570634800,6.421634765625,0.2385064959526062,0.48257431387901306,-0.14686435461044312
1733851222580604000,6.43160400390625,0.22123590111732483,0.4826222360134125,-0.16750279068946838
1733851222590572800,6.44157275390625,0.19765006005764008,0.4865224063396454,-0.20632943511009216
1733851222600542000,6.4515419921875,0.17828966677188873,0.5117856860160828,-0.25247031450271606
1733851222610509800,6.461509765625,0.16457410156726837,0.551333487033844,-0.2899908721446991
1733851222620479000,6.47147900390625,0.16088296473026276,0.5760766267776489,-0.31241947412490845
1733851222630447900,6.48144775390625,0.16898590326309204,0.5965151190757751,-0.3194109797477722
1733851222640415700,6.491415771484375,0.19005684554576874,0.5950194597244263,-0.3136412501335144
1733851222650384600,6.501384521484375,0.2172199785709381,0.6010537147521973,-0.3033245801925659
1733851222660353500,6.511353515625,0.2388744056224823,0.6055064797401428,-0.28187841176986694
1733851222670322700,6.52132275390625,0.23639407753944397,0.5864169001579285,-0.24051371216773987
1733851222680290800,6.531290771484375,0.22222580015659332,0.5498644709587097,-0.20011702179908752
1733851222690259700,6.541259765625,0.20588597655296326,0.5282397866249084,-0.17177237570285797
1733851222700228600,6.551228515625,0.19004282355308533,0.5048481822013855,-0.16840480268001556
1733851222710197800,6.56119775390625,0.17656691372394562,0.5237555503845215,-0.17458926141262054
1733851222720165600,6.57116552734375,0.16514727473258972,0.542926013469696,-0.17774243652820587
1733851222730134800,6.581134765625,0.1587212234735489,0.5556568503379822,-0.1624416559934616
1733851222740103700,6.591103759765625,0.15282177925109863,0.5474037528038025,-0.1418817937374115
1733851222750072800,6.60107275390625,0.15342405438423157,0.5453670620918274,-0.12464939057826996
1733851222760040700,6.611040771484375,0.15273721516132355,0.5444349646568298,-0.12066104263067245
1733851222770009900,6.621009765625,0.16035789251327515,0.5558276176452637,-0.1312776505947113
1733851222779978800,6.630978759765625,0.18458759784698486,0.5698537230491638,-0.152316614985466
1733851222789947600,6.64094775390625,0.20399433374404907,0.5779812335968018,-0.16801251471042633
1733851222799916500,6.65091650390625,0.22028328478336334,0.5768776535987854,-0.16900162398815155
1733851222809885400,6.660885498046875,0.20968037843704224,0.5544376373291016,-0.1578308790922165
1733851222819854600,6.6708544921875,0.18532204627990723,0.5233002305030823,-0.1490938514471054
1733851222829823500,6.680823486328125,0.15994304418563843,0.5137430429458618,-0.14290840923786163
1733851222839791600,6.69079150390625,0.14747785031795502,0.5078071355819702,-0.15001265704631805
1733851222849760500,6.700760498046875,0.15171337127685547,0.5134545564651489,-0.15855877101421356
1733851222859729400,6.7107294921875,0.15451742708683014,0.5181917548179626,-0.17690688371658325
1733851222869698600,6.720698486328125,0.15717245638370514,0.532509982585907,-0.19742658734321594
1733851222879666700,6.730666748046875,0.156938374042511,0.5521119236946106,-0.20638225972652435
1733851222889635600,6.740635498046875,0.14135980606079102,0.544524610042572,-0.20542322099208832
1733851222899604500,6.7506044921875,0.1159503310918808,0.5359939336776733,-0.19947238266468048
1733851222909573600,6.76057373046875,0.08419514447450638,0.5251599550247192,-0.19682255387306213
1733851222919541500,6.77054150390625,0.05754462257027626,0.492226243019104,-0.2075156718492508
1733851222929510700,6.7805107421875,0.042636893689632416,0.4770878553390503,-0.22812744975090027
1733851222939479600,6.7904794921875,0.051244497299194336,0.49309131503105164,-0.24648888409137726
1733851222949447400,6.800447509765625,0.07855624705553055,0.49240776896476746,-0.24711079895496368
1733851222959416300,6.810416259765625,0.0974431186914444,0.4776304066181183,-0.23101864755153656
1733851222969385500,6.820385498046875,0.12116343528032303,0.4629148244857788,-0.19788822531700134
1733851222979354600,6.830354736328125,0.13805213570594788,0.45125842094421387,-0.17256636917591095
1733851222989322500,6.840322509765625,0.1427851766347885,0.44878387451171875,-0.16926229000091553
1733851222999291400,6.85029150390625,0.1436738818883896,0.4678345322608948,-0.17803341150283813
1733851223009260500,6.860260498046875,0.13604862987995148,0.48728615045547485,-0.18742288649082184
1733851223019229400,6.8702294921875,0.11736814677715302,0.4893170893192291,-0.1923939436674118
1733851223029197600,6.880197509765625,0.106295645236969,0.4901389181613922,-0.19623196125030518
1733851223039166500,6.89016650390625,0.09790322184562683,0.4869191646575928,-0.19804663956165314
1733851223049135400,6.90013525390625,0.08610175549983978,0.46633103489875793,-0.19785766303539276
1733851223059104500,6.9101044921875,0.08200368285179138,0.4371955394744873,-0.19819135963916779
1733851223069072400,6.920072265625,0.08614185452461243,0.43002426624298096,-0.21180903911590576
1733851223079041500,6.93004150390625,0.091318778693676,0.4442708492279053,-0.2317207008600235
1733851223089010400,6.940010498046875,0.09482826292514801,0.4709475636482239,-0.2535313665866852
1733851223098979600,6.9499794921875,0.09623841196298599,0.4962822198867798,-0.2666093409061432
1733851223108947500,6.959947509765625,0.09898653626441956,0.515754222869873,-0.2621932029724121
1733851223118916600,6.96991650390625,0.10200602561235428,0.5278087854385376,-0.25271233916282654
1733851223128885500,6.979885498046875,0.10296297073364258,0.5415735840797424,-0.2313656210899353
1733851223138853600,6.989853515625,0.10250384360551834,0.5434556007385254,-0.20073100924491882
1733851223148822500,6.999822509765625,0.10463257133960724,0.52853924036026,-0.17577490210533142
1733851223158791400,7.00979150390625,0.10328102111816406,0.5156298279762268,-0.17195673286914825
1733851223168760600,7.019760498046875,0.10310052335262299,0.5117588043212891,-0.17879408597946167
1733851223178728700,7.029728759765625,0.10052977502346039,0.5020968317985535,-0.19193997979164124
1733851223188697600,7.039697509765625,0.0928686335682869,0.49956613779067993,-0.20751245319843292
1733851223198666500,7.04966650390625,0.08804085105657578,0.5104742050170898,-0.21065232157707214
1733851223208635600,7.0596357421875,0.09087774157524109,0.5397034287452698,-0.19660618901252747
1733851223218603500,7.069603515625,0.09364715963602066,0.5567875504493713,-0.17855075001716614
1733851223228572700,7.07957275390625,0.09183745831251144,0.5481759309768677,-0.16806478798389435
1733851223238541600,7.08954150390625,0.08862754702568054,0.545607328414917,-0.1599847674369812
1733851223248510700,7.0995107421875,0.07912079989910126,0.5276891589164734,-0.15420454740524292
1733851223258478300,7.109478271484375,0.07815486937761307,0.49146851897239685,-0.16152851283550262
1733851223268447500,7.119447509765625,0.08242698758840561,0.459804892539978,-0.1747736930847168
1733851223278416400,7.12941650390625,0.09288202971220016,0.4376623034477234,-0.18878431618213654
1733851223288385300,7.13938525390625,0.10511288046836853,0.4295865595340729,-0.20382459461688995
1733851223298353400,7.149353515625,0.11224295943975449,0.45308417081832886,-0.21584343910217285
1733851223308322300,7.159322265625,0.11671073734760284,0.465023934841156,-0.23013390600681305
1733851223318291500,7.16929150390625,0.11984474956989288,0.49213463068008423,-0.21993160247802734
1733851223328260400,7.17926025390625,0.10365395992994308,0.48976945877075195,-0.19133260846138
1733851223338228500,7.189228515625,0.0967627614736557,0.475604385137558,-0.15971475839614868
1733851223348197400,7.199197265625,0.09450307488441467,0.4693041443824768,-0.13800173997879028
1733851223358166500,7.20916650390625,0.0958719402551651,0.47325146198272705,-0.14264468848705292
1733851223368135400,7.219135498046875,0.09120960533618927,0.48941174149513245,-0.1713629961013794
1733851223378103600,7.229103515625,0.08730940520763397,0.5148918032646179,-0.1993592083454132
1733851223388072400,7.239072509765625,0.08343397825956345,0.5354516506195068,-0.21490611135959625
1733851223398041600,7.24904150390625,0.07559709250926971,0.5359336733818054,-0.21479666233062744
1733851223408009500,7.259009521484375,0.07829110324382782,0.5318679213523865,-0.18968340754508972
1733851223417978600,7.268978515625,0.07970550656318665,0.5219423174858093,-0.15811455249786377
1733851223427947500,7.278947509765625,0.08834732323884964,0.5218881964683533,-0.12707534432411194
1733851223437916400,7.28891650390625,0.08794385194778442,0.5202327370643616,-0.10928969830274582
1733851223447884500,7.298884521484375,0.08446773886680603,0.5157346129417419,-0.11139115691184998
1733851223457853400,7.308853515625,0.07428567111492157,0.5021069645881653,-0.12795868515968323
1733851223467822600,7.318822509765625,0.07631587982177734,0.4956912100315094,-0.14720359444618225
1733851223477791500,7.32879150390625,0.07348813861608505,0.4992910325527191,-0.16759781539440155
1733851223487759600,7.338759521484375,0.07966730743646622,0.5132210850715637,-0.1813739538192749
1733851223497728500,7.348728515625,0.0802617222070694,0.5166523456573486,-0.1945749819278717
1733851223507697700,7.35869775390625,0.0825704038143158,0.5170162916183472,-0.1991884410381317
1733851223517666600,7.36866650390625,0.09457753598690033,0.5080470442771912,-0.20013412833213806
1733851223527634700,7.378634765625,0.10432341694831848,0.475882887840271,-0.1819089651107788
1733851223537603600,7.388603515625,0.11135096848011017,0.43372663855552673,-0.16390280425548553
1733851223547572700,7.39857275390625,0.11857251077890396,0.4272182881832123,-0.1495780646800995
1733851223557541600,7.408541748046875,0.11303659528493881,0.4187704622745514,-0.1466326117515564
1733851223567509500,7.418509521484375,0.09792299568653107,0.4178636372089386,-0.15138709545135498
1733851223577478400,7.428478515625,0.085264191031456,0.4268776476383209,-0.1623430848121643
1733851223587447300,7.438447265625,0.06827915459871292,0.439563125371933,-0.17043469846248627
1733851223597416400,7.44841650390625,0.05336039885878563,0.4426497519016266,-0.1773620992898941
1733851223607384300,7.45838427734375,0.042662907391786575,0.446867972612381,-0.1739271879196167
1733851223617353500,7.468353515625,0.032850224524736404,0.44629165530204773,-0.16539976000785828
1733851223627322400,7.478322265625,0.025991138070821762,0.44828200340270996,-0.154667466878891
1733851223637290500,7.48829052734375,0.019456805661320686,0.4426313042640686,-0.1485150307416916
1733851223647259400,7.49825927734375,0.01560387946665287,0.42621731758117676,-0.13970112800598145
1733851223657228500,7.508228515625,0.017844930291175842,0.4026408791542053,-0.14128996431827545
1733851223667197400,7.518197509765625,0.00811826717108488,0.3795992136001587,-0.1453121453523636
1733851223677165600,7.52816552734375,0.0050087603740394115,0.35220035910606384,-0.16372150182724
1733851223687134500,7.538134521484375,0.009395327419042587,0.32383906841278076,-0.17854638397693634
1733851223697103600,7.548103515625,0.013663575984537601,0.3013926148414612,-0.19053541123867035
1733851223707072500,7.558072509765625,0.025237025693058968,0.3090496361255646,-0.18416111171245575
1733851223717040600,7.56804052734375,0.04067030921578407,0.3159964978694916,-0.15897107124328613
1733851223727009500,7.578009521484375,0.027474448084831238,0.29118892550468445,-0.11779896914958954
1733851223736978400,7.587978515625,0.014029745943844318,0.26033860445022583,-0.07538679987192154
1733851223746947600,7.597947509765625,0.005927743390202522,0.23614075779914856,-0.06771975755691528
1733851223756915500,7.60791552734375,-0.013709074817597866,0.21025031805038452,-0.07513346523046494
1733851223766884600,7.617884521484375,-0.017650626599788666,0.1952030211687088,-0.09651225805282593
1733851223776853500,7.627853515625,-0.013569331727921963,0.18963408470153809,-0.11417647451162338
1733851223786822700,7.63782275390625,-0.015500715002417564,0.18810142576694489,-0.12063337117433548
1733851223796790500,7.64779052734375,-0.00754825072363019,0.19155235588550568,-0.11849059164524078
1733851223806759400,7.657759521484375,0.00022917898604646325,0.2265559285879135,-0.10684501379728317
1733851223816728300,7.667728271484375,-0.006204485893249512,0.2432376891374588,-0.10175970941781998
1733851223826697500,7.677697509765625,-0.013120768591761589,0.2849333584308624,-0.10854402184486389
1733851223836665300,7.687665283203125,-0.013464316725730896,0.2998071014881134,-0.13494473695755005
1733851223846634500,7.697634521484375,-0.007049631793051958,0.3186129033565521,-0.16399161517620087
1733851223856603400,7.707603271484375,0.014573903754353523,0.35054153203964233,-0.19678018987178802
1733851223866571500,7.717571533203125,0.03200661391019821,0.38010016083717346,-0.22833852469921112
1733851223876540400,7.72754052734375,0.06219674274325371,0.41185277700424194,-0.23501133918762207
1733851223886509300,7.73750927734375,0.09830266982316971,0.4371829032897949,-0.2288806140422821
1733851223896478500,7.747478515625,0.11316577345132828,0.44562485814094543,-0.2173275649547577
1733851223906446300,7.7574462890625,0.12789015471935272,0.4526381492614746,-0.1984596997499466
1733851223916415500,7.76741552734375,0.12891121208667755,0.4592835605144501,-0.18602673709392548
1733851223926384400,7.77738427734375,0.11590947210788727,0.47360333800315857,-0.18197545409202576
1733851223936353500,7.787353515625,0.11195414513349533,0.5048379302024841,-0.18107183277606964
1733851223946321400,7.7973212890625,0.10987551510334015,0.5291663408279419,-0.17421355843544006
1733851223956290600,7.80729052734375,0.10070358961820602,0.5221816897392273,-0.17741814255714417
1733851223966259500,7.817259521484375,0.106308214366436,0.5340508818626404,-0.17339661717414856
1733851223976228400,7.827228271484375,0.11463724821805954,0.5288166999816895,-0.18038608133792877
1733851223986196500,7.837196533203125,0.11811263114213943,0.5323262810707092,-0.18379037082195282
1733851223996165600,7.84716552734375,0.12139604240655899,0.5367143750190735,-0.1745380163192749
1733851224006134500,7.857134521484375,0.12503543496131897,0.5114917159080505,-0.16853593289852142
1733851224016103400,7.867103515625,0.13118813931941986,0.48160257935523987,-0.15389041602611542
1733851224026071300,7.8770712890625,0.13444368541240692,0.45882073044776917,-0.14087505638599396
1733851224036040200,7.887040283203125,0.13587726652622223,0.43141838908195496,-0.13601133227348328
1733851224046009300,7.89700927734375,0.13071709871292114,0.40830686688423157,-0.1222524493932724
1733851224055977500,7.9069775390625,0.11958669126033783,0.38042542338371277,-0.10715338587760925
1733851224065946400,7.9169462890625,0.1060943678021431,0.36760076880455017,-0.08700075000524521
1733851224075915300,7.926915283203125,0.10138589888811111,0.36216551065444946,-0.07213658839464188
1733851224085884400,7.936884521484375,0.09135709702968597,0.33691173791885376,-0.05781777948141098
1733851224095852300,7.946852294921875,0.07673421502113342,0.3080952763557434,-0.046891629695892334
1733851224105821400,7.956821533203125,0.061209842562675476,0.2927630841732025,-0.03502482548356056
1733851224115790300,7.966790283203125,0.04778937250375748,0.267168253660202,-0.03463707119226456
1733851224125759500,7.976759521484375,0.05019909143447876,0.25669389963150024,-0.03946435824036598
1733851224135727400,7.986727294921875,0.04408607259392738,0.22969265282154083,-0.05045123025774956
1733851224145696500,7.996696533203125,0.042469315230846405,0.22582589089870453,-0.052274346351623535
1733851224155665400,8.00666552734375,0.04677112028002739,0.2235022783279419,-0.06690682470798492
1733851224165634300,8.01663427734375,0.04155561700463295,0.2410728931427002,-0.08478099852800369
1733851224175602400,8.0266025390625,0.029265927150845528,0.26226818561553955,-0.11135641485452652
1733851224185571300,8.0365712890625,0.007634400390088558,0.3085283637046814,-0.15032510459423065
1733851224195540500,8.04654052734375,-0.031462933868169785,0.33809876441955566,-0.16985221207141876
1733851224205509400,8.05650927734375,-0.0506897009909153,0.3183255195617676,-0.15718743205070496
1733851224215477500,8.0664775390625,-0.06895791739225388,0.2841952443122864,-0.11692602187395096
1733851224225446400,8.0764462890625,-0.0679599940776825,0.22565098106861115,-0.07592864334583282
1733851224235415600,8.08641552734375,-0.04490554332733154,0.20016106963157654,-0.06750879436731339
1733851224245384400,8.096384521484374,-0.008392583578824997,0.22315512597560883,-0.08618152886629105
1733851224255352600,8.1063525390625,0.024897994473576546,0.24612301588058472,-0.11120964586734772
1733851224265321500,8.116321533203125,0.04185331240296364,0.2673327624797821,-0.12734360992908478
1733851224275290400,8.126290283203126,0.04552474617958069,0.2899840176105499,-0.1416807472705841
1733851224285258500,8.136258544921875,0.04826602712273598,0.320416659116745,-0.15541844069957733
1733851224295227600,8.1462275390625,0.04924606904387474,0.38788411021232605,-0.16085608303546906
1733851224305196500,8.156196533203126,0.05531753972172737,0.3984971344470978,-0.14820696413516998
1733851224315165400,8.16616552734375,0.05939244106411934,0.36759594082832336,-0.12323130667209625
1733851224325133300,8.17613330078125,0.06750738620758057,0.3184509873390198,-0.10281442105770111
1733851224335102200,8.186102294921875,0.07953289151191711,0.26526179909706116,-0.09001526981592178
1733851224345071400,8.1960712890625,0.0936860591173172,0.2327297031879425,-0.10233578830957413
1733851224355040300,8.206040283203125,0.10185477137565613,0.23221731185913086,-0.13437041640281677
1733851224365008400,8.21600830078125,0.10259811580181122,0.25745928287506104,-0.1609889268875122
1733851224374977300,8.225977294921876,0.09553302079439163,0.3114553987979889,-0.17924408614635468
1733851224384946400,8.235946533203125,0.0703071728348732,0.3758004307746887,-0.18732959032058716
1733851224394915300,8.245915283203125,0.04430007562041283,0.43346425890922546,-0.16375742852687836
1733851224404883500,8.255883544921875,0.029771676287055016,0.4726385474205017,-0.1286357194185257
1733851224414852400,8.265852294921874,0.013815612532198429,0.5002539157867432,-0.10876587778329849
1733851224424821500,8.275821533203125,0.011206557974219322,0.5254473686218262,-0.10160066187381744
1733851224434789400,8.285789306640625,-0.0008013686165213585,0.5255211591720581,-0.09096692502498627
1733851224444758500,8.295758544921876,-0.009425844997167587,0.4930003881454468,-0.07808234542608261
1733851224454727400,8.3057275390625,-0.005921658128499985,0.4548945426940918,-0.06686617434024811
1733851224464696300,8.3156962890625,0.004438933450728655,0.4114832580089569,-0.06380481272935867
1733851224474664400,8.32566455078125,0.01504630409181118,0.3594168722629547,-0.05944574996829033
1733851224484633300,8.33563330078125,0.01404323149472475,0.3146302402019501,-0.050778716802597046
1733851224494602500,8.3456025390625,0.008597333915531635,0.2870047390460968,-0.05042504891753197
1733851224504571400,8.3555712890625,0.0035507993306964636,0.27493220567703247,-0.07092753797769547
1733851224514539500,8.36553955078125,-0.012760796584188938,0.26206618547439575,-0.08553977310657501
1733851224524508400,8.37550830078125,-0.02744685672223568,0.24121151864528656,-0.07550930231809616
1733851224534477600,8.3854775390625,-0.03161470592021942,0.20775049924850464,-0.07158114016056061
1733851224544446500,8.395446533203126,-0.02853134647011757,0.20722410082817078,-0.08135741949081421
1733851224554414600,8.40541455078125,-0.014999560080468655,0.20640277862548828,-0.0896395817399025
1733851224564383500,8.415383544921875,-0.0037516632582992315,0.1930585652589798,-0.08844196051359177
1733851224574352400,8.425352294921876,0.00577313220128417,0.18473245203495026,-0.08807417750358582
1733851224584321500,8.435321533203124,0.00602716812863946,0.179575115442276,-0.09909796714782715
1733851224594289400,8.445289306640625,0.001592205953784287,0.17643870413303375,-0.12156758457422256
1733851224604258600,8.455258544921875,-0.009126344695687294,0.16148188710212708,-0.14245738089084625
1733851224614227500,8.4652275390625,-0.026512259617447853,0.1367536336183548,-0.14857839047908783
1733851224624195300,8.4751953125,-0.03380637988448143,0.12820234894752502,-0.15373429656028748
1733851224634164200,8.485164306640625,-0.037075676023960114,0.11646579951047897,-0.15447278320789337
1733851224644133400,8.49513330078125,-0.028136802837252617,0.10605185478925705,-0.13643525540828705
1733851224654102300,8.505102294921874,-0.015478529967367649,0.07872568815946579,-0.10906647890806198
1733851224664070400,8.5150703125,-0.002376849763095379,0.051323942840099335,-0.0806565135717392
1733851224674039300,8.525039306640625,0.010764517821371555,0.03542008250951767,-0.053931161761283875
1733851224684008400,8.535008544921874,0.024027178063988686,0.01729764975607395,-0.037723712623119354
1733851224693977300,8.544977294921875,0.035571180284023285,-0.004561843816190958,-0.03276970237493515
1733851224703945500,8.554945556640625,0.03936709091067314,-0.0069321091286838055,-0.04385800287127495
1733851224713914400,8.564914306640626,0.035175275057554245,-0.03129390627145767,-0.038053642958402634
1733851224723883300,8.57488330078125,0.035298481583595276,-0.04997554421424866,-0.038336265832185745
1733851224733852400,8.584852294921875,0.04237370193004608,-0.04300285875797272,-0.05598423629999161
1733851224743820500,8.594820556640625,0.04490279778838158,-0.025878095999360085,-0.06126249581575394
1733851224753789400,8.60478955078125,0.04072163254022598,-0.020409559831023216,-0.03696807473897934
1733851224763758300,8.61475830078125,0.041327252984046936,-0.007542962208390236,-0.008073493838310242
1733851224773727500,8.6247275390625,0.04153870791196823,-0.0007473737932741642,0.01299211010336876
1733851224783695400,8.6346953125,0.04313773289322853,0.012319650501012802,0.026724331080913544
1733851224793664500,8.64466455078125,0.04410552605986595,0.01281739491969347,0.03991922736167908
1733851224803634000,8.654634033203125,0.04356636106967926,0.006246277131140232,0.05772135406732559
1733851224813602000,8.66460205078125,0.04128696396946907,-0.011828331276774406,0.06805388629436493
1733851224823571000,8.674571044921874,0.0470719113945961,-0.016994193196296692,0.05538912117481232
1733851224833539800,8.684539794921875,0.05536898970603943,-0.01505514606833458,0.035569075495004654
1733851224843509000,8.694509033203126,0.057897306978702545,-0.024730289354920387,0.03606420382857323
1733851224853476900,8.704476806640624,0.058138053864240646,-0.04188770428299904,0.04776852950453758
1733851224863446000,8.714446044921875,0.05875951796770096,-0.050512995570898056,0.04571259021759033
1733851224873415000,8.724414794921875,0.055004462599754333,-0.03614044934511185,0.0418587252497673
1733851224883384000,8.734384033203124,0.055928364396095276,-0.03245314955711365,0.03555856645107269
1733851224893351700,8.7443515625,0.05936810001730919,-0.018887005746364594,0.027684401720762253
1733851224903320800,8.75432080078125,0.06848830729722977,0.0014129318296909332,0.026584453880786896
1733851224913289700,8.764289794921876,0.07128382474184036,0.013838176615536213,0.027588732540607452
1733851224923259000,8.7742587890625,0.06934235244989395,0.029106739908456802,0.030914058908820152
1733851224933226800,8.784226806640625,0.06387115269899368,0.03395049646496773,0.03558577597141266
1733851224943196000,8.79419580078125,0.06090094521641731,0.03593675047159195,0.02827734313905239
1733851224953164800,8.804164794921874,0.05635812506079674,0.03276092931628227,0.011110873892903328
1733851224963133000,8.8141328125,0.05911291018128395,0.03399670869112015,-0.011556539684534073
1733851224973101800,8.824101806640625,0.06853517889976501,0.027248788625001907,-0.023621192201972008
1733851224983071000,8.834071044921876,0.07124952226877213,0.018485281616449356,-0.030742133036255836
1733851224993040000,8.844039794921875,0.06667021661996841,0.014590142294764519,-0.04952887073159218
1733851225003008000,8.854008056640625,0.05494806170463562,0.031684510409832,-0.06357216835021973
1733851225012977000,8.863976806640625,0.03399617224931717,0.04676279425621033,-0.06303367763757706
1733851225022945800,8.87394580078125,0.00003639474743977189,0.0594896599650383,-0.050621397793293
1733851225032915000,8.8839150390625,-0.03713574260473251,0.07558820396661758,-0.03087672032415867
1733851225042882800,8.8938828125,-0.06617040932178497,0.08839505165815353,-0.014428488910198212
1733851225052852000,8.90385205078125,-0.08259705454111099,0.09540396183729172,-0.005508497357368469
1733851225062820900,8.91382080078125,-0.09697578847408295,0.09131664037704468,0.0013139841612428427
1733851225072790000,8.9237900390625,-0.09743838012218475,0.09255553781986237,0.0015238412888720632
1733851225082758000,8.9337578125,-0.09141121059656143,0.09297510981559753,-0.0024314438924193382
1733851225092727000,8.94372705078125,-0.08003818243741989,0.09039370715618134,-0.005420575849711895
1733851225102696000,8.953696044921875,-0.059914302080869675,0.08246858417987823,-0.00012567942030727863
1733851225112664000,8.9636640625,-0.03720499575138092,0.07616141438484192,0.016095634549856186
1733851225122633000,8.973633056640624,-0.020931582897901535,0.06537695229053497,0.023661741986870766
1733851225132601900,8.983601806640625,-0.013541043736040592,0.06390901654958725,0.026835964992642403
1733851225142571000,8.993571044921875,-0.021530644968152046,0.05999378487467766,0.022313665598630905
1733851225152539000,9.003538818359376,-0.02859840914607048,0.06008726730942726,0.01551834400743246
1733851225162507800,9.0135078125,-0.036702074110507965,0.06741118431091309,0.010370617732405663
1733851225172476700,9.0234765625,-0.044171709567308426,0.05316327512264252,0.0024988469667732716
1733851225182445800,9.03344580078125,-0.048614002764225006,0.04057341068983078,-0.009994614869356155
1733851225192413700,9.04341357421875,-0.04793436452746391,0.02685653418302536,-0.022917604073882103
1733851225202382800,9.0533828125,-0.04801260307431221,0.0097888745367527,-0.030438045039772987
1733851225212351700,9.063351806640625,-0.047686100006103516,-0.0017484722193330526,-0.0377899706363678
1733851225222321000,9.07332080078125,-0.0482369139790535,-0.012258181348443031,-0.046296779066324234
1733851225232288800,9.083288818359375,-0.043996892869472504,-0.016805263236165047,-0.04668080434203148
1733851225242258000,9.0932578125,-0.03984895348548889,-0.031347762793302536,-0.04530857875943184
1733851225252226800,9.103226806640626,-0.037335194647312164,-0.03972127288579941,-0.036671414971351624
1733851225262195000,9.11319482421875,-0.04071030393242836,-0.055531688034534454,-0.02570955827832222
1733851225272163800,9.123163818359375,-0.047479260712862015,-0.057218268513679504,-0.004941695369780064
1733851225282132700,9.1331328125,-0.05800674110651016,-0.04707849770784378,0.020312689244747162
1733851225292102000,9.143101806640624,-0.0676998496055603,-0.04706518352031708,0.04767134040594101
1733851225302070000,9.153070068359375,-0.07634750753641129,-0.05730471760034561,0.07119420915842056
1733851225312039000,9.163038818359375,-0.07528436928987503,-0.06995473057031631,0.08745333552360535
1733851225322007800,9.1730078125,-0.06855851411819458,-0.09130947291851044,0.09067682921886444
1733851225331977000,9.18297705078125,-0.06172085180878639,-0.09948857128620148,0.08413583785295486
1733851225341944800,9.19294482421875,-0.057447463274002075,-0.10305487364530563,0.06338594108819962
1733851225351914000,9.2029140625,-0.05537605658173561,-0.10140957683324814,0.04625009372830391
1733851225361883000,9.2128828125,-0.04920659214258194,-0.09935314953327179,0.03575316071510315
1733851225371851000,9.22285107421875,-0.05267349258065224,-0.10350421816110611,0.03318933770060539
1733851225381820000,9.23281982421875,-0.05437736213207245,-0.10115743428468704,0.0408136211335659
1733851225391789000,9.2427890625,-0.04836634173989296,-0.11324711889028549,0.05156746879220009
1733851225401758000,9.252758056640625,-0.04320472106337547,-0.13038361072540283,0.0669054239988327
1733851225411726000,9.26272607421875,-0.039663784205913544,-0.14798949658870697,0.06711848080158234
1733851225421695000,9.272695068359376,-0.0348004549741745,-0.155325248837471,0.07061047852039337
1733851225431663900,9.282663818359374,-0.024363256990909576,-0.1598566174507141,0.07288561761379242
1733851225441633000,9.292633056640625,-0.01849224418401718,-0.164629727602005,0.06252686679363251
1733851225451601000,9.302600830078125,-0.015630144625902176,-0.14620518684387207,0.056907858699560165
1733851225461569800,9.31256982421875,-0.019897744059562683,-0.13874928653240204,0.053746674209833145
1733851225471538700,9.32253857421875,-0.029880601912736893,-0.12800182402133942,0.05354746803641319
1733851225481507800,9.3325078125,-0.04113559424877167,-0.11530573666095734,0.04670426994562149
1733851225491475700,9.342475830078126,-0.046967118978500366,-0.09914754331111908,0.04193534702062607
1733851225501444900,9.35244482421875,-0.042771920561790466,-0.08903687447309494,0.0398343987762928
1733851225511413800,9.362413818359375,-0.037889812141656876,-0.08245699852705002,0.04345177114009857
1733851225521382000,9.3723818359375,-0.027383243665099144,-0.07684004306793213,0.04897723346948624
1733851225531350800,9.382350830078124,-0.01550261490046978,-0.08417465537786484,0.04121917858719826
1733851225541320000,9.39231982421875,-0.002683092374354601,-0.08857747912406921,0.02676227129995823
1733851225551288800,9.402288818359375,0.004027540795505047,-0.08059918135404587,0.016375144943594933
1733851225561257000,9.412257080078126,0.0021437169052660465,-0.0835016667842865,0.016708368435502052
1733851225571225900,9.422225830078125,0.0003945527132600546,-0.08434295654296875,0.017822369933128357
1733851225581194800,9.43219482421875,0.002950995462015271,-0.08001577854156494,0.010598686523735523
1733851225591164000,9.442163818359376,0.009304499253630638,-0.09115684032440186,0.010525182820856571
1733851225601132000,9.452132080078124,0.010049895383417606,-0.12085660547018051,0.021996427327394485
1733851225611101000,9.462100830078125,0.013351681642234325,-0.14644160866737366,0.029801087453961372
1733851225621069800,9.47206982421875,0.013667467050254345,-0.14618322253227234,0.02111741527915001
1733851225631038000,9.482037841796876,0.015575621277093887,-0.13921639323234558,0.010304982773959637
1733851225641006800,9.4920068359375,0.005580164026468992,-0.14271022379398346,0.025891417637467384
1733851225650976000,9.50197607421875,0.00003679411020129919,-0.15928654372692108,0.04035904258489609
1733851225660945000,9.51194482421875,-0.005402461159974337,-0.15104492008686066,0.045491937547922134
1733851225670913000,9.5219130859375,-0.008742596954107285,-0.13536502420902252,0.03813362121582031
1733851225680882000,9.5318818359375,-0.0074256123043596745,-0.12666192650794983,0.03087206743657589
1733851225690851000,9.54185107421875,-0.004607455339282751,-0.11778374761343002,0.03774222359061241
1733851225700820000,9.551820068359374,-0.006086345762014389,-0.13110576570034027,0.0622563511133194
1733851225710787800,9.561787841796875,0.0017670498928055167,-0.14144521951675415,0.08816038817167282
1733851225720756700,9.5717568359375,0.01317252591252327,-0.14149121940135956,0.09306115657091141
1733851225730726000,9.581725830078126,0.017707355320453644,-0.14150294661521912,0.08696971088647842
1733851225740693800,9.59169384765625,0.016736898571252823,-0.15016408264636993,0.08235684782266617
1733851225750663000,9.601662841796875,0.009358612820506096,-0.15994161367416382,0.08820115029811859
1733851225760631800,9.6116318359375,0.0014521901030093431,-0.17052781581878662,0.09620299190282822
1733851225770600700,9.6216005859375,0.003400825196877122,-0.17207351326942444,0.09876494854688644
1733851225780568800,9.63156884765625,0.005712966900318861,-0.16999205946922302,0.09849988669157028
1733851225790537700,9.641537841796875,0.01318579725921154,-0.17322753369808197,0.09263773262500763
1733851225800507000,9.6515068359375,0.02551613748073578,-0.1755661517381668,0.10196060687303543
1733851225810475500,9.6614755859375,0.029505020007491112,-0.19553452730178833,0.11734195798635483
1733851225820443400,9.671443359375,0.031093299388885498,-0.2094496786594391,0.12571902573108673
1733851225830412300,9.681412353515626,0.027336111292243004,-0.20668426156044006,0.12031441181898117
1733851225840381700,9.691381591796874,0.021162917837500572,-0.20383699238300323,0.13510648906230927
1733851225850349300,9.701349365234375,0.010699891485273838,-0.21956110000610352,0.1551710069179535
1733851225860318500,9.711318359375,0.005959826987236738,-0.22610147297382355,0.16409054398536682
1733851225870287400,9.721287353515624,0.007885558530688286,-0.21887950599193573,0.15524910390377045
1733851225880256500,9.731256591796875,0.012096498161554337,-0.21299993991851807,0.15290917456150055
1733851225890224400,9.741224365234375,0.009475413709878922,-0.22536712884902954,0.154708132147789
1733851225900193500,9.751193603515626,0.011599728837609291,-0.22321489453315735,0.15294915437698364
1733851225910162400,9.761162353515624,0.014562762342393398,-0.21613621711730957,0.13587163388729095
1733851225920131300,9.77113134765625,0.020519010722637177,-0.20177391171455383,0.1205991581082344
1733851225930099500,9.781099365234375,0.024245837703347206,-0.1903015524148941,0.10775180160999298
1733851225940068600,9.791068603515624,0.03166249021887779,-0.18579994142055511,0.09627658873796463
1733851225950037500,9.80103759765625,0.04192844033241272,-0.17924615740776062,0.09083309024572372
1733851225960005600,9.811005615234375,0.050524480640888214,-0.18469937145709991,0.09880075603723526
1733851225969974500,9.820974609375,0.05141450837254524,-0.19843275845050812,0.10451935976743698
1733851225979943400,9.830943359375,0.05349244549870491,-0.20520611107349396,0.10729428380727768
1733851225989912600,9.84091259765625,0.05228576809167862,-0.21173378825187683,0.10498452186584473
1733851225999880400,9.85088037109375,0.03836776688694954,-0.22559931874275208,0.09789817780256271
1733851226009849600,9.860849609375,0.030114101245999336,-0.23468469083309174,0.07915405184030533
1733851226019818500,9.870818603515625,0.026306629180908203,-0.23068776726722717,0.06514576822519302
1733851226029787600,9.88078759765625,0.02358434721827507,-0.23065075278282166,0.052985236048698425
1733851226039755500,9.890755615234376,0.025623822584748268,-0.2182687669992447,0.04311173036694527
1733851226049724700,9.900724609375,0.028748244047164917,-0.20495297014713287,0.048146702349185944
1733851226059693600,9.910693603515625,0.029515279456973076,-0.20421560108661652,0.06955849379301071
1733851226069661700,9.92066162109375,0.02888623997569084,-0.20019875466823578,0.09283319115638733
1733851226079630600,9.930630615234374,0.02892988733947277,-0.19026876986026764,0.09318909049034119
1733851226089599500,9.940599609375,0.02790110744535923,-0.16024188697338104,0.07253414392471313
1733851226099568600,9.950568603515626,0.01986539736390114,-0.12560944259166718,0.05120476707816124
1733851226109536500,9.96053662109375,0.010043659247457981,-0.11384093761444092,0.03316211700439453
1733851226119505400,9.97050537109375,0.00830965954810381,-0.11265669763088226,0.018527699634432793
1733851226129474300,9.980474365234375,0.0064278701320290565,-0.11892018467187881,0.0017934618517756462
1733851226139443500,9.990443359375,0.012244591489434242,-0.12786291539669037,-0.010994626209139824
1733851226149411300,10.000411376953124,0.0263228602707386,-0.1356894075870514,-0.019906628876924515
1733851226159380500,10.01038037109375,0.04037407040596008,-0.1302289217710495,-0.028480373322963715
1733851226169349400,10.020349365234376,0.04894545301795006,-0.11600817739963531,-0.03253716602921486
1733851226179317500,10.0303173828125,0.044879935681819916,-0.09513702243566513,-0.025599731132388115
1733851226189286400,10.040286376953125,0.0409160852432251,-0.09001389890909195,-0.02190832421183586
1733851226199255600,10.050255615234375,0.038019124418497086,-0.07225379347801208,-0.020909180864691734
1733851226209224400,10.060224365234374,0.03279373422265053,-0.06290583312511444,-0.01824015937745571
1733851226219192600,10.070192626953125,0.030681218951940536,-0.06584499031305313,-0.008014485239982605
1733851226229161500,10.080161376953125,0.03094061091542244,-0.06218954175710678,0.006250737234950066
1733851226239130600,10.090130615234376,0.029508784413337708,-0.061418451368808746,0.021344324573874474
1733851226249098500,10.100098388671874,0.02170279435813427,-0.06271647661924362,0.02294381894171238
1733851226259067600,10.110067626953125,0.016190500929951668,-0.05895638093352318,0.010632574558258057
1733851226269036500,10.12003662109375,0.010837813839316368,-0.05253336951136589,-0.00908333994448185
1733851226279005400,10.13000537109375,0.012459819205105305,-0.04649808257818222,-0.028985103592276573
1733851226288973600,10.1399736328125,0.015243621543049812,-0.03741989657282829,-0.035495463758707047
1733851226298942500,10.1499423828125,0.016936756670475006,-0.04360423982143402,-0.025504648685455322
1733851226308911600,10.15991162109375,0.02298213168978691,-0.03782811015844345,-0.022255592048168182
1733851226318880500,10.169880615234375,0.025614703074097633,-0.029859140515327454,-0.02149779163300991
1733851226328848600,10.1798486328125,0.016587918624281883,-0.024452660232782364,-0.021469827741384506
1733851226338817500,10.189817626953126,0.003263169201090932,-0.014331418089568615,-0.02492913044989109
1733851226348786700,10.19978662109375,-0.009334647096693516,0.0016193187329918146,-0.04261251911520958
1733851226358754300,10.20975439453125,-0.016616225242614746,0.030212702229619026,-0.06314708292484283
1733851226368723500,10.219723388671875,-0.021191537380218506,0.043134089559316635,-0.07948930561542511
1733851226378692400,10.2296923828125,-0.020693888887763023,0.03876294940710068,-0.08937875181436539
1733851226388661500,10.23966162109375,-0.007668366655707359,0.04538782685995102,-0.09050633758306503
1733851226398629400,10.24962939453125,0.004075373988598585,0.0473758801817894,-0.09626835584640503
1733851226408598500,10.2595986328125,0.016314728185534477,0.050168734043836594,-0.1021917536854744
1733851226418567400,10.2695673828125,0.02320392057299614,0.0540422685444355,-0.10735432803630829
1733851226428535600,10.27953564453125,0.030888471752405167,0.061278607696294785,-0.10950536280870438
1733851226438504400,10.28950439453125,0.03839040920138359,0.0666976347565651,-0.10301978886127472
1733851226448473300,10.299473388671874,0.041130803525447845,0.06811177730560303,-0.0998048186302185
1733851226458442500,10.3094423828125,0.045299213379621506,0.07728836685419083,-0.10669078677892685
1733851226468410400,10.319410400390625,0.05015069246292114,0.08899935334920883,-0.11081442981958389
1733851226478379500,10.329379638671876,0.05188935995101929,0.08651259541511536,-0.11319517344236374
1733851226488348400,10.339348388671874,0.04943099617958069,0.0839730054140091,-0.1077737808227539
1733851226498317600,10.349317626953125,0.047131020575761795,0.08093532919883728,-0.10516561567783356
1733851226508285400,10.359285400390625,0.05150499567389488,0.08076541125774384,-0.10183266550302505
1733851226518254600,10.369254638671874,0.05961605906486511,0.07669161260128021,-0.10407234728336334
1733851226528223500,10.379223388671875,0.06864896416664124,0.07426973432302475,-0.10820876806974411
1733851226538191600,10.389191650390625,0.07841294258832932,0.08516007661819458,-0.11193090677261353
1733851226548160500,10.399160400390626,0.07873065769672394,0.10340326279401779,-0.10060421377420425
1733851226558129700,10.409129638671875,0.06839099526405334,0.12208852916955948,-0.08649926632642746
1733851226568098600,10.4190986328125,0.05554071068763733,0.13044634461402893,-0.08672802895307541
1733851226578066700,10.429066650390626,0.04166577756404877,0.12959057092666626,-0.10016226768493652
1733851226588035600,10.43903564453125,0.033587343990802765,0.12971441447734833,-0.11398620158433914
1733851226598004500,10.44900439453125,0.024617815390229225,0.12876924872398376,-0.11420272290706635
1733851226607972600,10.45897265625,0.021066490560770035,0.11647184193134308,-0.11434120684862137
1733851226617941500,10.46894140625,0.024413032457232475,0.09956137090921402,-0.11501676589250565
1733851226627910700,10.47891064453125,0.033079493790864944,0.08260396122932434,-0.1166175901889801
1733851226637879600,10.488879638671875,0.037728071212768555,0.06601899117231369,-0.11443471163511276
1733851226647847400,10.498847412109376,0.04184718057513237,0.04979901388287544,-0.10061876475811005
1733851226657816300,10.50881640625,0.04064654931426048,0.033264219760894775,-0.08283655345439911
1733851226667785500,10.518785400390625,0.03552155941724777,0.03393347188830376,-0.0638122633099556
1733851226677754400,10.52875439453125,0.02838604897260666,0.03973602131009102,-0.05709712952375412
1733851226687722500,10.538722412109376,0.016798900440335274,0.04306923225522041,-0.05324114114046097
1733851226697691400,10.54869140625,0.0031298785470426083,0.0439017079770565,-0.0549764409661293
1733851226707660500,10.55866064453125,-0.0036686391104012728,0.06013394147157669,-0.06271159648895264
1733851226717628400,10.56862841796875,0.0002929682668764144,0.06989400088787079,-0.07338088750839233
1733851226727597600,10.57859765625,0.004385980311781168,0.07914555072784424,-0.08161352574825287
1733851226737566500,10.58856640625,0.01379330176860094,0.08914399147033691,-0.08460121601819992
1733851226747535400,10.598535400390626,0.019849328324198723,0.08870670199394226,-0.08501587063074112
1733851226757503500,10.60850341796875,0.022009730339050293,0.07840020209550858,-0.08652511239051819
1733851226767472400,10.618472412109375,0.01916307583451271,0.06305799633264542,-0.09921028465032578
1733851226777441500,10.628441650390625,0.010411270894110203,0.055796124041080475,-0.12852205336093903
1733851226787409700,10.63840966796875,-0.003016386879608035,0.055326879024505615,-0.16744229197502136
1733851226797378600,10.648378662109375,-0.019880831241607666,0.05743558332324028,-0.2087932676076889
1733851226807347500,10.658347412109375,-0.032323118299245834,0.05136943608522415,-0.24904640018939972
1733851226817316600,10.668316650390626,-0.03292413428425789,0.04706764221191406,-0.28420141339302063
1733851226827284500,10.678284423828124,-0.03161945194005966,0.0291147381067276,-0.3078577518463135
1733851226837253600,10.688253662109375,-0.028361637145280838,0.03141237795352936,-0.3181944191455841
1733851226847222500,10.698222412109375,-0.03852665796875954,0.029414206743240356,-0.33076801896095276
1733851226857190700,10.708190673828126,-0.0403764545917511,0.052242014557123184,-0.34723952412605286
1733851226867159600,10.71815966796875,-0.039089348167181015,0.08253441005945206,-0.36561107635498047
1733851226877128700,10.728128662109375,-0.03702467679977417,0.09873395413160324,-0.36558908224105835
1733851226887097600,10.73809765625,-0.04214460402727127,0.09167710691690445,-0.32958874106407166
1733851226897065500,10.7480654296875,-0.04844057932496071,0.051224078983068466,-0.2819136381149292
1733851226907034400,10.758034423828125,-0.026642605662345886,0.04500559717416763,-0.2363738715648651
1733851226917003500,10.76800341796875,-0.0034237834624946117,0.06799868494272232,-0.18898311257362366
1733851226926971400,10.777971435546876,0.014379980973899364,0.09844394028186798,-0.14533549547195435
1733851226936940500,10.7879404296875,0.023671697825193405,0.129025399684906,-0.11630738526582718
1733851226946909400,10.797909423828125,0.018817022442817688,0.15221673250198364,-0.10372980684041977
1733851226956878300,10.80787841796875,0.014734122902154922,0.1750337928533554,-0.10064423829317093
1733851226966846500,10.817846435546874,-0.005484595894813538,0.19283223152160645,-0.10561848431825638
1733851226976815400,10.8278154296875,-0.028141874819993973,0.19004479050636292,-0.11417995393276215
1733851226986784500,10.837784423828126,-0.04679092764854431,0.18352536857128143,-0.13084682822227478
1733851226996753400,10.84775341796875,-0.06270932406187057,0.17335930466651917,-0.16040858626365662
1733851227006721500,10.857721435546875,-0.06885909289121628,0.15939101576805115,-0.19537003338336945
1733851227016690400,10.8676904296875,-0.07083338499069214,0.16749173402786255,-0.23034246265888214
1733851227026659600,10.87765966796875,-0.05601316690444946,0.17877261340618134,-0.23530234396457672
1733851227036627500,10.88762744140625,-0.04591921716928482,0.15626074373722076,-0.2277245670557022
1733851227046596600,10.8975966796875,-0.02702169120311737,0.155813068151474,-0.2068975865840912
1733851227056565500,10.9075654296875,-0.007928002625703812,0.1516815423965454,-0.1811596155166626
1733851227066534400,10.917534423828124,0.0006292668404057622,0.140524759888649,-0.15245740115642548
1733851227076502500,10.92750244140625,0.008012562058866024,0.11970240622758865,-0.1272951364517212
1733851227086471700,10.9374716796875,0.011101296171545982,0.115520179271698,-0.11332046240568161
1733851227096440600,10.947440673828124,0.01496387179940939,0.12514370679855347,-0.1060701459646225
1733851227106408700,10.95740869140625,0.011575798504054546,0.1393071860074997,-0.08811990171670914
1733851227116377600,10.967377685546875,0.009079588577151299,0.13405823707580566,-0.07986107468605042
1733851227126346500,10.977346435546876,0.008626851253211498,0.12423168867826462,-0.08484172075986862
1733851227136315600,10.987315673828125,-0.009308526292443275,0.10314596444368362,-0.10342907905578613
1733851227146283300,10.997283203125,-0.023189455270767212,0.08706765621900558,-0.11762425303459167
1733851227156252700,11.007252685546876,-0.027471357956528664,0.07548203319311142,-0.12231608480215073
1733851227166221600,11.0172216796875,-0.02360364980995655,0.07375311106443405,-0.10919921845197678
1733851227176189400,11.027189453125,-0.015378586947917938,0.0596722774207592,-0.10115528106689453
1733851227186158300,11.037158447265625,-0.010174770839512348,0.055610425770282745,-0.08282554149627686
1733851227196127500,11.04712744140625,-0.010484356433153152,0.05848374590277672,-0.062025152146816254
1733851227206096400,11.057096435546875,-0.009213762357831001,0.06430221349000931,-0.05018287152051926
1733851227216064500,11.067064453125,-0.019565032795071602,0.06751655787229538,-0.043552465736866
1733851227226033400,11.077033447265626,-0.044026169925928116,0.033321574330329895,-0.05269323289394379
1733851227236002600,11.08700244140625,-0.07779538631439209,0.009482860565185547,-0.08066298067569733
1733851227245970400,11.096970458984375,-0.10366879403591156,0.0012630140408873558,-0.10009260475635529
1733851227255939600,11.106939697265625,-0.13837184011936188,-0.05719714239239693,-0.11069981008768082
1733851227265908500,11.116908447265626,-0.15019866824150085,-0.07791280746459961,-0.09453282505273819
1733851227275877400,11.12687744140625,-0.1503305733203888,-0.08118963986635208,-0.07023241370916367
1733851227285845500,11.136845458984375,-0.11015412956476212,-0.0731429010629654,-0.0385354720056057
1733851227295814400,11.146814453125,-0.08458990603685379,-0.09678569436073303,-0.016430316492915154
1733851227305783600,11.156783447265624,-0.06931720674037933,-0.12550601363182068,-0.022820837795734406
1733851227315751700,11.166751708984375,-0.062281228601932526,-0.1379259079694748,-0.027896394953131676
1733851227325720600,11.176720458984375,-0.05339745432138443,-0.14347247779369354,-0.04579443484544754
1733851227335689500,11.186689453125,-0.06103048846125603,-0.10991574078798294,-0.06325971335172653
1733851227345658600,11.19665869140625,-0.043979331851005554,-0.06773686408996582,-0.0682065337896347
1733851227355626500,11.20662646484375,-0.049610719084739685,-0.04756758734583855,-0.06073751300573349
1733851227365595600,11.216595703125,-0.07198259979486465,-0.023320041596889496,-0.04844116419553757
1733851227375564500,11.226564453125,-0.08237188309431076,0.006569879129528999,-0.03372808173298836
1733851227385532700,11.23653271484375,-0.09046123176813126,-0.02869090810418129,-0.029790064319968224
1733851227395501600,11.24650146484375,-0.09652099758386612,-0.03660242632031441,-0.04573848098516464
1733851227405470700,11.256470703125,-0.10022465884685516,-0.0612526461482048,-0.06708372384309769
1733851227415439600,11.266439697265625,-0.10149387270212173,-0.10298311710357666,-0.08408243209123611
1733851227425407500,11.276407470703125,-0.10540126264095306,-0.12078528106212616,-0.0925784483551979
1733851227435376400,11.28637646484375,-0.09264052659273148,-0.13433460891246796,-0.09615710377693176
1733851227445345300,11.29634521484375,-0.08611764758825302,-0.1244252398610115,-0.09994545578956604
1733851227455314400,11.306314453125,-0.07561620324850082,-0.09659312665462494,-0.09395530074834824
1733851227465282600,11.316282470703126,-0.06708263605833054,-0.11079096794128418,-0.08474556356668472
1733851227475251500,11.32625146484375,-0.07948146015405655,-0.11278924345970154,-0.0735359638929367
1733851227485220400,11.336220458984375,-0.10403580963611603,-0.10886534303426743,-0.051071930676698685
1733851227495188500,11.3461884765625,-0.11413609981536865,-0.11762414872646332,-0.04433219134807587
1733851227505157400,11.356157470703126,-0.10890831798315048,-0.08418789505958557,-0.050328828394412994
1733851227515126500,11.36612646484375,-0.10501287132501602,-0.10977333039045334,-0.07705976814031601
1733851227525095400,11.376095458984375,-0.10695245116949081,-0.14839902520179749,-0.10061302781105042
1733851227535063600,11.3860634765625,-0.11118489503860474,-0.19034671783447266,-0.10488250106573105
1733851227545032400,11.396032470703124,-0.10680080205202103,-0.22878065705299377,-0.10367715358734131
1733851227555001600,11.406001708984375,-0.08810660988092422,-0.2659592628479004,-0.09864289313554764
1733851227564969500,11.415969482421875,-0.09585614502429962,-0.29800641536712646,-0.11031287163496017
1733851227574938600,11.425938720703124,-0.10855744034051895,-0.2893732488155365,-0.13640882074832916
1733851227584907500,11.435907470703125,-0.12200853228569031,-0.28321707248687744,-0.17911607027053833
1733851227594875600,11.445875732421875,-0.1147623211145401,-0.27436894178390503,-0.22120031714439392
1733851227604844500,11.455844482421876,-0.09799745678901672,-0.25601816177368164,-0.2708972990512848
1733851227614813400,11.4658134765625,-0.07376878708600998,-0.23583269119262695,-0.31519585847854614
1733851227624782600,11.475782470703125,-0.05821353569626808,-0.22014667093753815,-0.32889702916145325
1733851227634750700,11.485750732421875,-0.04064038395881653,-0.23355668783187866,-0.3480019271373749
1733851227644719600,11.4957197265625,-0.025390593335032463,-0.23803852498531342,-0.3581211268901825
1733851227654688500,11.5056884765625,-0.0333225354552269,-0.27846524119377136,-0.3636084794998169
1733851227664656400,11.515656494140625,-0.0609096884727478,-0.30841246247291565,-0.3726975917816162
1733851227674625300,11.525625244140626,-0.06942570209503174,-0.2843155562877655,-0.36006638407707214
1733851227684594400,11.535594482421875,-0.09295766055583954,-0.28155890107154846,-0.33825936913490295
1733851227694563300,11.545563232421875,-0.10198192298412323,-0.26320549845695496,-0.2990395724773407
1733851227704531500,11.555531494140626,-0.09005069732666016,-0.2213861495256424,-0.2745895981788635
1733851227714500400,11.565500244140624,-0.07150253653526306,-0.15316399931907654,-0.259558767080307
1733851227724469500,11.575469482421875,-0.03467448428273201,-0.0905056819319725,-0.24641259014606476
1733851227734437400,11.585437255859375,0.003925912082195282,-0.04474207013845444,-0.23778851330280304
1733851227744406500,11.595406494140626,0.04895889759063721,-0.00668470049276948,-0.22574996948242188
1733851227754375400,11.60537548828125,0.06890647858381271,0.030105017125606537,-0.20219522714614868
1733851227764344600,11.615344482421875,0.0778736099600792,0.06067357584834099,-0.1754530966281891
1733851227774312400,11.6253125,0.07215925306081772,0.09862527251243591,-0.14961868524551392
1733851227784281600,11.635281494140624,0.06307041645050049,0.14219911396503448,-0.13082343339920044
1733851227794250500,11.64525048828125,0.05159182846546173,0.16545799374580383,-0.13186132907867432
1733851227804217900,11.6552177734375,0.03607571870088577,0.18194136023521423,-0.15054847300052643
1733851227814186800,11.665186767578126,0.012235899455845356,0.16738319396972656,-0.17231234908103943
1733851227824156000,11.675156005859375,-0.006006221286952496,0.13753394782543182,-0.18834325671195984
1733851227834124800,11.685124755859375,-0.008175129070878029,0.13538092374801636,-0.199944406747818
1733851227844093000,11.695093017578126,0.0044868700206279755,0.12057667225599289,-0.20143631100654602
1733851227854061800,11.705061767578124,0.011558187194168568,0.08105933666229248,-0.18486787378787994
1733851227864030700,11.71503076171875,0.025647375732660294,0.05169425904750824,-0.15523728728294373
1733851227873998600,11.72499853515625,0.04917149618268013,0.033592589199543,-0.12820954620838165
1733851227883967700,11.7349677734375,0.07774162292480469,0.021242709830403328,-0.11156957596540451
1733851227893937000,11.74493701171875,0.0880129337310791,0.0068290214985609055,-0.10188962519168854
1733851227903905800,11.75490576171875,0.08479157090187073,-0.018684593960642815,-0.0873868465423584
1733851227913873700,11.764873779296876,0.06492654234170914,-0.05452895909547806,-0.06744079291820526
1733851227923842600,11.774842529296874,0.04335014149546623,-0.06792545318603516,-0.05544937774538994
1733851227933811700,11.784811767578125,0.023075496777892113,-0.06740746647119522,-0.05065249279141426
1733851227943779600,11.794779541015625,0.017912426963448524,-0.06299567967653275,-0.04919920489192009
1733851227953748700,11.804748779296874,0.01294782105833292,-0.06575443595647812,-0.0444808267056942
1733851227963717600,11.814717529296875,0.011789878830313683,-0.06295838207006454,-0.04715970158576965
1733851227973686800,11.824686767578125,0.009867966175079346,-0.0449352003633976,-0.050592679530382156
1733851227983654700,11.834654541015626,0.005713168531656265,-0.029330141842365265,-0.046314310282468796
1733851227993623800,11.844623779296874,-0.0039250487461686134,0.0038258179556578398,-0.03853079676628113
1733851228003592700,11.8545927734375,-0.009392518550157547,0.05098933354020119,-0.041590768843889236
1733851228013560800,11.864560791015625,-0.017748216167092323,0.09592311829328537,-0.052100829780101776
1733851228023529700,11.87452978515625,-0.02896997705101967,0.12503333389759064,-0.07691963016986847
1733851228033499000,11.884498779296875,-0.040743350982666016,0.15219002962112427,-0.1132679134607315
1733851228043467800,11.8944677734375,-0.05526796355843544,0.1615625023841858,-0.1476203054189682
1733851228053436000,11.904435791015626,-0.061961933970451355,0.14454740285873413,-0.1648596227169037
1733851228063404800,11.91440478515625,-0.0632660835981369,0.12517502903938293,-0.16256263852119446
1733851228073373700,11.924373779296875,-0.05876333639025688,0.09866596013307571,-0.1544167846441269
1733851228083341800,11.934341796875,-0.044103167951107025,0.08068563044071198,-0.1459796279668808
1733851228093310700,11.944310791015624,-0.024385543540120125,0.04742131754755974,-0.13095791637897491
1733851228103279900,11.95427978515625,-0.005014775320887566,0.013562154956161976,-0.11358798295259476
1733851228113248800,11.964248779296875,0.014651816338300705,-0.005802643485367298,-0.09999503940343857
1733851228123217000,11.974216796875,0.029455795884132385,-0.0075949509628117085,-0.09051631391048431
1733851228133185800,11.984185791015625,0.03831585496664047,-0.0105292908847332,-0.07719553261995316
1733851228143155000,11.994155029296875,0.03135994076728821,-0.0011797308688983321,-0.04965737834572792
1733851228153122600,12.00412255859375,0.015633637085556984,0.007821943610906601,-0.03361356630921364
1733851228163091700,12.014091796875,0.0042853751219809055,0.03813723847270012,-0.024142032489180565
1733851228173060600,12.024060546875,-0.005450226366519928,0.06948345899581909,-0.02782054990530014
1733851228183029800,12.03402978515625,-0.0033993262331932783,0.11293400079011917,-0.033090680837631226
1733851228192997600,12.04399755859375,0.0022508748807013035,0.13563700020313263,-0.0527581125497818
1733851228202966800,12.053966796875,0.01623087376356125,0.16734139621257782,-0.08234822750091553
1733851228212935700,12.063935791015625,0.024759268388152122,0.17698746919631958,-0.10245870053768158
1733851228222903800,12.07390380859375,0.027786217629909515,0.16515317559242249,-0.09626419097185135
