time,seconds_elapsed,z,y,x
1733851591804600000,0.01560009765625,0.2710714418202638,0.1943330700546503,0.05276011480689048
1733851591814569000,0.02556884765625,0.6076210257232189,0.1264677405744791,-0.08085048325955867
1733851591824537000,0.035537109375,0.6178519123584032,-0.1809744067877531,0.03336743207275867
1733851591834506000,0.045506103515625,1.4324825343579053,-0.4143795502975583,0.17564356715381144
1733851591844475100,0.05547509765625,2.1868328751787542,-0.4320955319911241,0.35860768645405766
1733851591854442800,0.06544287109375,0.9888967633202671,-0.3533618947550654,0.37497663745284077
1733851591864412000,0.075411865234375,-0.2902686019822955,-0.34972499955743547,0.4959656543552875
1733851591874380800,0.085380859375,-0.7971931649863719,-0.21798604058176277,0.5021481423825025
1733851591884349000,0.095348876953125,-1.167833234539628,-0.17103344300985335,0.4306961865872144
1733851591894317800,0.10531787109375,-1.4457850835233925,-0.20153437973558902,0.2664040345311165
1733851591904287000,0.115286865234375,-1.4082856662124394,-0.23181027553379535,0.0740261901974678
1733851591914254800,0.1252548828125,-1.1405559360355138,-0.34969109728783365,-0.1006125838279724
1733851591924224000,0.13522412109375,-0.6002607260882854,-0.4375046975582838,-0.2216296577811241
1733851591934193000,0.14519287109375,-0.10352700996994972,-0.5412804215922952,-0.2206324634373188
1733851591944161000,0.1551611328125,0.03310322817862034,-0.6300061682716012,-0.07071019751727581
1733851591954130000,0.1651298828125,-0.022556699723005294,-0.5852522497877478,0.14291267941892147
1733851591964098800,0.175098876953125,-0.06067454119324684,-0.43430882412642235,0.3061187898039818
1733851591974067000,0.18506689453125,-0.097196637904644,-0.2572352241694927,0.41236441108286376
1733851591984036000,0.1950361328125,-0.040187341220676895,-0.1178165243461728,0.4359434395909309
1733851591994005000,0.2050048828125,-0.030528993776440617,-0.0016729016482830046,0.3967155910521745
1733851592003973000,0.21497314453125,-0.18207798411548137,0.08339870643764734,0.3980816187083721
1733851592013942000,0.22494189453125,-0.3656234104350209,0.1149015136823058,0.355399245801568
1733851592023911000,0.234910888671875,-0.415790001617372,0.10091682747155427,0.2259165413200855
1733851592033879000,0.244879150390625,-0.38418841017335653,0.08660802387297153,0.03695756551921368
1733851592043848000,0.254847900390625,-0.3518476907998323,0.08827887969464063,-0.1092354507446289
1733851592053817000,0.264817138671875,-0.32511721252352,0.06143734225928783,-0.1482534559249878
1733851592063785000,0.274784912109375,-0.15978519602566957,0.06271919876337051,-0.08213409332931042
1733851592073753900,0.28475390625,0.13107961828410625,0.11393617578148842,0.008452771046757698
1733851592083722800,0.29472265625,0.3386354502663016,0.1763704201236367,0.1254120940417051
1733851592093691000,0.30469091796875,0.31475714655071496,0.14829729506671427,0.24765257230997084
1733851592103659800,0.31465966796875,0.14442776015698908,0.08706278190314769,0.33487142155766486
1733851592113629000,0.32462890625,-0.056771688535809516,0.05196750312447548,0.3602040157347917
1733851592123597800,0.334597900390625,-0.23664982451945543,0.03812485573291778,0.31379122412800786
1733851592133566000,0.34456591796875,-0.33250995312333104,0.0023918635725975034,0.19035773668289183
1733851592143534800,0.354534912109375,-0.3219099409148097,0.0058253451526165,0.029309096592664716
1733851592153503700,0.364503662109375,-0.29814269635826346,0.061223991769552226,-0.08094459128379822
1733851592163471400,0.374471435546875,-0.32370676120370623,0.06318038653433322,-0.1513034911453724
1733851592173440500,0.3844404296875,-0.2553571553379297,0.009492050966620445,-0.12039397361874579
1733851592183409400,0.394409423828125,-0.13982815740704535,-0.060334349453449246,-0.043994040027260775
1733851592193377500,0.40437744140625,-0.14572715231776237,-0.14963701923787592,0.04183013999164104
1733851592203346400,0.414346435546875,-0.23457068015784024,-0.27313188148140904,0.10053250432908535
1733851592213315600,0.424315673828125,-0.32346856853365896,-0.3305295929610729,0.1544178237736225
1733851592223283500,0.434283447265625,-0.38029695569276806,-0.3202344089180231,0.20033552533984184
1733851592233252600,0.444252685546875,-0.5055424609959125,-0.23190496807992456,0.262076234459877
1733851592243221500,0.454221435546875,-0.6206520644709468,-0.13029928156137466,0.26674481079280377
1733851592253189600,0.464189697265625,-0.6337339566230774,-0.0553127218991518,0.2584206345617771
1733851592263158500,0.474158447265625,-0.4921849667727947,0.0003179799079895019,0.2164496247947216
1733851592273127700,0.484127685546875,-0.3925809754654765,-0.02883972551524639,0.12589432460069655
1733851592283095600,0.494095458984375,-0.3229065507367253,-0.12397884636819362,0.08216098133623599
1733851592293064700,0.504064697265625,-0.23009616509228945,-0.21672435008287427,0.06495850212275982
1733851592303033600,0.51403369140625,-0.19187077159434557,-0.22935236098766326,0.11683306626677513
1733851592313001700,0.524001708984375,-0.1878150664627552,-0.23604572114646433,0.18096154730618
1733851592322970600,0.533970703125,-0.17609598709642887,-0.20328794540464876,0.24945114616453645
1733851592332939500,0.543939453125,-0.15870178470313548,-0.09524316574931144,0.2856026559978723
1733851592342907600,0.55390771484375,-0.2021390676304698,0.056716158956289286,0.31850539316833015
1733851592352876500,0.56387646484375,-0.24853973040804264,0.16664719074964524,0.2573006906211376
1733851592362845700,0.573845703125,-0.3079910134166479,0.27609482294023036,0.1562958926051855
1733851592372813600,0.5838134765625,-0.448475150514394,0.3699830669492483,0.04427461053431034
1733851592382782500,0.593782470703125,-0.6370908658355474,0.34999884806275366,-0.01151391218304634
1733851592392751400,0.60375146484375,-0.7355220139712095,0.31577041524648664,-0.00036766426861286163
1733851592402719500,0.613719482421875,-0.7538483826480805,0.3208931650876999,0.10826455988585948
1733851592412688400,0.6236884765625,-0.7300128951609134,0.3161246355116367,0.2046680015861988
1733851592422657500,0.633657470703125,-0.5746313409216701,0.2994675152212381,0.30461656854748725
1733851592432625400,0.64362548828125,-0.28643033899366854,0.28148937546014785,0.41624797451794143
1733851592442594600,0.653594482421875,-0.027766981717199084,0.22579028459191322,0.4699503386110067
1733851592452563500,0.6635634765625,0.18517595013082028,0.07240706456303596,0.3935837227672338
1733851592462531600,0.673531494140625,0.3224241740472615,-0.000058452188968658445,0.2949614359736442
1733851592472500500,0.68350048828125,0.2992329758130014,0.07277940500676632,0.22390695506334304
1733851592482469600,0.6934697265625,0.11447327833287417,0.1924772130548954,0.09925473947823046
1733851592492437500,0.7034375,-0.08351699905507266,0.22713468493819236,-0.052910336932539936
1733851592502406700,0.71340673828125,-0.2254289769988507,0.24179624749720094,-0.1109779104977846
1733851592512375600,0.72337548828125,-0.40672019465081394,0.2719260128229856,-0.08941314442157745
1733851592522343700,0.73334375,-0.4646306048929691,0.3077642189234495,0.04440963509082794
1733851592532312600,0.7433125,-0.4454015882879495,0.3348760977327823,0.2546475457638502
1733851592542281700,0.75328173828125,-0.4532242812702432,0.3158510792672634,0.40046997514963145
1733851592552249600,0.76324951171875,-0.4370978703230619,0.2123708310484886,0.45291561717987056
1733851592562218800,0.77321875,-0.3549105489691719,0.054016836869716645,0.388102076485753
1733851592572187600,0.783187744140625,-0.32328561318218707,-0.06732230864465236,0.27616438104510305
1733851592582156500,0.793156494140625,-0.28738018706440926,-0.13834113371968268,0.1561561918735504
1733851592592124400,0.80312451171875,-0.10317162066102027,-0.2411456746339798,0.10441489872038363
1733851592602093600,0.813093505859375,0.1580348452270031,-0.328097397378087,0.05233633643686771
1733851592612062500,0.8230625,0.2700105711231008,-0.19621815314888952,0.043351065948605536
1733851592622030600,0.833030517578125,0.3746294679829851,0.010649404308199882,0.02875380079746246
1733851592631999500,0.84299951171875,0.42709845435619354,0.08822831855118274,-0.039677930393815036
1733851592641968400,0.852968505859375,0.2663889100272208,0.00073415949344635,-0.21136486887633799
1733851592651936500,0.8629365234375,0.09141447430662811,-0.09819733937978745,-0.4259545450180769
1733851592661905400,0.872905517578125,0.04347893011197448,-0.16055764170289039,-0.5494435620427132
1733851592671874600,0.88287451171875,0.09473105150870978,-0.1059106902360916,-0.42719314690232274
1733851592681842700,0.8928427734375,0.08328399401679634,0.04143967936933041,-0.15163140792548654
1733851592691811600,0.9028115234375,-0.02037175689935684,0.20545301448404787,0.07459902164936065
1733851592701780500,0.912780517578125,-0.14090484672784803,0.37956221167743204,0.09764029001891612
1733851592711748600,0.92274853515625,-0.1710264287471771,0.5013011701643466,-0.00006195932030677795
1733851592721717500,0.932717529296875,-0.03462006248235702,0.5403133301258087,-0.22773265083134173
1733851592731686700,0.942686767578125,0.09437909626588224,0.6013695641130209,-0.3919476459980011
1733851592741654500,0.952654541015625,0.13032134726271033,0.5765718074649572,-0.40345922009348867
1733851592751623700,0.962623779296875,0.2363033491693437,0.30983342641294,-0.34803017833828925
1733851592761592600,0.972592529296875,0.3414554761230945,0.00421498734652996,-0.23785306282937527
1733851592771560700,0.982560791015625,0.380891998976469,-0.2525993810623884,-0.2554875037193298
1733851592781529600,0.992529541015625,0.35922260348200796,-0.4328197546124458,-0.2693967866063118
1733851592791498800,1.002498779296875,0.32353169689774514,-0.45276539505422114,-0.17971417759358882
1733851592801466400,1.01246630859375,0.287101808514446,-0.3612853812307119,-0.05113982012867927
1733851592811435500,1.022435546875,0.3544983514390886,-0.3430424530535936,0.029506664991378783
1733851592821404400,1.032404296875,0.502740263056755,-0.3285223447918892,0.09389642731547355
1733851592831372500,1.04237255859375,0.5517790192529559,-0.33911914213001726,0.09561433714926243
1733851592841341400,1.052341552734375,0.5414540245935321,-0.39300329253077504,-0.00964344213604927
1733851592851310600,1.062310546875,0.5069194484375417,-0.34067046322524547,0.04423135591447353
1733851592861278500,1.072278564453125,0.47068975880146025,-0.17964812662005422,0.20877368333935736
1733851592871247600,1.08224755859375,0.4242493485353887,0.018484920239448546,0.3371235843986273
1733851592881216500,1.092216552734375,0.3956958926156163,0.13683072915673256,0.3705594055324793
1733851592891184600,1.1021845703125,0.45335020920485253,0.2127156989634037,0.3812415430665016
1733851592901153500,1.112153564453125,0.5383437836185098,0.2600333304554224,0.3760737850397825
1733851592911122700,1.122122802734375,0.6777125068202614,0.20334815115928648,0.37189620709419247
1733851592921090600,1.132090576171875,0.9072776337757706,0.09677928927540778,0.26186580657958985
1733851592931059700,1.142059814453125,1.1539832806244492,0.06563304038345813,0.014717092138528823
1733851592941028600,1.152028564453125,1.2804209183216093,0.13610884462296963,-0.22896891462802885
1733851592950996700,1.161996826171875,1.2354513112604617,0.21636077746748922,-0.30303485231399535
1733851592960965600,1.171965576171875,1.086837789851427,0.3303641732662916,-0.11815583930313586
1733851592970934500,1.1819345703125,0.8677285904586315,0.49606969925165173,0.2040221048980951
1733851592980902700,1.191902587890625,0.6259117385648191,0.5113894334584475,0.4196867167949676
1733851592990871600,1.20187158203125,0.4676549211502075,0.4747217907965183,0.4999965173065662
1733851593000840700,1.2118408203125,0.4525894539654255,0.4562222575098276,0.5257651648133993
1733851593010808600,1.22180859375,0.550164715924114,0.4050771766841411,0.5031640414267778
1733851593020777500,1.231777587890625,0.7172554126575589,0.3009381722956896,0.3507558039098978
1733851593030746400,1.241746337890625,0.9108264122985303,0.20967910774648188,0.1779454143553972
1733851593040714500,1.251714599609375,1.0467524477005004,0.10910860949456691,0.11895312716066836
1733851593050683400,1.261683349609375,1.0430569541834294,0.05610650262534618,0.20505729316473006
1733851593060652500,1.271652587890625,0.9862554550312459,0.04732406123280525,0.34922377203702926
1733851593070620400,1.281620361328125,0.877342660369724,0.039351767179369924,0.4788035071521997
1733851593080589600,1.291589599609375,0.7509004926279187,0.004589081355929375,0.5339648378819227
1733851593090558500,1.301558349609375,0.6977903953395783,0.028283845198154446,0.5533130969524384
1733851593100526600,1.311526611328125,0.8335865207515657,-0.03183189306855202,0.45879766095578667
1733851593110495500,1.32149560546875,1.113878649251163,-0.18118249658048152,0.2755623234987259
1733851593120464600,1.331464599609375,1.3717816896796227,-0.27911446302235127,0.0888268689662218
1733851593130432500,1.3414326171875,1.310842798461765,-0.22434593100249767,-0.25289690270423887
1733851593140401700,1.351401611328125,0.9964693905316293,0.02442424716055393,-0.6826853267967701
1733851593150370600,1.36137060546875,0.6810860749065876,0.32839199641048905,-0.9119704677671193
1733851593160339000,1.3713388671875,0.4271219813622534,0.5688584566086531,-0.7685457471728324
1733851593170307800,1.381307861328125,0.36473932107686996,0.6398129842758178,-0.4160603429913521
1733851593180277000,1.391277099609375,0.4442658622562885,0.5399859978675842,-0.05052256501317024
1733851593190244900,1.401244873046875,0.6063293784774839,0.33076632432639597,0.19969722743630408
1733851593200214000,1.411214111328125,0.8600958305578679,0.059411389389634126,0.32993571872115135
1733851593210183000,1.421182861328125,1.1884183419287204,-0.16264438484907148,0.36812370281815526
1733851593220151000,1.431151123046875,1.3064521622873841,-0.2969324437856674,0.3204553581923246
1733851593230120000,1.441119873046875,1.1569091780085117,-0.3169061412781477,0.1573018547773361
1733851593240088800,1.4510888671875,0.9210218622941523,-0.20854688884615896,-0.057065118524432176
1733851593250057000,1.461056884765625,0.6744658530492336,0.016498130336403845,-0.22041151416301727
1733851593260025900,1.47102587890625,0.46396070627477015,0.30258477045893667,-0.32749592435359953
1733851593269995000,1.4809951171875,0.2857482019484043,0.5665507641881704,-0.3487041320770979
1733851593279963100,1.490963134765625,0.14812135397791862,0.6213958685755729,-0.3518868537664413
1733851593289932000,1.50093212890625,0.006819032365083694,0.4159843551456928,-0.29001638078689573
1733851593299901000,1.51090087890625,-0.010799032778805121,0.10722644900977611,-0.14150281262099743
1733851593309869000,1.520869140625,0.16541447061691433,-0.22749825755357742,-0.018650924456119537
1733851593319838000,1.530837890625,0.39485092969145624,-0.44737201157808304,0.11092062735259532
1733851593329807000,1.54080712890625,0.5671184080082923,-0.45615328392684457,0.24792671307623385
1733851593339774700,1.550774658203125,0.617266148359701,-0.31008418630361556,0.35300387509763237
1733851593349743900,1.560743896484375,0.4785364537138492,-0.12115619016289711,0.3558908287107944
1733851593359712800,1.570712646484375,0.18715806385874748,0.006678747111558914,0.2354454171657562
1733851593369682000,1.580681884765625,-0.28569793306589125,0.06722235540151596,0.02917348751425743
1733851593379649800,1.59064990234375,-0.7968857064723968,-0.00215630125105381,-0.1509802505403757
1733851593389619000,1.600618896484375,-1.0451561184197664,-0.144845693308115,-0.16159750614464283
1733851593399586800,1.6105869140625,-0.8490303197294473,-0.22217735479176043,-0.08373743687272071
1733851593409556000,1.620555908203125,-0.3758287242375314,-0.18374679411053657,-0.045180034941434855
1733851593419524900,1.63052490234375,0.04186813391447067,0.015305705681443214,-0.035682723277807235
1733851593429494000,1.640493896484375,0.3065747168779373,0.4039215769082308,0.014104513198137282
1733851593439462000,1.6504619140625,0.1864960928186774,0.7714484828770161,0.07258534373939036
1733851593449431000,1.66043115234375,-0.1900692751303315,0.9340420143216848,0.11741291198134422
1733851593459400000,1.67039990234375,-0.6282169467672706,0.7685884172707795,0.11958557984530925
1733851593469368000,1.6803681640625,-1.0174617635473608,0.45343116548657414,0.06278875686824321
1733851593479337000,1.6903369140625,-1.2460112837195396,0.08963555500060319,-0.01910217535495758
1733851593489305900,1.700305908203125,-1.1360396276548503,-0.2488978961959481,-0.11288286733627319
1733851593499274000,1.71027392578125,-0.7839350394845008,-0.3597583177939057,-0.24062486563026902
1733851593509243100,1.7202431640625,-0.8323498185634612,-0.26471009009480473,-0.21487024664878843
1733851593519212000,1.7302119140625,-1.0308756641328334,0.05322159483879804,0.10011515569984912
1733851593529180200,1.74018017578125,-0.6328419762194156,0.5345411764651536,0.5118307474851608
1733851593539149000,1.750149169921875,0.0403656203970313,0.9287406930431723,0.9026187020540237
1733851593549118000,1.760117919921875,0.38899785628169775,0.9633142860352992,1.192066927564144
1733851593559085800,1.7700859375,0.25191899758279324,0.5676446969047189,1.3282336398541927
1733851593569054700,1.7800546875,-0.40435821475982664,-0.08751549410670995,1.2374860319584606
1733851593579024000,1.79002392578125,-1.1663567322462796,-0.7628595182299613,0.7593605701982975
1733851593588992000,1.799991943359375,-1.0719178686171769,-1.1057070332333445,0.06503858162164687
1733851593598961000,1.8099609375,-0.3920893925562501,-1.0824316638469695,-0.530062569746375
1733851593608929800,1.8199296875,-0.3822358148008585,-0.7800354016974568,-0.7601695484936237
1733851593618898000,1.82989794921875,-0.31559184380918737,-0.3092129564270377,-0.6852250744074583
1733851593628866800,1.83986669921875,-0.2926443912029266,0.05864245084375143,-0.40435938380360603
1733851593638836000,1.8498359375,-0.2213414884895086,0.14723931044638155,0.04325345079302788
1733851593648803800,1.859803955078125,0.23313977057188748,-0.1095060843795538,0.3933867388904094
1733851593658773000,1.86977294921875,0.295189399510622,-0.5573647104308009,0.576146860051155
1733851593668742000,1.879741943359375,0.05975538052171468,-0.9793298935517668,0.5527040251433849
1733851593678710000,1.8897099609375,0.25015870991200206,-1.1936956978097557,0.4590928445100784
1733851593688679000,1.899678955078125,0.6770894064858556,-0.9385048389494418,0.48258828638792034
1733851593698648000,1.90964794921875,0.6000491291642188,-0.4022539359569549,0.6110977619230746
1733851593708616000,1.919615966796875,0.23774375723600386,0.1554047889843583,0.7538286550343036
1733851593718585000,1.929585205078125,0.05408844080120325,0.6024380701273679,0.8547884448647498
1733851593728554000,1.939553955078125,0.053102644634246826,0.8232873911857604,0.840332634010911
1733851593738522000,1.949522216796875,-0.21479513558596372,0.714148094291985,0.588638677355647
1733851593748491000,1.959490966796875,-0.5610235251992941,0.38557518835663795,0.09018295975029468
1733851593758460200,1.969460205078125,-0.45136604965031146,-0.04422872556596994,-0.4815197803735733
1733851593768427800,1.979427734375,-0.3321063407585025,-0.25677637448608875,-0.9488760108381509
1733851593778397000,1.98939697265625,-0.5398331453934312,-0.12159341253638267,-1.1720657575428486
1733851593788365800,1.99936572265625,-0.6772860981017351,0.13677812218666077,-1.0336509740650652
1733851593798334000,2.009333984375,-0.744791946619749,0.32391865038871764,-0.6485375580012798
1733851593808302800,2.019302734375,-0.7644798129081726,0.4437488526448607,-0.13410744167268276
1733851593818272000,2.02927197265625,-0.7536024450629949,0.5002914085999131,0.25115268938541413
1733851593828240000,2.039239990234375,-0.4877525372833013,0.42235272113382816,0.40291853734552857
1733851593838209000,2.049208984375,-0.11388356881141662,0.13384762169271708,0.42829497066438194
1733851593848178000,2.059177978515625,0.4725140516191721,-0.25756314094960686,0.3569131574958563
1733851593858146000,2.06914599609375,0.9782190097004174,-0.602074205251038,0.35962007836699483
1733851593868115000,2.079114990234375,0.9802581143125891,-0.7815262247771024,0.5067325475633144
1733851593878083800,2.089083740234375,0.8781582145363092,-0.6877092924386262,0.7307739426612854
1733851593888052000,2.099052001953125,0.6809598181784152,-0.4093699054419994,1.0310855074912308
1733851593898020900,2.109020751953125,0.4391445737197995,-0.17099954074025153,1.1827011333256958
1733851593907990000,2.118989990234375,0.27884382938742636,-0.07065349889397621,1.0842273150920867
1733851593917958100,2.128958251953125,-0.028042437657713887,-0.053228316840529435,0.8003875771135092
1733851593927927000,2.138927001953125,-0.2060363673299551,-0.1395753516897559,0.4592921664744615
1733851593937896000,2.14889599609375,-0.12902385479807854,-0.24305618443042037,0.20729250487089157
1733851593947864000,2.158864013671875,0.0792284350156784,-0.27668022161275146,0.10668576626181601
1733851593957833000,2.1688330078125,0.3482499585688114,-0.23177520422041414,0.13451076177656648
1733851593967802000,2.178802001953125,0.47821723169684405,-0.11412614539563655,0.20382044484615325
1733851593977769700,2.188769775390625,0.3690080844372511,0.00996931308954954,0.26561726806759833
1733851593987739000,2.19873876953125,0.16938216867148875,0.11389730507582425,0.27248130861818787
1733851593997707800,2.208707763671875,-0.05029372469335794,0.21629355745017528,0.21978490669727324
1733851594007676000,2.218676025390625,-0.2320996138691902,0.2894710218638182,0.09808744926452637
1733851594017644800,2.228644775390625,-0.35419396166503425,0.3151718648314476,-0.11091010595858096
1733851594027614000,2.238614013671875,-0.5050482477381825,0.22942250361442565,-0.30287878496944903
1733851594037581800,2.248581787109375,-0.6210089150846004,0.0781523302167654,-0.4702770863473415
1733851594047551000,2.258551025390625,-0.6325605289295315,-0.04349485833346844,-0.5007201554059982
1733851594057519900,2.268519775390625,-0.5581529381990432,-0.11583528740108012,-0.42340193792581554
1733851594067488000,2.278488037109375,-0.5423334377765655,-0.09572188917696475,-0.2268319025993347
1733851594077457000,2.288456787109375,-0.5544049838423729,-0.01577916841208935,0.02781272055506706
1733851594087426000,2.298426025390625,-0.46410248936563725,0.006153846454620361,0.22319325383603572
1733851594097394000,2.308393798828125,-0.3216378459751606,0.011427987465262412,0.3516068677812815
1733851594107363000,2.318363037109375,-0.224688460829854,-0.06879004310965538,0.3715554308325052
1733851594117332000,2.32833203125,-0.17254677018225192,-0.1778548134624958,0.3197486712276935
1733851594127300000,2.338300048828125,-0.1048763787522912,-0.27555004853904247,0.28367373376190663
1733851594137269000,2.34826904296875,-0.038862814618647094,-0.33623920277953145,0.288909880849719
1733851594147238100,2.358238037109375,-0.0675689768821001,-0.35315760435461996,0.3033101621240377
1733851594157205200,2.368205322265625,-0.18191314894258975,-0.3558066575586796,0.29176410123705865
1733851594167174400,2.37817431640625,-0.430693263977766,-0.299551686373353,0.27407822242081165
1733851594177143300,2.388143310546875,-0.5727272608660161,-0.19340543381571768,0.23526363085806368
1733851594187111400,2.398111328125,-0.6650485478192567,-0.08739595938026905,0.16628946335315703
1733851594197080300,2.408080322265625,-0.7816764469027518,-0.024464579170942306,0.041458968591690064
1733851594207049500,2.418049560546875,-0.8294672488644719,0.006956395009160041,-0.06685995182991028
1733851594217017300,2.428017333984375,-0.6295169234499335,-0.0348258141875267,-0.12410919474959373
1733851594226986500,2.437986572265625,-0.354325917481631,-0.10944178697168827,-0.05006897602677345
1733851594236955400,2.447955322265625,-0.1468872821383178,-0.1588753877043724,0.21235738704502582
1733851594246923500,2.457923583984375,-0.013643325427174568,-0.15486907467246055,0.5045528654366731
1733851594256892400,2.467892333984375,0.016378303349018096,-0.10395780260264872,0.7204653146147727
1733851594266861300,2.477861328125,-0.11327040534913539,0.026398177582025527,0.8217828318417072
1733851594276829200,2.4878291015625,-0.3573037642486393,0.2360994971603155,0.7441805367231369
1733851594286798300,2.49779833984375,-0.6898720234304666,0.4346282653391361,0.5111544556587935
1733851594296767500,2.507767578125,-1.0496366248346864,0.5936293252497911,0.10211538960635662
1733851594306735400,2.5177353515625,-1.2572703443586826,0.6694196025103331,-0.35463118403851984
1733851594316704300,2.527704345703125,-1.0905255384534598,0.6127209792107343,-0.6620639790505171
1733851594326673200,2.537673095703125,-0.68791920886226,0.5222112717241049,-0.660803165334463
1733851594336641300,2.547641357421875,-0.24618074619174002,0.46829263453185554,-0.4334475311219692
1733851594346610400,2.5576103515625,0.06466562012340873,0.445639488697052,-0.12717384301722048
1733851594356579300,2.567579345703125,0.2223883671939373,0.4359381788939237,0.11881459547281265
1733851594366547500,2.57754736328125,0.20086744025945663,0.4047609503418207,0.25850188310444355
1733851594376516400,2.587516357421875,0.0699894637609832,0.3057517100572586,0.27136428728699685
1733851594386485200,2.5974853515625,-0.11812018346786499,0.29182255342602725,0.24201485868394373
1733851594396453400,2.607453369140625,-0.3437176123687997,0.30770225960314274,0.19003741868734358
1733851594406422300,2.61742236328125,-0.46468094684071837,0.21565876667797565,0.08696458222568035
1733851594416391400,2.627391357421875,-0.32899807254485786,0.13767185615599153,0.009456395131349563
1733851594426359300,2.637359375,-0.05112001944966614,0.18046119656860826,0.01125379994213581
1733851594436328400,2.647328369140625,0.18974873793907462,0.36053894677758214,0.07236380994319916
1733851594446297300,2.65729736328125,0.30611542880311604,0.5403635990083218,0.22179741556346416
1733851594456265500,2.667265380859375,0.26191373737454415,0.6357610785365104,0.45657238612174983
1733851594466234400,2.677234375,0.1166810175102204,0.5955360356539487,0.620439006242156
1733851594476203500,2.68720361328125,-0.06299275500774383,0.4061445136547088,0.6015566111177205
1733851594486171100,2.697171142578125,-0.1198842705309391,0.1107078613847494,0.43447687416970726
1733851594496140300,2.707140380859375,-0.06130231770277023,-0.2102718129426241,0.20238135195374488
1733851594506109400,2.717109375,0.040783261287212366,-0.4016992246836424,0.026668811216950417
1733851594516077300,2.727077392578125,0.22457111806049943,-0.38665480028688903,-0.06457739385068416
1733851594526046200,2.737046142578125,0.3606675415933132,-0.2676449745029211,-0.08005670253336429
1733851594536014300,2.747014404296875,0.39099019914269445,-0.04246200815439224,-0.085467621666193
1733851594545983200,2.756983154296875,0.23773075162395835,0.21049977647960186,-0.11580080060958861
1733851594555952400,2.766952392578125,-0.016953472888469694,0.37884208070933817,-0.21345804176330566
1733851594565920300,2.776920166015625,-0.232944832521677,0.3968880250096321,-0.36810266003012654
1733851594575889400,2.786889404296875,-0.27714798525497314,0.31309681212306023,-0.45230128467381
1733851594585858300,2.7968583984375,-0.0735259855903685,0.21239012027084825,-0.39825872884094715
1733851594595826400,2.806826416015625,0.2581567229285836,0.10064064087867736,-0.2782885335922241
1733851594605795300,2.81679541015625,0.5527329589769244,-0.007905074036121368,-0.07902151426672935
1733851594615764500,2.826764404296875,0.6992164826199412,-0.08966098170280457,0.12390461208820343
1733851594625732400,2.836732421875,0.7133584052190184,-0.12033026073276996,0.31358839503228664
1733851594635701500,2.846701416015625,0.6648235068917274,-0.06560322976708412,0.4004980322003364
1733851594645670400,2.85667041015625,0.6372945717141032,-0.02336976967155933,0.3312263430535793
1733851594655638500,2.866638427734375,0.7145803482294082,-0.03143208009600639,0.19012158983945845
1733851594665607400,2.876607421875,0.8113952933400869,-0.07277531335353851,0.03659223933815956
1733851594675576600,2.88657666015625,0.8344245790109038,-0.1623649833858013,-0.11324760899543762
1733851594685544200,2.896544189453125,0.8020753840699791,-0.37296471310853957,-0.2951601734161377
1733851594695513300,2.906513427734375,0.8135328898906707,-0.584237227526307,-0.2910755344510078
1733851594705482200,2.916482177734375,0.8793491778865457,-0.6106354051083326,-0.16400632085204123
1733851594715450400,2.926450439453125,0.9048656041979789,-0.4590554351091385,-0.031975685453414913
1733851594725419300,2.936419189453125,0.8719415319785475,-0.1878372782945633,0.05918050324320793
1733851594735388200,2.94638818359375,0.7860553926393389,0.04290741383433342,0.1553290933996439
1733851594745356300,2.956356201171875,0.7012079486981034,0.21457214048504827,0.26401275548040865
1733851594755325400,2.966325439453125,0.629217648242414,0.2746060456871986,0.2535679338335991
1733851594765294300,2.97629443359375,0.6635758449181914,0.186224582400918,0.08257774544358253
1733851594775262500,2.986262451171875,0.8062509161889553,0.09840133751928806,-0.09423486548960208
1733851594785231400,2.9962314453125,0.9641586279049515,0.02982055324614048,-0.22050854479670523
1733851594795200300,3.0062001953125,1.1218424677371979,-0.07971767983734607,-0.2892722844213247
1733851594805168400,3.01616845703125,1.1550950412586332,-0.19825521193444728,-0.33452246198952196
1733851594815137300,3.02613720703125,1.1019169933006168,-0.22528642672300336,-0.2864472901284694
1733851594825106400,3.0361064453125,1.012936687338352,-0.2090244432300329,-0.1637292574763298
1733851594835074300,3.04607421875,0.9050582041606307,-0.07002046168744563,0.03975158015191555
1733851594845043500,3.05604345703125,0.7383589909628033,0.11042787539958954,0.2391495323807001
1733851594855012400,3.066012451171875,0.5675295460924505,0.12223404852747917,0.28640871168375015
1733851594864980500,3.07598046875,0.5831713518604635,0.025451836642622946,0.3038683805286884
1733851594874949400,3.085949462890625,0.7485583134159446,0.0007218845337629318,0.3507435289502144
1733851594884918500,3.09591845703125,0.912601459147036,-0.05800210711359977,0.3580389466553926
1733851594894886100,3.10588623046875,1.094892793752253,-0.0914671543419361,0.34614217263460156
1733851594904855300,3.115855224609375,1.2500959226846695,-0.12604688481390475,0.2600958742976188
1733851594914824200,3.12582421875,1.3510323316395283,-0.2325350826770067,0.07258651278316974
1733851594924792300,3.135792236328125,1.4107380278006194,-0.3656652037501335,-0.10682663603723049
1733851594934761200,3.14576123046875,1.4286742281161249,-0.3646937283694744,-0.2117792948961258
1733851594944730400,3.15573046875,1.2448036614954472,-0.1965630210638046,-0.19265666127502917
1733851594954698200,3.1656982421875,0.9117164930060505,0.018406009784340857,-0.11176584600508212
1733851594964667400,3.17566748046875,0.6618998745299876,0.15856266849339007,0.053068742364645004
1733851594974636300,3.18563623046875,0.5230478686787188,0.2552402509599924,0.30016484983563424
1733851594984604400,3.1956044921875,0.4735796350240707,0.3336842575997114,0.5678355433017015
1733851594994573300,3.2055732421875,0.4456396348275244,0.45696927648484703,0.7238514499217271
1733851595004542500,3.21554248046875,0.35919235447421666,0.5610954213917255,0.6864847190797329
1733851595014510300,3.22551025390625,0.2779274451948702,0.5544172588020563,0.38115678739249703
1733851595024479500,3.2354794921875,0.24854703693166375,0.5077519537389278,-0.10065291583836078
1733851595034448400,3.245448486328125,0.24676168788485228,0.5185638551324606,-0.6604185499310493
1733851595044416500,3.25541650390625,0.22803952482342718,0.47852819734215735,-1.1673311302363871
1733851595054385400,3.265385498046875,0.14982465076446533,0.39265842461586,-1.4557336460858583
1733851595064354300,3.275354248046875,0.09842881004810333,0.2532406015753746,-1.4265128122985362
1733851595074322400,3.285322509765625,0.10816458837641403,0.034787820264697074,-1.0493062238365412
1733851595084291600,3.29529150390625,0.18838380626142023,-0.27062194448709487,-0.5145236398309468
1733851595094260500,3.305260498046875,0.4020166200697422,-0.6558937659829854,-0.06471475649476051
1733851595104228400,3.315228271484375,0.7272305709660053,-0.9120219056934118,0.28355507581830025
1733851595114197200,3.325197265625,0.9389742100268602,-0.9563841945111751,0.5314888031572104
1733851595124166100,3.335166259765625,0.9293472075689584,-0.8372486965209245,0.6639408788383007
1733851595134134300,3.34513427734375,0.7125790183443576,-0.6469511655926704,0.7041098076194524
1733851595144103200,3.355103271484375,0.4505502032227814,-0.49620004763305187,0.58656304012537
1733851595154073000,3.365072998046875,0.1368425657249987,-0.44276656360924244,0.27623101654052734
1733851595164041000,3.375041015625,-0.20717136270925401,-0.4459703280866146,-0.11748831530511379
1733851595174010000,3.385010009765625,-0.5366815494947135,-0.3514993157535791,-0.43627661706805226
1733851595183979000,3.39497900390625,-0.9891881474822759,-0.15320494085252284,-0.6786188080102205
1733851595193947100,3.404947021484375,-1.5075760615259408,0.12626198886930942,-0.7982739459604025
1733851595203916000,3.414916015625,-1.507159151288122,0.48236207641661166,-0.7197481062561273
1733851595213885200,3.42488525390625,-0.6475033926479518,0.798517107066512,-0.43491701915264125
1733851595223853000,3.43485302734375,0.13929624248743055,0.9854811096578836,-0.16052315491139887
1733851595233822200,3.444822265625,0.5128066067799926,1.1209177541077135,-0.03607961364090442
1733851595243791000,3.454791015625,0.46032910830676554,1.104227316069603,-0.03722586106657982
1733851595253759200,3.46475927734375,-0.05492430710345506,0.8989806378126144,-0.17050620426535606
1733851595263728000,3.47472802734375,-0.7761530073061585,0.5845715740472078,-0.24440789130032062
1733851595273697000,3.484697021484375,-1.1171095939964055,0.25457331148386,-0.2600970433413982
1733851595283665200,3.4946650390625,-0.8181123266354203,0.07944763072431087,-0.07889233492910862
1733851595293634300,3.50463427734375,-0.40009032818228,0.18287264162451028,0.27150340349674223
1733851595303603200,3.514603271484375,-0.15048399145603178,0.4987149530634284,0.6996808852612972
1733851595313571300,3.5245712890625,0.12850947553515432,0.9463137591347098,1.1831126367360352
1733851595323540200,3.534540283203125,0.6573492254883051,1.3508517143756151,1.577804613006115
1733851595333509000,3.544509033203125,0.9760022104337811,1.474160114136338,1.9480711730718612
1733851595343477000,3.55447705078125,0.6258706759020686,1.2015592707917093,2.204396296659112
1733851595353446000,3.56444580078125,0.46524844453036784,0.629297727741301,2.1757699216336013
1733851595363415000,3.5744150390625,0.25406185483038424,-0.04766220714598894,1.8380746748268604
1733851595373383200,3.584383056640625,-0.14905278960913418,-0.5461266925796866,1.2584037323027848
1733851595383352000,3.59435205078125,-0.4729273085951805,-0.6512558770492672,0.5654740748673677
1733851595393321000,3.604321044921875,-0.6443225706547498,-0.38743133761733767,-0.10105974307358265
1733851595403289000,3.6142890625,-0.6472288134902715,0.09778671275228261,-0.492879963299632
1733851595413258000,3.624258056640625,-0.6002005203336477,0.5786258173853158,-0.532653170761466
1733851595423227100,3.63422705078125,-0.6891913476899266,0.8289449785560369,-0.3539268351614475
1733851595433195000,3.644195068359375,-0.8321651096463203,0.6950564403310417,-0.1685825427263975
1733851595443164200,3.6541640625,-0.7301704238101839,0.2622153506696224,-0.0949573345452547
1733851595453133000,3.664133056640625,-0.4531880043804645,-0.2162330594345927,-0.19448036957085132
1733851595463101200,3.67410107421875,-0.3972714713692665,-0.5889908517941832,-0.3321446269422769
1733851595473070000,3.684070068359375,-0.20995558660030364,-0.9237015298321842,-0.33323826739788054
1733851595483039200,3.694039306640625,0.276280116379261,-1.0912503455966711,-0.2357774255990982
1733851595493007000,3.704007080078125,0.5237187536776066,-0.9483812130585312,-0.05343757567703723
1733851595502976300,3.713976318359375,0.5522638801604509,-0.5147662164151668,0.20785364588499067
1733851595512945200,3.723945068359375,0.7162386368304491,0.021948504696786404,0.4410989226579666
1733851595522913300,3.733913330078125,0.7871744597971438,0.45247459541410207,0.6705681880235672
1733851595532882200,3.743882080078125,0.6044660688236355,0.6447104009285569,0.9010527679115533
1733851595542850000,3.75385009765625,0.2751099035561085,0.6910694165214896,1.023756187516451
1733851595552819000,3.76381884765625,0.005446574968099594,0.4706368595704436,0.9535884263128042
1733851595562788000,3.7737880859375,-0.11542816790491342,0.018175708159804342,0.7056950309842824
1733851595572757000,3.783757080078125,-0.08568681737482547,-0.30015023678839203,0.38854514407813545
1733851595582725000,3.79372509765625,-0.02869593313038349,-0.42300504756271834,0.12119886026084423
1733851595592694000,3.803694091796875,-0.08461012805402278,-0.43416824661195275,-0.03423836968839168
1733851595602662100,3.813662109375,-0.14683832843005656,-0.3241898685455322,-0.11041969209313392
1733851595612631000,3.823631103515625,-0.1686675906613469,-0.19222791446894405,-0.14040449599027632
1733851595622600200,3.83360009765625,-0.29644144539833067,-0.04700637358576059,-0.15672142454087734
1733851595632568000,3.843568115234375,-0.3257970114812255,0.05058832372575998,-0.12335691507756709
1733851595642537200,3.853537109375,-0.2285842992246151,-0.00963818143904209,-0.037116555473208426
1733851595652506000,3.863506103515625,0.04089841209948063,-0.2019695562824607,0.12733283297121525
1733851595662474200,3.87347412109375,0.4052864355206489,-0.32513533270210027,0.35500293996036053
1733851595672443100,3.883443115234375,0.7686123826682567,-0.39829263111054897,0.5284872832536697
1733851595682412000,3.893412109375,0.9554045358240604,-0.45093613380044695,0.6116127257078886
1733851595692380200,3.903380126953125,1.017261857061088,-0.4658902495652437,0.5760813935995102
1733851595702349300,3.913349365234375,0.947426688812673,-0.39236119523495433,0.4767658638447523
1733851595712318200,3.923318115234375,0.6765174518167972,-0.25199556995034217,0.36509237229824065
1733851595722286300,3.933286376953125,0.3759299926549196,-0.07620148840993643,0.26555180161595343
1733851595732255200,3.943255126953125,0.20009411779940128,0.08793459630161524,0.1857493661046028
1733851595742224100,3.95322412109375,-0.09568360299319029,0.17907061899304388,0.15356208372712135
1733851595752192000,3.96319189453125,-0.5328890253439545,0.19348755914121865,0.17734394133090972
1733851595762161000,3.973160888671875,-0.89643387593925,0.14975450813770294,0.21764029588401315
1733851595772130000,3.983130126953125,-1.1019184546053409,0.13669190520793198,0.18648761725127697
1733851595782098200,3.99309814453125,-1.1957049918055533,0.087062197381258,0.07103343812227249
1733851595792067000,4.003067138671875,-1.1521546038925647,0.02217646823376417,-0.14611936650574206
1733851595802036000,4.013035888671875,-0.9179851980119943,-0.02373451133072376,-0.40028292814493177
1733851595812004000,4.023004150390625,-0.6863742444425821,-0.03765402335077524,-0.5743260743647813
1733851595821973000,4.032972900390625,-0.5023918880105018,-0.11697831995636224,-0.5240981083840132
1733851595831942100,4.042942138671875,-0.48427697012722487,-0.21216917099654672,-0.29941490825116635
1733851595841910000,4.052909912109375,-0.4914382400587201,-0.28943858089894053,0.012009586745500563
1733851595851879200,4.062879150390625,-0.43937516760528084,-0.3553510227456689,0.3244908973187208
1733851595861848000,4.07284814453125,-0.42138007670938965,-0.48910132154375313,0.5299830747693777
1733851595871816200,4.082816162109375,-0.3662590779900551,-0.580040944880247,0.5783019922584295
1733851595881785000,4.09278515625,-0.3690910865455866,-0.5651522955670952,0.5649246242910623
1733851595891754200,4.102754150390625,-0.5064215819180011,-0.473631365211308,0.4841285015672445
1733851595901722000,4.11272216796875,-0.4494780439466238,-0.397522231259942,0.41528351339995856
1733851595911691300,4.122691162109375,-0.23094109148383138,-0.33911505047678947,0.34928339326977725
1733851595921660200,4.13266015625,-0.09809007961302996,-0.2815571799993515,0.3159779205173254
1733851595931628000,4.1426279296875,-0.13144874385744332,-0.20741057829260826,0.3016021891623735
1733851595941597200,4.15259716796875,-0.3796650875300169,-0.15060323392152786,0.24059797762334345
1733851595951566300,4.16256640625,-0.7357549459442496,-0.09134265117943287,0.12324994757175445
1733851595961534000,4.172533935546875,-0.9960650475144386,-0.01052490114569664,-0.006199439162015915
1733851595971503000,4.182503173828125,-1.1339078763231634,0.05988426759839058,-0.14183365201056003
1733851595981472000,4.192471923828125,-1.1056333834752439,0.10848317107260226,-0.2722007381111383
1733851595991440100,4.202440185546875,-0.841891553890705,0.11363865413963795,-0.3116869453251362
1733851596001409000,4.212408935546875,-0.4319909025728702,0.07859305972158909,-0.21663024205863474
1733851596011378200,4.222378173828125,-0.04731353983879089,0.06070259824395179,-0.06491407845914364
1733851596021346000,4.232345947265625,0.15383330188393593,0.096765845271945,0.1448673206180334
1733851596031315200,4.242315185546875,0.1332072779625654,0.14978957945108412,0.3936147024273872
1733851596041284000,4.2522841796875,-0.06204349145889282,0.19752982026934623,0.5715004955500363
1733851596051252200,4.262252197265625,-0.2639408592879772,0.2472352236807346,0.6046598378300666
1733851596061221000,4.27222119140625,-0.4503716317854821,0.33142098884284493,0.5752209773778915
1733851596071190000,4.28218994140625,-0.5235227927140891,0.43687399843931196,0.5280547370553016
1733851596081158100,4.292158203125,-0.4571503321401775,0.6286240662634373,0.517363831692934
1733851596091127000,4.302126953125,-0.308570859131217,0.7851309712707996,0.4246148208469152
1733851596101096200,4.31209619140625,-0.12418620550855994,0.79607789722085,0.1450058523058891
1733851596111064300,4.322064208984375,0.05851780155077576,0.6959557272583246,-0.2731172684341669
1733851596121033200,4.332033203125,0.22347455499544738,0.5600859520882367,-0.7223749476283788
1733851596131001000,4.3420009765625,0.30760055279433723,0.38700609794259067,-1.0072790999680756
1733851596140970000,4.351969970703125,0.27327684291005133,0.15468611932098864,-0.9781383456796408
1733851596150939100,4.361939208984375,0.021581059623882175,-0.006570026040077209,-0.6212433083623647
1733851596160907500,4.371907470703125,-0.35567981630861756,-0.02751169178187847,-0.2426175007522106
1733851596170875600,4.381875732421875,-0.7437386381745338,0.08796703726649284,0.040676293781399725
1733851596180844500,4.391844482421875,-1.0002619146823883,0.2296416993230581,0.23713585447072982
1733851596190812700,4.401812744140625,-1.0740414366424083,0.32141514313519,0.4545183762013912
1733851596200781600,4.411781494140625,-0.95122754240036,0.36199557532668114,0.5994073241293429
1733851596210750500,4.42175048828125,-0.8340536998718977,0.3649894964456558,0.5744283656954765
1733851596220718600,4.431718505859375,-0.7206833412796259,0.2513286304742098,0.43813422763347626
1733851596230687700,4.441687744140625,-0.39876317123174665,0.01584755747318268,0.2796966468244791
1733851596240656600,4.45165673828125,-0.048905777466297144,-0.1248550446808338,0.27644378250837326
1733851596250624800,4.461624755859375,0.16429852699795736,-0.1376607502400875,0.3741203128844499
1733851596260593700,4.47159375,0.20766773139145225,-0.1645692154318094,0.3506377304881811
1733851596270562600,4.4815625,0.14245382973551748,-0.16428747588098047,0.30145313608050345
1733851596280530400,4.491530517578125,0.06794708947949112,-0.17990706981718538,0.23182255049347877
1733851596290499300,4.501499267578125,0.009630582654476165,-0.1183154137790203,0.0879208600372076
1733851596300468700,4.51146875,0.06617248102240264,-0.009445873737335204,-0.023630466434359548
1733851596310436600,4.5214365234375,0.2820001745264977,0.06477028607428073,-0.02326046407818794
1733851596320405500,4.531405517578125,0.4660907405734062,0.13992752612829207,0.05146364525556564
1733851596330374400,4.54137451171875,0.5168984061382711,0.3116021896511316,0.19349603470861912
1733851596340342500,4.551342529296875,0.46570027995109553,0.5180816245734692,0.2824199343085289
1733851596350311400,4.5613115234375,0.37349998902902004,0.695635993784666,0.19958032305836676
1733851596360280600,4.571280517578125,0.285839241232723,0.7894464963823556,0.11737491805851459
1733851596370248400,4.58124853515625,0.20690891238078474,0.896277224072814,-0.003970072674751282
1733851596380217600,4.591217529296875,0.2725892990373075,0.9906149654150008,-0.1852741498082876
1733851596390186500,4.6011865234375,0.4420575385570526,0.9092828361183405,-0.4094792110353708
1733851596400154600,4.611154541015625,0.6597054332256317,0.6426677891850471,-0.5356009146511554
1733851596410123500,4.62112353515625,0.748323481746763,0.245623112308979,-0.45689095055162904
1733851596420092700,4.6310927734375,0.831684632652998,-0.2065320418924093,-0.31984745542705056
1733851596430060500,4.641060546875,0.7548796253919601,-0.523076364120841,-0.1221323417186737
1733851596440029700,4.65102978515625,0.6789186677396297,-0.7126935115694999,0.053804070901870726
1733851596449998600,4.66099853515625,0.589577857901901,-0.7095967145979404,0.17958207564651965
1733851596459966700,4.670966796875,0.3561431960366666,-0.5280810405403376,0.23962299511134624
1733851596469935600,4.680935546875,0.13622984065413474,-0.315575769457221,0.1484714825898409
1733851596479904800,4.69090478515625,0.11545154878050089,-0.166875154286623,0.023719898283481596
1733851596489872400,4.700872314453125,0.3979762586377561,-0.1627875927120447,-0.0411216994613409
1733851596499841500,4.710841552734375,0.7344283735156059,-0.343933264413476,-0.26401392452418804
1733851596509810400,4.720810546875,0.8847847930692135,-0.5926596034348011,-0.5105319398462772
1733851596519778600,4.730778564453125,0.9406184701025485,-0.7871902418881654,-0.6570189706206321
1733851596529747500,4.74074755859375,0.9322270738542079,-0.9319003261178731,-0.6761304983258247
1733851596539715600,4.750715576171875,0.8716074777185916,-0.9526444234609603,-0.48197044675052164
1733851596549684500,4.7606845703125,0.6496981262132525,-0.7879460286915302,-0.1533767902880907
1733851596559653600,4.770653564453125,0.4901028998017311,-0.4698205747514963,0.23951310499608516
1733851596569621500,4.78062158203125,0.5379319879472255,-0.18148177178800104,0.4955915603458881
1733851596579590700,4.790590576171875,0.706027916200459,-0.02888590274453163,0.45413317627608774
1733851596589559600,4.8005595703125,0.8459297233656048,0.09577566519081591,0.17286241200268268
1733851596599527700,4.810527587890625,0.9670182551197707,0.07054945399761199,-0.1683738684117794
1733851596609496600,4.82049658203125,1.0349930363237858,-0.13505144452452658,-0.43638884527087207
1733851596619465500,4.830465576171875,1.0110919362545012,-0.32620646906495093,-0.5657482156336308
1733851596629433600,4.84043359375,0.9582982114389538,-0.46605800734758374,-0.5610509977281093
1733851596639402800,4.85040283203125,0.9635514557920396,-0.517833787292242,-0.4714841240495443
1733851596649371600,4.86037158203125,0.9973599096305668,-0.4345353263586759,-0.3904489318728447
1733851596659339800,4.87033984375,0.9507108250498771,-0.3347030792534351,-0.3184679837673902
1733851596669308700,4.88030859375,0.9076375531293451,-0.309257087829709,-0.2340349658459425
1733851596679277600,4.890277587890625,0.9593079730033874,-0.2813251248091459,-0.09059037150740623
1733851596689245400,4.900245361328125,0.9486122453354299,-0.1968073512136936,0.07946691994667053
1733851596699214300,4.91021435546875,0.8700957579813897,-0.16369360164105892,0.0964385130137205
1733851596709183500,4.92018359375,0.7931013656280934,-0.2081400616109371,0.10416121622025966
1733851596719151600,4.930151611328125,0.7664099041879177,-0.18431904104053973,0.17836919272541998
1733851596729120500,4.94012060546875,0.769475429238379,-0.10412497586309909,0.25984277631938457
1733851596739089400,4.95008935546875,0.7377179896455258,0.03842354641854763,0.2862041290223598
1733851596749057500,4.9600576171875,0.7260324472226202,0.1764040301322937,0.2203530619740486
1733851596759026400,4.9700263671875,0.6593360153913498,0.2566898652464151,0.060387540945410725
1733851596768995600,4.97999560546875,0.5611561386030167,0.2625911982446909,-0.0859644652724266
1733851596778963500,4.98996337890625,0.4645429266095161,0.28263386932015416,-0.11341712034344673
1733851596788932600,4.9999326171875,0.38750535270161923,0.3058008098959923,-0.07964169199168682
1733851596798901500,5.009901611328125,0.34880174723267554,0.2723416078865528,-0.0010568155765533446
1733851596808869600,5.01986962890625,0.3843207678487524,0.22200959700942038,0.052320554345846176
1733851596818838500,5.029838623046875,0.467894575124979,0.15140110630095005,0.08112228593826293
1733851596828807700,5.0398076171875,0.5961667347729206,0.10138356820046901,0.018341712376475333
1733851596838775600,5.049775634765625,0.653317193493247,0.13570727808475494,-0.03278291018307209
1733851596848744700,5.05974462890625,0.6745043584287166,0.19411679695546627,-0.09401859239041804
1733851596858713600,5.069713623046875,0.7165268061220645,0.2868178770065307,-0.1740858163177967
1733851596868681700,5.079681640625,0.7953495829463004,0.39335108305513855,-0.2794523166745901
1733851596878650600,5.089650634765625,0.8226029891181736,0.4386982912570238,-0.4546691828489303
1733851596888619800,5.099619873046875,0.6944681921143084,0.39693303319513795,-0.6893366013795137
1733851596898587400,5.10958740234375,0.4272508684389293,0.3140074972271919,-0.8542682203829288
1733851596908556500,5.119556640625,0.11272212381660937,0.1603992362707853,-0.8850625870972871
1733851596918524400,5.1295244140625,-0.10443184985518456,0.044237785655260084,-0.7644967640429735
1733851596928493600,5.13949365234375,-0.2709808409273624,-0.06645896981358528,-0.5853250227630138
1733851596938462500,5.14946240234375,-1.0631570545345543,-0.174251236012578,-0.30430794098973274
1733851596948430600,5.1594306640625,-2.893987165060639,-0.1470674610108137,0.005584522134065628
1733851596958399500,5.1693994140625,-1.7252508442014456,-0.0608767857670784,0.25706746638715267
1733851596968368600,5.17936865234375,0.5885792022533715,-0.06719897452592849,0.45273266182839866
1733851596978336500,5.18933642578125,0.9471898113168775,-0.07296177583634852,0.4305798667311668
1733851596988305700,5.1993056640625,1.0179577303707599,-0.1696370202153921,0.3133960873305797
1733851596998274600,5.209274658203125,0.8536628018356859,-0.319350611820817,0.12748597770631312
1733851597008242700,5.21924267578125,0.24894874960035085,-0.44580257030427456,-0.0565893177062273
1733851597018211600,5.229211669921875,-0.6555912759050726,-0.48779111572802064,-0.07366144853830336
1733851597028180500,5.239180419921875,-0.7456862651109695,-0.3539274196833372,0.07646832265257834
1733851597038148600,5.249148681640625,0.05876870757192373,-0.12715513831675052,0.25468963133990763
1733851597048117800,5.25911767578125,0.4180529781132936,0.18286708866655826,0.5187894805818796
1733851597058086700,5.269086669921875,0.219283679176867,0.5818921257048845,0.8749538655370473
1733851597068054800,5.2790546875,-0.0843003314524889,0.9007090690404176,1.1422948886573314
1733851597078023700,5.289023681640625,-0.24545973844081162,1.0861258421897888,1.3336276078522205
1733851597087992600,5.29899267578125,-0.44920507222414013,1.134153083255887,1.4252052368313073
1733851597097960400,5.30896044921875,-0.8330971297994255,1.0648410620987414,1.2909306218981742
1733851597107929300,5.318929443359375,-1.176623274716735,0.7223363691836595,0.8428805649280547
1733851597117898500,5.3288984375,-1.4198077617019413,0.08899930292367934,0.07147007597386837
1733851597127866600,5.33886669921875,-1.445530816501379,-0.4925152216404676,-0.7512006446182727
1733851597137835500,5.34883544921875,-1.1614572697669268,-0.7123188330382109,-1.4319091183841228
1733851597147804400,5.358804443359375,-0.8079051131367683,-0.5285626865774393,-1.7706985901683567
1733851597157772500,5.3687724609375,-0.7268114687711,-0.25949557031691073,-1.7025754865348337
1733851597167741400,5.378741455078125,-0.56677522059381,-0.07404957107305526,-1.3608902933090925
1733851597177710600,5.388710693359375,-0.2151183761909604,-0.012314122650027274,-0.7996744604080915
1733851597187678500,5.398678466796875,-0.38839053803831336,0.0034895956814289092,-0.06431260543465614
1733851597197647400,5.4086474609375,-0.6006394962728023,-0.053174540826678274,0.6448281820893287
1733851597207615500,5.418615478515625,-0.07742752307355404,-0.11591595142185687,1.0509639279156924
1733851597217584400,5.42858447265625,0.09911503874659537,-0.10643909802436828,1.2627742024719715
1733851597227553300,5.43855322265625,0.06930559141635895,-0.04810965865254402,1.2395698524951935
1733851597237521400,5.448521484375,0.14630436768382787,0.04736147063374519,1.052223572587967
1733851597247490300,5.458490234375,-0.12811258517205715,0.14331716856658458,0.9398673594743013
1733851597257459500,5.46845947265625,-0.38619711964726444,0.2941185554087162,0.854049609196186
1733851597267427300,5.47842724609375,-0.593547492185235,0.40971711144447326,0.7695067011594772
1733851597277396500,5.488396484375,-0.32916298078298567,0.45045770263373847,0.6023217502713203
1733851597287365400,5.498365478515625,0.009002221623063087,0.2777694781541824,0.3336357422828674
1733851597297333500,5.50833349609375,0.321795666885376,-0.12602467298209666,0.06265373231172561
1733851597307302400,5.518302490234375,0.6051870765745639,-0.5027773801967501,-0.13618132533729074
1733851597317271600,5.528271484375,0.8526999481528997,-0.6244909119814634,-0.04829962826669216
1733851597327239400,5.538239501953125,1.1220838752776383,-0.4503180019021034,0.40390696386098857
1733851597337208600,5.54820849609375,1.2922101403146982,-0.12355974417328834,1.0461503901541231
1733851597347177500,5.558177490234375,1.270227441087365,0.21417758820950983,1.6086989329636097
1733851597357145600,5.5681455078125,1.1911135723620652,0.45500528293550013,1.8661942693740128
1733851597367114500,5.578114501953125,1.1926309911876916,0.5651964269697666,1.7876129000902174
1733851597377083600,5.588083740234375,1.2614613663077354,0.5311544566363096,1.4382768998503683
1733851597387051300,5.59805126953125,1.1371756459474562,0.48678281546831126,1.0103741433739661
1733851597397020400,5.6080205078125,0.9207008867114782,0.4389619106292724,0.5459072046101093
1733851597406989300,5.6179892578125,0.7582166608601808,0.4276069884002208,0.11895838785767554
1733851597416957400,5.62795751953125,0.6939274363011121,0.5016407773822545,-0.23435762192904946
1733851597426926300,5.63792626953125,0.335555604429543,0.6299719737410545,-0.427405328348279
1733851597436895500,5.6478955078125,0.03444938209056854,0.7226110944718122,-0.49845162595212456
1733851597446863400,5.65786328125,-0.13346446759402752,0.789887810409069,-0.44869069296121594
1733851597456832500,5.66783251953125,-0.11147300053834915,0.8125456324189901,-0.32607436711788174
1733851597466800400,5.67780029296875,0.032166531850397584,0.753262837845087,-0.17093407428860663
1733851597476769500,5.68776953125,0.01915361328125,0.6942512614279985,-0.007115384963154793
1733851597486738400,5.697738525390625,-0.1122746723100543,0.6304407602965831,0.07858078476190566
1733851597496706600,5.70770654296875,-0.1868409607335925,0.5215273811131715,0.08689853125214576
1733851597506675500,5.717675537109375,-0.09079027799367904,0.38036476023197174,0.03453296872079372
1733851597516644400,5.727644287109375,-0.04821837972402572,0.2476198390841484,-0.07281681440770625
1733851597526612500,5.737612548828125,-0.044401159523427484,0.17927637069821356,-0.16566987015008924
1733851597536581600,5.74758154296875,-0.02474368837326765,0.1688835714995861,-0.19991525410115718
1733851597546550500,5.757550537109375,-0.11641425633281469,0.17769523898661135,-0.16688099950551985
1733851597556518700,5.7675185546875,-0.215645030413568,0.11873568501770496,-0.11554945619702338
1733851597566487600,5.777487548828125,-0.18968553650975226,-0.03578267652094364,-0.13211539107263087
1733851597576456400,5.78745654296875,-0.22803367960453033,-0.19390461550951002,-0.1886076781451702
1733851597586424300,5.79742431640625,-0.43411739320755005,-0.34414953751266003,-0.2544102298766374
1733851597596393500,5.8073935546875,-0.6021025545626878,-0.46481882094144816,-0.3057552171885967
1733851597606362400,5.8173623046875,-0.5759720880061387,-0.507061633387208,-0.26934534868001936
1733851597616330500,5.82733056640625,-0.5860515834718942,-0.48365445431470866,-0.07806582097709179
1733851597626299400,5.83729931640625,-0.8109545638352632,-0.44630818173885345,0.19169395372271536
1733851597636268300,5.847268310546875,-1.1178110202640295,-0.42557343674600123,0.4187766162127256
1733851597646236400,5.857236328125,-1.1961769932314752,-0.4261375003695488,0.5289391186743975
1733851597656205300,5.867205322265625,-1.0293336953878403,-0.4725128825753927,0.5934703352957964
1733851597666173400,5.87717333984375,-0.9112629040196537,-0.5989753624528646,0.6203934135347604
1733851597676142300,5.887142333984375,-0.8169163948491215,-0.7837158437758683,0.5674924289524554
1733851597686111500,5.897111572265625,-0.6180524033665656,-0.9406628937661647,0.5147030880510807
1733851597696079600,5.90707958984375,-0.4386901079505682,-1.0130524226725102,0.5041261644572019
1733851597706048500,5.917048583984375,-0.48058512987196444,-0.9993699342787266,0.5397200404077768
1733851597716017400,5.927017333984375,-0.8506140817895531,-0.8690005100905894,0.6007096388995647
1733851597725985500,5.936985595703125,-1.3677201393291354,-0.6909720936268567,0.6399333957850932
1733851597735954400,5.946954345703125,-1.3906079707026482,-0.524212090152502,0.5864654249697924
1733851597745923600,5.956923583984375,-0.9183014243543147,-0.4592892438650131,0.4762918165922165
1733851597755891200,5.96689111328125,-0.5287698995873332,-0.46492111227214333,0.3167161716639995
1733851597765860600,5.976860595703125,-0.3842329799674451,-0.4957774383068084,0.17014906139075756
1733851597775829500,5.98682958984375,-0.38371918522641063,-0.5024988555163145,0.053851417174935336
1733851597785797400,5.99679736328125,-0.39457565641403197,-0.4453700241059065,0.018217793735861777
1733851597795766300,6.006766357421875,-0.5318038604557513,-0.3538093462616205,0.04883972649276256
1733851597805735400,6.0167353515625,-0.8543583828844129,-0.20528993287682532,0.05652092864513397
1733851597815703300,6.026703369140625,-1.2813999924868344,-0.008682488149404526,0.03496142326593399
1733851597825672400,6.03667236328125,-1.4770686950594185,0.16159458353519437,-0.04251812225580215
1733851597835641300,6.046641357421875,-1.2070604254912585,0.1607359208792448,-0.15545301204025744
1733851597845609500,6.056609375,-0.6793763483792543,0.16791911038160323,-0.1746042872339487
1733851597855578400,6.066578369140625,-0.31785124010853466,0.296343830242753,-0.0680962156265974
1733851597865547500,6.076547607421875,-0.12781619604136793,0.4444003022909164,0.1511807415485382
1733851597875515400,6.086515380859375,0.024150727448798714,0.5088777428984642,0.3522141860246658
1733851597885484500,6.096484619140625,-0.024644022824498825,0.6125806939572096,0.5305202503859997
1733851597895453400,6.106453369140625,-0.23262100739479064,0.7055792956501246,0.5460258625537157
1733851597905421600,6.116421630859375,-0.428155306465365,0.6566705955743789,0.32608781112134455
1733851597915390500,6.126390380859375,-0.45214408481810237,0.448634578859806,-0.10250526570677757
1733851597925358600,6.136358642578125,-0.20257197915501893,0.24985914244353769,-0.4653887297838926
1733851597935327500,6.146327392578125,0.08777999026179313,0.19653496401309967,-0.6156622933596372
1733851597945296600,6.156296630859375,0.28995573664084073,0.254524796167016,-0.5599953511953354
1733851597955264300,6.16626416015625,0.4235609278798103,0.3850228151708841,-0.3308656930476427
1733851597965233400,6.1762333984375,0.41448666393384337,0.5526052409440279,-0.0004454056799411773
1733851597975202300,6.186202392578125,0.26211349773034454,0.7442746447473764,0.34798107849955556
1733851597985170400,6.19617041015625,0.044490152981132264,0.8052671658486127,0.57022565330863
1733851597995139300,6.206139404296875,-0.09827946470528841,0.5814303534120321,0.47898821606934067
1733851598005108500,6.2161083984375,0.007652852840721607,0.3287023775339126,0.3189204037100076
1733851598015076400,6.226076416015625,0.16114625524580478,0.16694062073826788,0.18305530471503734
1733851598025045500,6.23604541015625,0.17171616457700728,0.05791559787392616,0.08645195652842522
1733851598035014400,6.246014404296875,0.11033668998479843,0.07800912235379219,0.08735504284799099
1733851598044982500,6.255982421875,0.11975684475898742,0.2328010401368141,0.07820376814305782
1733851598054951400,6.265951416015625,0.0047518707022070885,0.3782312553346157,-0.011699790143966673
1733851598064920300,6.27592041015625,-0.17104776379615066,0.4566320073544979,-0.1422486625522375
1733851598074888400,6.285888427734375,-0.19040128356367347,0.4175689939886331,-0.185305129468441
1733851598084857300,6.295857421875,-0.06441080511212348,0.31221535311341286,-0.17269114708900452
1733851598094825500,6.305825439453125,0.08567220432758331,0.19450842662155626,-0.13619009316563604
1733851598104794600,6.315794677734375,0.3369906056687236,0.14469897831380366,-0.05230594129860401
1733851598114763500,6.325763427734375,0.5659796863019466,0.19700141248106956,0.09059680124819278
1733851598124731600,6.335731689453125,0.6819967600107193,0.3003384528368711,0.270830618801713
1733851598134700500,6.345700439453125,0.6615577830940484,0.3891746741533279,0.40887539992332456
1733851598144669400,6.35566943359375,0.5831064699307084,0.3508294536679983,0.4437503139495849
1733851598154637300,6.36563720703125,0.508999323451519,0.15832769069373606,0.42018239135742186
1733851598164606200,6.375606201171875,0.452414974181354,-0.0840174228578806,0.36909284011125565
1733851598174575400,6.385575439453125,0.43519729739874596,-0.3928513168394565,0.2748632353186607
1733851598184543500,6.39554345703125,0.5407561054572463,-0.645364773184061,0.19494097281992434
1733851598194512400,6.405512451171875,0.7291580318972468,-0.8393050445288419,0.2539461194962263
1733851598204481300,6.415481201171875,0.9012029900372028,-0.9165186325907707,0.3144622552573681
1733851598214449400,6.425449462890625,1.07975426133126,-0.7662357166647911,0.19653554853498933
1733851598224418300,6.435418212890625,1.091947680211067,-0.4926420628905296,0.27814824833869933
1733851598234387500,6.445387451171875,0.9370382735282182,-0.1701069758147001,0.5196159945338964
1733851598244355300,6.455355224609375,0.7031935695573687,0.18198036895990372,0.4894827220767736
1733851598254324200,6.46532421875,0.5777335447207093,0.3768675657659769,0.1866384238988161
1733851598264293400,6.47529345703125,0.68899845546633,0.3510094864100218,-0.17853928859531878
1733851598274261200,6.48526123046875,0.9464052368104457,0.22988076877593994,-0.34335926391780375
1733851598284230100,6.495230224609375,1.238650984084606,0.051371875318884846,-0.43012861583232875
1733851598294198300,6.5051982421875,1.4282418280482292,-0.11735153718292712,-0.35002690511345863
1733851598304167200,6.515167236328125,1.433061211028695,-0.22801439038217067,-0.1547135918498039
1733851598314136300,6.52513623046875,1.1530769794344902,-0.15363105731010437,0.07548457231223583
1733851598324104200,6.535104248046875,0.8498778764694929,0.032761282873153684,0.13733107989430426
1733851598334073300,6.5450732421875,0.7335159348458051,0.061710313981771465,0.10074585481882095
1733851598344042200,6.555042236328125,0.7550541051760316,-0.0648328299164772,0.08367138589918613
1733851598354010400,6.56501025390625,0.8398954116374254,-0.20878186664581297,0.1253477966338396
1733851598363979300,6.574979248046875,0.9534230066180228,-0.37573534686565396,0.14287117836475371
1733851598373948400,6.584948486328125,1.0517314051568507,-0.4824164369523525,0.07642331446707248
1733851598383916300,6.594916259765625,1.0116805497974157,-0.5769646061748266,0.021589315995573996
1733851598393885400,6.604885498046875,0.8612251999139785,-0.509282816568017,0.1580471201866865
1733851598403854300,6.614854248046875,0.6286214359149337,-0.3175251499593258,0.3323334275126457
1733851598413822500,6.624822509765625,0.35921442017555233,-0.09342880980372428,0.38283670330345626
1733851598423791400,6.634791259765625,0.18935820425152777,0.016812603113055227,0.3162269268423319
1733851598433760500,6.644760498046875,0.1282107848495245,0.06196867265701293,0.29021570275127884
1733851598443728100,6.65472802734375,0.17806641038656235,0.05719838951528072,0.3244780378371477
1733851598453697300,6.664697265625,0.310542159204185,-0.016770517536997796,0.31075463291108607
1733851598463665200,6.6746650390625,0.4753980826228857,-0.11551321583986282,0.29730010805428025
1733851598473634300,6.68463427734375,0.6664236355647445,-0.174926358795166,0.29965690031349657
1733851598483603200,6.694603271484375,0.7965890616133808,-0.09795768540501594,0.2869336123406887
1733851598493571300,6.7045712890625,0.8057119870066642,0.08416355333030223,0.19070085103213785
1733851598503540200,6.714540283203125,0.7010664944007993,0.2308142502337694,0.026231004321575165
1733851598513509400,6.72450927734375,0.5711752091184258,0.3401706970095634,-0.10407762959003448
1733851598523477200,6.734477294921875,0.4506117241516709,0.41067105116844177,-0.3034703211218118
1733851598533446400,6.7444462890625,0.4039651237890124,0.3954237976759672,-0.5237742832571268
1733851598543415300,6.754415283203125,0.44769116052985186,0.29439094260931015,-0.6832651725113391
1733851598553383400,6.764383544921875,0.5183610260367393,0.23710370576679704,-0.7389467277228832
1733851598563352300,6.774352294921875,0.6612035628288984,0.24765140326619148,-0.605668138089776
1733851598573321200,6.7843212890625,0.7737757567808031,0.2794470559775829,-0.2958183450639248
1733851598583289300,6.794289306640625,0.7938231040313839,0.2821048770099878,0.04068681517541408
1733851598593258500,6.804258544921875,0.7178551321163773,0.2453542322397232,0.3306500044703483
1733851598603227400,6.814227294921875,0.5890761919900774,0.17077216172516346,0.4990858322024345
1733851598613195500,6.824195556640625,0.502104303240776,0.041699791610240934,0.553401359757781
1733851598623164400,6.834164306640625,0.43000235910415646,-0.08859072212278843,0.49688335372209547
1733851598633133300,6.84413330078125,0.33841479325294493,-0.1649140833467245,0.4311702338397503
1733851598643101200,6.85410107421875,0.2994423807799816,-0.16924129889607428,0.39808337227404117
1733851598653070300,6.8640703125,0.33425416644215583,-0.08978665390908717,0.4139975652426481
1733851598663038200,6.8740380859375,0.31558336824178695,0.016595160970091817,0.42716099819839
1733851598673007400,6.88400732421875,0.2466998016297817,0.1646218224018812,0.3738642922967672
1733851598682976300,6.893976318359375,0.13962240570187567,0.16879706225991248,0.15278642317950725
1733851598692944400,6.9039443359375,0.03656425535269081,0.04243512014746666,-0.15545125847458838
1733851598702913300,6.913913330078125,-0.005683817790076136,-0.09171674518883227,-0.3964432038515806
1733851598712882200,6.923882080078125,-0.02694996624588966,-0.15560615677535533,-0.5700070421218871
1733851598722850300,6.933850341796875,-0.05052022692561149,-0.18532032703757284,-0.6658101798415184
1733851598732819200,6.943819091796875,0.06084987949384376,-0.24744740512669086,-0.6661719988912344
1733851598742788400,6.953788330078125,0.14272212528288364,-0.25121172609627246,-0.5188350732892751
1733851598752756500,6.963756591796875,0.1622714781497605,-0.20000293238461017,-0.3363303881943226
1733851598762725400,6.973725341796875,0.13334168146457523,-0.13119301553070545,-0.1619821215480566
1733851598772694300,6.9836943359375,0.11866970710940658,-0.09862988557815551,0.03588496785163879
1733851598782662400,6.993662353515625,0.10090257975049316,-0.08359773614108562,0.26913141366839405
1733851598792631300,7.00363134765625,0.011141571739315986,-0.0891577083557844,0.43308805015981194
1733851598802599400,7.013599365234375,-0.11969473930820822,-0.14082652079463004,0.5005155727446079
1733851598812568300,7.023568359375,-0.23685754898600278,-0.24528525865674017,0.4180886339485645
1733851598822537500,7.033537353515625,-0.2915291234374046,-0.37446459627747536,0.20403788698911665
1733851598832505300,7.04350537109375,-0.09667875151038169,-0.533248214045167,-0.08141162427365779
1733851598842474200,7.05347412109375,0.40218744659200306,-0.60692895180583,-0.25426468392610546
1733851598852443100,7.063443115234375,0.8434038581497967,-0.6014613340497017,-0.3024064912825823
1733851598862411300,7.073411376953125,1.0005239266194403,-0.5174006565719843,-0.2893517793983221
1733851598872380200,7.083380126953125,0.9112165806598961,-0.3528267649650573,-0.2058832225948572
1733851598882349300,7.093349365234375,0.45364510049819945,-0.15166940184831618,-0.10979074653983116
1733851598892317200,7.103317138671875,-0.334181101205945,0.05215981082618236,-0.026923662760853766
1733851598902286300,7.113286376953125,-1.008140100711584,0.2706558467566967,-0.04511982918679714
1733851598912255200,7.123255126953125,-1.0256307492166756,0.38262744446694846,-0.13933365188837052
1733851598922223400,7.133223388671875,-0.5032669172793627,0.35363165160715576,-0.2711561974942684
1733851598932192300,7.143192138671875,-0.20192600940167904,0.2939116346597671,-0.3458189320296049
1733851598942161400,7.153161376953125,-0.1873532941699028,0.24777356834113595,-0.3558756311416626
1733851598952129300,7.16312939453125,-0.2128454628229141,0.1812970628708601,-0.3701911567419767
1733851598962098400,7.173098388671875,-0.15604849371537566,0.0955892027080059,-0.3637397886455059
1733851598972066300,7.18306640625,0.019879589468240737,0.08831541231274605,-0.28933541278541086
1733851598982035500,7.193035400390625,0.20218904425203799,0.23321721972227094,-0.06367606109678745
1733851598992004400,7.20300439453125,0.23026100026518104,0.4982324302434921,0.2237859590321779
1733851599001972200,7.21297216796875,0.10698007303327321,0.7555465648680925,0.5365922637760638
1733851599011941400,7.22294140625,0.09534837968945503,0.8424293140292167,0.8404659050017594
1733851599021910500,7.23291064453125,0.332323490640521,0.7094739650011063,1.0787497604638336
1733851599031878100,7.242878173828125,0.27108839295506476,0.4896440501183271,1.1777519864857195
1733851599041847300,7.252847412109375,0.20805501367598772,0.35009120252132414,1.162269755193591
1733851599051816200,7.262816162109375,0.08498656015098094,0.3706768944323063,1.1354624122887849
1733851599061784300,7.272784423828125,-0.03953209218233823,0.4813052608400583,1.1257377216100692
1733851599071753200,7.282753173828125,-0.29573446617275473,0.6400462085098028,1.1476859340459107
1733851599081722400,7.292722412109375,-0.4430830822125077,0.7473112359642982,1.1309680234789847
1733851599091690200,7.302690185546875,-0.31070640985518694,0.6837772136867046,1.065666407006979
1733851599101659400,7.312659423828125,-0.27204525528848167,0.38348259999156,0.985952234300971
1733851599111627300,7.322627197265625,-0.35444705964326856,-0.053155836126208306,0.7274065120548009
1733851599121596400,7.332596435546875,-0.2471931381046772,-0.3239373550891876,0.4642091646105051
1733851599131565300,7.3425654296875,-0.24493688361048696,-0.3300701587557792,0.3443284012109041
1733851599141533400,7.352533447265625,-0.3839756442055106,-0.06391337698400021,0.3769131584733724
1733851599151502300,7.36250244140625,-0.4234428544580936,0.3236117763966322,0.437491253554821
1733851599161471200,7.37247119140625,-0.4636737425595522,0.641912586903572,0.5027461082756519
1733851599171439000,7.382439208984375,-0.6311386794328689,0.7741121491283178,0.5730407107293606
1733851599181408300,7.392408203125,-0.3939455418169498,0.8239315343081951,0.6600725129723548
1733851599191377200,7.402377197265625,-0.08852584019303321,0.7754314150333405,0.7545856108814477
1733851599201345300,7.41234521484375,0.12219254747331142,0.6374895097643136,0.8710334772229195
1733851599211314200,7.422314208984375,0.33152591052204367,0.44028526818752284,0.9182195912897586
1733851599221283000,7.432282958984375,0.3794453072994947,0.22236732440590856,0.9180296216756105
1733851599231251000,7.4422509765625,0.38717268668115135,0.0674029726654291,0.838055336728692
1733851599241220000,7.45222021484375,0.3826578396052122,-0.005316226586699485,0.6609662469416856
1733851599251188000,7.46218798828125,0.12942746716290712,-0.07562427304387093,0.3793026839584112
1733851599261157000,7.4721572265625,-0.17640549143701792,-0.13706921408772468,0.06231470961570739
1733851599271126000,7.4821259765625,-0.33959318938255306,-0.11188216586112976,-0.2339203995555639
1733851599281094100,7.49209423828125,-0.3487228367775678,-0.09839140064716338,-0.3936065191209316
1733851599291063000,7.50206298828125,-0.30404286031275984,-0.10805705461502074,-0.39944881540834903
1733851599301032200,7.5120322265625,-0.24672961224615572,-0.10593524015545844,-0.30958675817549225
1733851599311000000,7.522,-0.1292059333667159,-0.08713701618313789,-0.15265373671054838
1733851599320969200,7.53196923828125,-0.08903262067139148,-0.08632686884403228,0.02677928585410118
1733851599330938000,7.541938232421875,-0.168753223118186,-0.1177753155529499,0.19809096128344536
1733851599340906200,7.55190625,-0.32902444909512996,-0.14138707728683947,0.27040917851924895
1733851599350875100,7.561875244140625,-0.48911008937209843,-0.12080489250719546,0.2772463310629129
1733851599360844000,7.571843994140625,-0.5417851562440396,-0.0956242740213871,0.23437749567329882
1733851599370812200,7.581812255859375,-0.49991030032783745,-0.1190998421549797,0.11618833862245082
1733851599380781000,7.591781005859375,-0.40314737766534087,-0.1523182211458683,-0.0004839841246604919
1733851599390749200,7.601749267578125,-0.2836339862734079,-0.16246026045382023,-0.018152911806106568
1733851599400718300,7.61171826171875,-0.20260697740316388,-0.15970891591906547,0.03600830197036266
1733851599410687200,7.621687255859375,-0.20352321546524763,-0.20465572662651538,0.10044774865508078
1733851599420655000,7.631655029296875,-0.3521761921018362,-0.27574235624074933,0.16107435905337333
1733851599430624000,7.6416240234375,-0.5978706160813569,-0.3434153780192137,0.12447568997442722
1733851599440593000,7.651593017578125,-0.7757771597310901,-0.3992454017907381,-0.013154665127396582
1733851599450561000,7.66156103515625,-0.867216549283266,-0.410659360730648,-0.16360826144516466
1733851599460530000,7.671530029296875,-0.8907909016162157,-0.36485330284535883,-0.2997609452098608
1733851599470499000,7.6814990234375,-0.7935831577956676,-0.34617841299176216,-0.36161095992326736
1733851599480467200,7.69146728515625,-0.5728504488542676,-0.366833663007617,-0.2762280939310789
1733851599490436000,7.70143603515625,-0.45922933037132024,-0.32976971450448034,0.029488544812798497
1733851599500405000,7.711405029296875,-0.4527811771452427,-0.2501929044425487,0.4629752389013767
1733851599510373000,7.721373046875,-0.5293196424245834,-0.11821838314533233,0.8711533042103051
1733851599520342000,7.731342041015625,-0.7088717613242567,-0.03474339660108089,1.1369640490233897
1733851599530311200,7.741311279296875,-0.9380261155217885,-0.09592238018512725,1.1450491558015345
1733851599540279000,7.751279052734375,-1.2593773996405302,-0.22813713997900484,0.9292436741292476
1733851599550248200,7.761248291015625,-1.4450906715184448,-0.33115561590492726,0.5576286220639943
1733851599560216000,7.771216064453125,-1.3626099567085503,-0.36093174548745155,0.18017828797399996
1733851599570185200,7.781185302734375,-1.1489577075473965,-0.31355215467512604,-0.04250175564289093
1733851599580154000,7.791154052734375,-0.8511043495245277,-0.32378128774464127,-0.16575871747732163
1733851599590122200,7.801122314453125,-0.6415906614728272,-0.3669885613083839,-0.18252923501431942
1733851599600091100,7.811091064453125,-0.6913140389323235,-0.3826578396052122,-0.11486381202042102
1733851599610060300,7.821060302734375,-0.9592021745413541,-0.42538054452240465,-0.03418225558698177
1733851599620028000,7.83102783203125,-1.2873270444482565,-0.5295125346481799,0.0040916532278060915
1733851599629997000,7.8409970703125,-1.3403782511562108,-0.7330687756001949,-0.0618307254910469
1733851599639966000,7.850966064453125,-0.954504372113943,-0.8637631939589977,-0.03301379632949829
1733851599649934000,7.86093408203125,-0.40274844147562977,-0.7240005030035972,0.19327683899998663
1733851599659903000,7.870903076171875,0.011842413485050201,-0.38151042313575745,0.4849883332669735
1733851599669871000,7.88087109375,0.29636779564023014,-0.04374503370225429,0.6478016449421644
1733851599679840000,7.890840087890625,0.4539117155451327,0.22814707685112953,0.6726110920280217
1733851599689809200,7.90080908203125,0.39407413663268087,0.42108138602375983,0.45231531319916246
1733851599699777000,7.910777099609375,0.17343246697559953,0.38915596945285796,-0.032903321692347526
1733851599709746200,7.92074609375,0.08509834996238351,0.2698123816698789,-0.6019967561006546
1733851599719715000,7.930715087890625,0.13074614854604005,0.16241875939965247,-1.062879991158843
1733851599729683200,7.94068310546875,0.17232742834314702,0.1619733537197113,-1.3502443961322306
1733851599739652000,7.950652099609375,0.17839593460187314,0.3161135295957327,-1.3102572536587715
1733851599749621200,7.960621337890625,0.23138518198952077,0.6343471200853585,-0.9843640883266925
1733851599759589000,7.970589111328125,0.28126126579269767,0.9572165536820888,-0.468754406824708
1733851599769558300,7.980558349609375,0.26414690325409174,1.2187807469666003,0.1844680941224098
1733851599779527200,7.990527099609375,0.15535262040570377,1.4054998348861931,0.7285930914908647
1733851599789495000,8.0004951171875,0.0929421953305602,1.3350205235153436,0.8310843286722898
1733851599799464200,8.010464111328124,0.17487755121737716,1.01775256318748,0.6767103440403938
1733851599809432000,8.02043212890625,0.28573388116210696,0.6652239043861627,0.41917058396637435
1733851599819401000,8.03040087890625,0.41066082203537224,0.3421194929897785,0.15970014809072017
1733851599829370000,8.0403701171875,0.5469172584354877,0.1722679532408714,-0.03226327022314072
1733851599839338000,8.050337890625,0.637332273375988,0.18369009548723697,0.008744447469711304
1733851599849307100,8.06030712890625,0.5695511150479317,0.3002764935165643,0.19440379720330236
1733851599859276000,8.070276123046876,0.3106543874070048,0.47199207357168194,0.44010406640172
1733851599869244200,8.080244140625,-0.10868570790737866,0.5142892465531825,0.6335498322278261
1733851599879213000,8.090213134765625,-0.4192530015528202,0.4771627542078495,0.6953530851900577
1733851599889182200,8.10018212890625,-0.4941150580525398,0.34718963586091994,0.6968804408878088
1733851599899150000,8.110150146484376,-0.4203028028666973,0.18904665408432483,0.7061047808289528
1733851599909119200,8.120119140625,-0.17304478283226488,0.05484276629984378,0.6612678602367639
1733851599919087000,8.130087158203125,0.21149843212813138,-0.049934535992145535,0.6745932057559489
1733851599929056300,8.14005615234375,0.6338876858800649,-0.04897533557116985,0.6450082148313522
1733851599939025200,8.150025146484374,0.9429016126036643,0.06422492715120315,0.5968775133907794
1733851599948993300,8.1599931640625,0.8505483230769634,0.1593991193175316,0.3659340838193893
1733851599958962200,8.169962158203125,0.6071691903024912,0.17365677725076675,0.010887889239192008
1733851599968931000,8.17993115234375,0.4951262809216976,0.05156944371759891,-0.34065409661233426
1733851599978899000,8.18989892578125,0.4314961047932505,-0.12215046189725398,-0.47980771575868125
1733851599988868000,8.1998681640625,0.43730946724712844,-0.2948351792454719,-0.38870764116346834
1733851599998837000,8.2098369140625,0.5441805269479751,-0.3952724065065384,-0.15358721816837786
1733851600008805000,8.21980517578125,0.693933281520009,-0.4175122953653335,0.06223404559493065
1733851600018774000,8.22977392578125,0.9088818541020155,-0.35797348020374775,0.19802607935369013
1733851600028743000,8.239742919921875,1.062999233624339,-0.23656302301883697,0.2394762801170349
1733851600038711000,8.2497109375,1.069086444583535,-0.11792086150348186,0.23024141878187654
1733851600048680200,8.25968017578125,0.9411989003390073,-0.07383329797387123,0.10672843635976315
1733851600058648000,8.26964794921875,0.7571212668389081,-0.15373510220646858,-0.12137947752475738
1733851600068617200,8.2796171875,0.6748141550302506,-0.3450385953068733,-0.2846510543614626
1733851600078586000,8.289586181640624,0.6778150904119015,-0.5926724629163742,-0.33264965385496614
1733851600088554200,8.29955419921875,0.7484183204233646,-0.75534607385993,-0.14081833748817443
1733851600098523100,8.309523193359375,0.8336793136015533,-0.6605149960428476,0.27640520406365393
1733851600108492000,8.319491943359376,0.7702315083026886,-0.43398061508536334,0.46107671180367465
1733851600118460200,8.329460205078124,0.6444120025038719,-0.2473363459676504,0.40734629065990446
1733851600128429000,8.339428955078125,0.6309785204350948,-0.20997195321321485,0.22286475253403185
1733851600138397200,8.349397216796875,0.6975099709630012,-0.26079203986823557,0.07915127812623977
1733851600148366300,8.359366455078124,0.8132099415466189,-0.4409142137408256,-0.0391916081815958
1733851600158335200,8.369335205078125,0.9514119590565562,-0.6517348927378654,-0.14296470186710356
1733851600168303400,8.379303466796875,1.0530296282738447,-0.7690583728700876,-0.2304483395308256
1733851600178272300,8.389272216796876,1.0550748703658581,-0.6916209129244089,-0.16431962458491325
1733851600188241200,8.3992412109375,0.9283706906870007,-0.3428507298737764,0.03633563422858715
1733851600198209300,8.409209228515625,0.6767819479718804,0.14098434170484542,0.2755132236599922
1733851600208178200,8.41917822265625,0.36912674238085746,0.5280003765195608,0.36485797902047634
1733851600218147300,8.429147216796874,0.13861761257350444,0.6877303352266549,0.22518705800175665
1733851600228115200,8.439115234375,0.10066431401520967,0.6125386083811521,-0.06810206084549426
1733851600238084400,8.44908447265625,0.29475597652941943,0.34663141745626924,-0.3128402070134878
1733851600248053200,8.45905322265625,0.5461164634466171,-0.04301788847148418,-0.49181788702607154
1733851600258021400,8.469021484375,0.7599070981651544,-0.4507622385382652,-0.5207715943098068
1733851600267990300,8.478990234375,0.9533347438126802,-0.7170382627755403,-0.39604339087903495
1733851600277958400,8.48895849609375,1.0061310989767311,-0.7325245857208966,-0.005099953487515449
1733851600287927300,8.49892724609375,0.8584881761655211,-0.5031681330800056,0.45948973487317557
1733851600297896400,8.508896484375,0.5581280960187316,-0.10074293220937251,0.8757271879971027
1733851600307864300,8.5188642578125,0.20093495253771543,0.3032096243590116,1.0813017830342053
1733851600317833500,8.52883349609375,-0.045801381710171694,0.5982283434778451,1.0257949998676776
1733851600327802400,8.53880224609375,-0.08290858483314514,0.7357651750773191,0.7035510046929121
1733851600337770200,8.548770263671875,0.03747515965253115,0.7274281393647194,0.15964403398931026
1733851600347739100,8.5587392578125,0.258486101013422,0.6767541831821203,-0.37540918365120884
1733851600357708300,8.568708251953124,0.5107946824356914,0.637811581325531,-0.6624065088778733
1733851600367676200,8.57867626953125,0.7429065712645649,0.5849491751879453,-0.7069716267913579
1733851600377645300,8.588645263671875,0.8429264498963952,0.4414741857111454,-0.5904530333012342
1733851600387614200,8.5986142578125,0.87106971758008,0.269901813519001,-0.3038333092153072
1733851600397582300,8.608582275390624,0.7796446488142013,0.0889922886610031,0.12534078237116336
1733851600407551200,8.61855126953125,0.647048780748248,-0.07150456276535988,0.4920113637715578
1733851600417519400,8.628519287109375,0.5466892948985099,-0.1882102032601833,0.73222004981637
1733851600427488300,8.63848828125,0.46611266014426944,-0.24923779567480087,0.8444464990705252
1733851600437457400,8.64845751953125,0.47295755760297176,-0.269500831502676,0.7778297083467245
1733851600447425300,8.65842529296875,0.5452884881898761,-0.3008230214834213,0.5543091222524643
1733851600457394400,8.66839453125,0.6617566666670143,-0.2635585819721222,0.32584055836200715
1733851600467363300,8.67836328125,0.7360261641010641,-0.15720248605608939,0.17604688725769518
1733851600477331500,8.68833154296875,0.7761876402281225,0.005386369213461876,0.1099240175306797
1733851600487300400,8.69830029296875,0.7531098392404616,0.24827508812248705,0.07736614827513694
1733851600497269500,8.70826953125,0.68826648792997,0.41864860591888425,0.0156985043913126
1733851600507237400,8.7182373046875,0.5623885299421847,0.48935120465159415,-0.040137364599108695
1733851600517206500,8.72820654296875,0.4540997123979032,0.4988479317933321,-0.07885024935305118
1733851600527174100,8.738174072265625,0.39794849384799597,0.4604395829439163,-0.11538871267735958
1733851600537143300,8.748143310546874,0.4572773195207119,0.33295360523760315,-0.11917933713197708
1733851600547112200,8.7581123046875,0.6359877999644726,0.25418811155855653,-0.029677345383167266
1733851600557080300,8.768080322265625,0.7498679347097873,0.31318156779706474,0.02608253576159477
1733851600567049200,8.77804931640625,0.8127718423902988,0.34267128165364263,-0.011786299383640288
1733851600577018400,8.788018310546875,0.7959200763106345,0.22832126437425612,-0.0894762727856636
1733851600586986200,8.797986328125,0.8080062354236841,0.0992623382627964,-0.12681260848939419
1733851600596955400,8.807955322265625,0.7928799779623746,0.01830430297553539,-0.11558569655418395
1733851600606923300,8.81792333984375,0.7750888852059841,-0.042945992279052735,-0.12310264805555343
1733851600616892400,8.827892333984375,0.7457862914193422,-0.07191548165380954,-0.23983926821053025
1733851600626861300,8.837861328125,0.7344209208615123,-0.05021802910864353,-0.3264285873830318
1733851600636829400,8.847829345703126,0.7910277742244303,0.056715574434399604,-0.28310616300702096
1733851600646798300,8.85779833984375,0.8499741764508187,0.31647476412355896,-0.17041034267544744
1733851600656767500,8.867767578125,0.7549404156684875,0.4972334823340177,-0.08557868082523346
1733851600666735400,8.8777353515625,0.3658624798879027,0.48018356333374973,-0.04253565791249275
1733851600676704500,8.88770458984375,-0.22009411877691745,0.258633400529623,0.017367314386367797
1733851600686673400,8.89767333984375,-0.9230014187388121,0.008638649007678032,0.11163023692667484
1733851600696641300,8.907641357421875,-1.5525903845116495,-0.1830085429638624,0.20122224504649638
1733851600706610200,8.917610107421876,-1.4993457010582087,-0.20562135678827761,0.28423429025411606
1733851600716578300,8.927578369140624,-0.8816095240339636,-0.011949380990862846,0.32375732234716414
1733851600726547200,8.937547119140625,-0.44086336033642287,0.38427228906452654,0.3962795377224684
1733851600736516400,8.947516357421875,0.254802736325562,0.8412050329312681,0.5300117163419723
1733851600746484200,8.957484130859376,1.01102910015136,1.1155556425526738,0.6777958011895417
1733851600756453400,8.967453369140625,1.207184709458053,1.0543334043487906,0.8828793978393077
1733851600766422300,8.97742236328125,0.7184893383666873,0.7448489375039935,1.1324988863080738
1733851600776390400,8.987390380859376,-0.2852262239009142,0.28228724783957004,1.3252970018804073
1733851600786359300,8.997359375,-1.0393015471726654,-0.06790975314378737,1.2749381029963494
1733851600796328200,9.007328125,-1.2569196312248707,-0.17515519911497832,1.0425871447145938
1733851600806296300,9.01729638671875,-1.1389207360491156,-0.014483575643599032,0.7960141843348741
1733851600816265500,9.027265380859374,-0.8495143038541078,0.2639087105840444,0.5296779543429613
1733851600826233300,9.0372333984375,-0.3666179744303226,0.3505655420348048,0.16912965521514414
1733851600836202500,9.047202392578125,0.14583996504247188,0.1828679654493928,-0.04603460594415664
1733851600846171400,9.05717138671875,0.39217093335986136,-0.03725830203145742,0.01590367157459259
1733851600856139500,9.067139404296874,0.015028057783842086,-0.2702048881188035,0.23332944792509078
1733851600866108400,9.0771083984375,-0.2391542085558176,-0.4487000453114509,0.43456513697504995
1733851600876077300,9.087077392578125,-0.14127075743079184,-0.4249170186638832,0.6186176360338926
1733851600886045200,9.097045166015626,-0.19968086082339287,-0.23059826939553021,0.7921849814355373
1733851600896014300,9.107014404296875,-0.28479309318065643,0.016817571549117564,0.9582914894372224
1733851600905983200,9.116983154296875,-0.3815717979341745,0.2206947150185704,1.0606465330183505
1733851600915951400,9.126951416015626,-0.46780865040719505,0.297479556274414,0.9971411523133515
1733851600925920300,9.136920166015624,-0.41207594953030346,0.19161825813800096,0.772533940026164
1733851600935889200,9.14688916015625,-0.46996612070202826,-0.05324935962855815,0.5016466226011514
1733851600945857300,9.156857177734375,-0.7335951375618577,-0.29225305379778144,0.21460312014520166
1733851600955826200,9.166826171875,-0.7531734059959649,-0.4658233218088746,-0.043135377371311186
1733851600965794300,9.176794189453124,-0.5456856708139181,-0.5080713949516416,-0.189687874597311
1733851600975763200,9.18676318359375,-0.5607862093120813,-0.4084302865043282,-0.1404319685190916
1733851600985732400,9.196732421875,-0.36223610608428713,-0.24581015931367872,0.04120236348211765
1733851600995700500,9.206700439453124,-0.034817923142015934,-0.16738251928687095,0.25871757168173787
1733851601005669400,9.21666943359375,0.0276563609495759,-0.1631608099386096,0.46794367496371264
1733851601015638300,9.22663818359375,-0.00031038112342357635,-0.17621143016964197,0.6249386557489633
1733851601025606400,9.2366064453125,-0.0336667072802782,-0.23184067067205905,0.6084872871637343
1733851601035575300,9.2465751953125,-0.00046381811946630475,-0.32587942906767126,0.4718348371833563
1733851601045543400,9.25654345703125,-0.06862929958999156,-0.38041239876598115,0.36966391799747944
1733851601055512300,9.26651220703125,-0.03745207103788852,-0.3738850428238511,0.24743746825456617
1733851601065481500,9.2764814453125,0.025694120965898036,-0.3251139976531267,0.1598591380447149
1733851601075449300,9.286449462890625,-0.15340601638257503,-0.26068741044998167,0.13492226518690587
1733851601085418200,9.296418212890625,-0.3783347157090902,-0.24821020619273185,0.15998071859776972
1733851601095387100,9.30638720703125,-0.5536649791300297,-0.3114811936199665,0.17499825498759747
1733851601105355300,9.316355224609374,-0.642274405953288,-0.3695861765861511,0.1865951692789793
1733851601115324200,9.32632421875,-0.4688654659837484,-0.4440513427227735,0.17426409549415112
1733851601125293300,9.336293212890626,-0.18529753068387508,-0.544343024033308,0.17640987535119057
1733851601135261200,9.34626123046875,0.037138182783126826,-0.5846694814637303,0.22476620224118232
1733851601145230300,9.356230224609375,0.06110182669460773,-0.5849059205681085,0.26347733342945573
1733851601155198200,9.3661982421875,0.010245499682426452,-0.6267638253495097,0.316924261456728
1733851601165167900,9.37616796875,-0.1526557825371623,-0.6456383294284344,0.31873218766152855
1733851601175136800,9.38613671875,-0.2854945194482803,-0.5992109247744083,0.3039987289100885
1733851601185105000,9.39610498046875,-0.3043962037950754,-0.5722311479121446,0.2972580224782228
1733851601195073800,9.40607373046875,-0.2979009965568781,-0.5057385680899024,0.29404432112872597
1733851601205043000,9.41604296875,-0.28758944590091706,-0.38345951137691736,0.24494623596072196
1733851601215010800,9.4260107421875,-0.37715339697003364,-0.24372487747222182,0.2028203278928995
1733851601224980000,9.43597998046875,-0.5818175991639495,-0.1289852763533592,0.17605390152037143
1733851601234948900,9.445948974609376,-0.9635948565423488,-0.03440846555829048,0.11147183149456977
1733851601244917000,9.4559169921875,-1.2355641239851713,0.014670330387353896,-0.017059855872392653
1733851601254886000,9.465885986328125,-1.1441948770597576,0.016759411621093748,-0.20245675527751444
1733851601264854000,9.47585400390625,-0.8895105064168571,-0.013159925824403762,-0.4052653927326202
1733851601274823000,9.485822998046874,-0.6490083903834223,-0.02709434315264225,-0.5631248813927173
1733851601284792000,9.4957919921875,-0.2845236285895109,-0.08520926299095154,-0.5763432594060898
1733851601294759700,9.505759765625,0.06542611963450909,-0.16893851655721664,-0.3730500533044338
1733851601304728800,9.515728759765626,0.2677218391314149,-0.2148901203930378,-0.015602642801403999
1733851601314697700,9.52569775390625,0.31777269497960803,-0.19519816245138644,0.36244448813796043
1733851601324665900,9.535665771484375,0.18626900606453417,-0.15410335099697112,0.6630459758251905
1733851601334634800,9.545634765625,-0.07969312991797924,-0.07753098344802856,0.8492144441246986
1733851601344603000,9.555602783203126,-0.41207127335518595,0.023214871370792388,0.8699439284205436
1733851601354571800,9.56557177734375,-0.6390776557385921,0.10157762946784496,0.7378174314320087
1733851601364541000,9.575541015625,-0.6567080049753189,0.1279091715544462,0.49092415305674075
1733851601374508800,9.5855087890625,-0.6015411212876439,0.0779869105219841,0.1865641896188259
1733851601384478000,9.59547802734375,-0.637330519810319,-0.004967267018556595,-0.031686931639909745
1733851601394446800,9.60544677734375,-0.5954638472005724,-0.0124655138194561,-0.09644669632017612
1733851601404415000,9.6154150390625,-0.35724399688541886,-0.018404256218671797,-0.047208325898647305
1733851601414383900,9.6253837890625,-0.06391279246211051,0.0186567696750164,0.11955050853192806
1733851601424352800,9.635352783203125,0.07054492395296692,0.013863105657696722,0.3173334267795086
1733851601434321000,9.64532080078125,0.026656682387739418,-0.023389058893918988,0.4334855250447988
1733851601444290000,9.6552900390625,-0.09754808169081806,-0.08856383411586284,0.4931330612778663
1733851601454258000,9.6652578125,-0.2971393645346165,-0.139964935529232,0.492525743034482
1733851601464227000,9.67522705078125,-0.44600992944464085,-0.13641279600560666,0.41219548425674435
1733851601474196000,9.685196044921875,-0.3428716265313327,-0.17063596812486648,0.3025836014151573
1733851601484163800,9.695163818359376,-0.10441489872038363,-0.1280138009727001,0.27920038774013517
1733851601494132700,9.7051328125,-0.02792253760509193,0.05794540849030017,0.3153367000043392
1733851601504101600,9.7151015625,-0.04127893584966659,0.26632687764167784,0.36603812871575353
1733851601514069800,9.72506982421875,-0.14127901380248367,0.523710570371151,0.4067477402448654
1733851601524039000,9.735038818359374,-0.40961255509145555,0.7564338690966367,0.25858020903766155
1733851601534007800,9.7450078125,-0.6550584842026234,0.87023034414649,-0.014869067829847335
1733851601543976000,9.754975830078125,-0.7753980972856283,0.864514304587245,-0.3720744862705469
1733851601553944800,9.76494482421875,-0.72263389082551,0.7977887927919626,-0.6830857242912054
1733851601563913000,9.774912841796874,-0.6123217507600784,0.6911001039206981,-0.8614291980534792
1733851601573881900,9.7848818359375,-0.359351198297739,0.49489247216582294,-0.9153478352457285
1733851601583850800,9.794850830078126,-0.03785948279500007,0.26589550048708915,-0.8444944298654794
1733851601593819000,9.80481884765625,0.19248302174117415,0.14719605582654474,-0.5798883846670388
1733851601603787800,9.814787841796875,0.3209657188672572,0.09630115036964416,-0.2756616922199726
1733851601613757000,9.8247568359375,0.42366972201652825,0.0799473969399929,0.049457566130161286
1733851601623725000,9.83472509765625,0.4398316792011261,0.123980015411973,0.37255963943898673
1733851601633694000,9.84469384765625,0.37701997984871266,0.18250234700739382,0.559537086033821
1733851601643662000,9.854662109375,0.2446130584836006,0.3030623248428106,0.6684516342610121
1733851601653631000,9.864630859375,0.12783975958004593,0.41809272560179234,0.6970476141482591
1733851601663599900,9.874599853515624,0.15164149092808366,0.40377720000147815,0.5239765278309584
1733851601673567700,9.884567626953125,0.27928455889225007,0.34261049137711524,0.2779284681081772
1733851601683536600,9.89453662109375,0.3753821495138108,0.3610550796061754,0.05866729302406311
1733851601693505800,9.904505859375,0.5214075541257858,0.32868951805233954,-0.12642565499842165
1733851601703474000,9.914473876953124,0.7713945607326924,0.25165070203542705,-0.1033405474871397
1733851601713442800,9.92444287109375,0.9459082470737397,0.1969125651538372,0.1533937414228916
1733851601723411700,9.93441162109375,0.9323742272399366,0.20221768582463262,0.4431313052684068
1733851601733379800,9.9443798828125,0.7794761603794992,0.2613566880136728,0.5697188728302717
1733851601743348700,9.9543486328125,0.6013559739790857,0.3356061655730009,0.46295594967901704
1733851601753316900,9.96431689453125,0.33483635024428365,0.40443654069304463,0.32208383617699143
1733851601763285800,9.97428564453125,0.07809796968102455,0.4253308601617813,0.2590565943777561
1733851601773255000,9.9842548828125,-0.11369184563159943,0.33191315627396106,0.2706102540493011
1733851601783223000,9.99422314453125,-0.14166735553294418,0.16050328116714954,0.33978140543103214
1733851601793192000,10.00419189453125,-0.051357408402115105,-0.04380173232555389,0.3602712357521057
1733851601803160800,10.014160888671874,0.13974500916823743,-0.15821020179390907,0.3372305519044399
1733851601813129000,10.02412890625,0.3827741594612598,-0.18972119234502313,0.2506651981294155
1733851601823097900,10.034097900390625,0.5382677957728504,-0.23828093285262583,0.14369593875110148
1733851601833065700,10.044065673828126,0.6600026626065373,-0.20978549073040484,0.07498655966222285
1733851601843034600,10.05403466796875,0.671066492934525,-0.1398912857711315,0.0045054947257041926
1733851601853003800,10.064003662109375,0.6904115371346473,-0.10373042358756064,-0.16142624123096466
1733851601862972000,10.073971923828125,0.7350351072371005,-0.08405366321504115,-0.3325023543387651
1733851601872940800,10.08394091796875,0.8554284963339567,-0.14626900410950183,-0.3980956472337246
1733851601882909700,10.09390966796875,1.0383984608530998,-0.24671266111135481,-0.48152153393924235
1733851601892877800,10.1038779296875,1.0429507173299788,-0.23468320062160491,-0.5542050773561
1733851601902846700,10.1138466796875,0.9917685193642973,-0.1809825900942087,-0.5999795710593462
1733851601912815900,10.12381591796875,0.9171379335328936,-0.11545184104144572,-0.6027373453348874
1733851601922783700,10.13378369140625,0.810212805557251,-0.03633388066291809,-0.48657121854424473
1733851601932753000,10.1437529296875,0.809983380715549,-0.054714171484112735,-0.32862346707880496
1733851601942720800,10.153720703125,0.9485089310914278,-0.19007307452261446,-0.20096154828369617
1733851601952690000,10.16368994140625,1.1373229454636573,-0.4300356768518686,-0.07252806059420108
1733851601962658800,10.173658935546875,1.293978611291945,-0.6307423735916614,0.06850421190559863
1733851601972627000,10.183626953125,1.2181178991436958,-0.6716928081393242,0.14910451979637146
1733851601982595800,10.193595947265624,0.9334440484285355,-0.5821399629861116,0.1552548591196537
1733851601992565000,10.20356494140625,0.6965607074141502,-0.4221183278560638,0.07849836717545985
1733851602002532900,10.213532958984375,0.5372793692573905,-0.3217074040800333,-0.02073357594907284
1733851602012502000,10.223501953125,0.4640139342993498,-0.2533487381249666,-0.08494389005303382
1733851602022469600,10.2334697265625,0.455352488937974,-0.2345522677183151,-0.1497393105685711
1733851602032438800,10.243438720703125,0.5551102095022797,-0.21060031424462794,-0.11349544627666473
1733851602042407700,10.25340771484375,0.6732347768843173,-0.18748714968264102,-0.014030863440036774
1733851602052375800,10.263375732421874,0.6998170788615942,-0.17171382648944855,0.019458733707666397
1733851602062344700,10.2733447265625,0.6611153000235557,-0.15227379748225212,0.003098550537228584
1733851602072313900,10.28331396484375,0.5687643485844135,-0.09929331792294979,-0.07342413265109062
1733851602082281700,10.29328173828125,0.4568772142872214,-0.01884030954837799,-0.1843295624345541
1733851602092251000,10.3032509765625,0.37618689002543687,0.08632745336592197,-0.249789584338665
1733851602102218800,10.31321875,0.3331305692397058,0.13869476946294307,-0.22421032192409038
1733851602112188000,10.32318798828125,0.3650723524235189,0.2016664816826582,-0.10209551586210727
1733851602122156800,10.33315673828125,0.4709491403900087,0.2733908246785402,0.11527589995265006
1733851602132125000,10.343125,0.5494973380565643,0.27744740659296513,0.31226269938647744
1733851602142093800,10.35309375,0.5764696622647345,0.133782447502017,0.35893443419039245
1733851602152063000,10.36306298828125,0.3875321676433086,-0.037650808480381964,0.25586393581628797
1733851602162030300,10.3730302734375,0.21514599485024807,-0.1813145985275507,0.10003624524474143
1733851602171999500,10.38299951171875,0.19097703762501478,-0.3037678427636623,-0.007476619490981102
1733851602181968400,10.392968505859375,0.31097280570641156,-0.3269201702922582,-0.06788812583386898
1733851602191936500,10.4029365234375,0.47434996180944144,-0.20664894627034663,-0.0012397709280252457
1733851602201905400,10.412905517578125,0.642750937423855,0.03011632132232189,0.10537526818513869
1733851602211873500,10.42287353515625,0.8381740677375346,0.30129648421406746,0.15455986259281634
1733851602221842400,10.432842529296876,1.0260906948786228,0.5262836357295513,0.1004389808267355
1733851602231811600,10.4428115234375,1.2440917138338088,0.6348135685533285,-0.026427403676509857
1733851602241779200,10.452779296875,1.3844763360798358,0.6479986288189887,-0.21314941420555114
1733851602251748400,10.462748291015625,1.3484008140921593,0.6531774927616119,-0.3947328928023576
1733851602261716500,10.472716552734376,1.1209914038658142,0.5956108544558286,-0.5721598362416028
1733851602271685400,10.482685302734374,0.9135019151180982,0.4544692763626575,-0.7404121241003274
1733851602281654300,10.492654296875,0.8097481106549501,0.24974048449993133,-0.7626186952114105
1733851602291622400,10.502622314453125,0.7786129676789045,0.10322364310920237,-0.6533586945474147
1733851602301591300,10.51259130859375,0.7101998681228607,0.04504442586302757,-0.5767343045502901
1733851602311560400,10.522560546875,0.6229735662210732,0.05367956773936748,-0.6082827045023441
1733851602321528300,10.5325283203125,0.5104635507851839,0.08547112879753112,-0.5826186864137649
1733851602331497500,10.54249755859375,0.4702168805927038,0.12860592164695261,-0.3440215272188186
1733851602341466400,10.55246630859375,0.4738993684977293,0.14182839131355285,0.040943420284986494
1733851602351434500,10.5624345703125,0.462417020496726,0.14697101489901543,0.36313656205534933
1733851602361403400,10.5724033203125,0.13970306972265242,0.16985738496780395,0.5593149677157402
1733851602371371500,10.58237158203125,-1.1015998901754618,0.07614274396002292,0.6956517758756876
1733851602381340400,10.59234033203125,-3.472516536334157,-0.05551029029786587,0.9516139113694428
1733851602391309600,10.6023095703125,-2.35533446162343,-0.19268238023817538,1.0275146632671355
1733851602401277400,10.61227734375,0.5715542715638876,-0.1859890200793743,0.7549532751500606
1733851602411246600,10.62224658203125,0.6312228505849838,-0.05274024106264114,0.5249696305215359
1733851602421215500,10.632215576171875,0.6152095811560749,0.023806407523155212,0.275772751379013
1733851602431183400,10.642183349609375,0.38324440732151266,-0.032408231651782984,0.09777356100976467
1733851602441152300,10.65215234375,-0.4172048368513584,-0.16690204229354857,0.1799631839185953
1733851602451120400,10.662120361328125,-1.679187596684694,-0.25380700328648087,0.405690924668312
1733851602461089300,10.67208935546875,-1.6420646114706992,-0.20729425843656063,0.5266577297389508
1733851602471058400,10.682058349609376,-0.6858572348311543,-0.11403028380572795,0.5042524211853743
1733851602481026300,10.6920263671875,-0.7982201699465513,-0.0017500585377216338,0.40179099462032314
1733851602490995500,10.701995361328125,-1.1379530600607395,0.07876783176660537,0.21232173120975492
1733851602500964400,10.71196435546875,-0.8740010948568582,0.05000058696568012,-0.01435293500125408
1733851602510932500,10.721932373046876,-0.15183452928215263,-0.06947159563302993,-0.21132336782217023
1733851602520901400,10.7319013671875,0.47030514339804647,-0.20228373679816722,-0.33391280565857884
1733851602530869500,10.741869384765625,0.9414221877008676,-0.2127414179265499,-0.3618161271065473
1733851602540838400,10.75183837890625,0.976781962634623,-0.1259580374866724,-0.24540917729735373
1733851602550807600,10.7618076171875,0.7265206691309809,-0.003621697628498077,0.08312836506366729
1733851602560775400,10.771775390625,0.44976679776012896,0.1931348001807928,0.4864455463379621
1733851602570744600,10.78174462890625,0.03170359051376581,0.4618079486876726,0.7957581637471913
1733851602580713500,10.79171337890625,-0.7402221544861793,0.6729559599429369,0.9958172102332115
1733851602590681600,10.801681640625,-1.5343313819825648,0.7647112835764884,1.0586083051890134
1733851602600650500,10.811650390625,-1.4562658532664179,0.7185936755239963,0.9214987590909004
1733851602610618400,10.821618408203125,-1.289786128038168,0.5273989034950732,0.6577513765484094
1733851602620587300,10.831587158203124,-1.3735218113452194,0.2437508886963129,0.36119770294725895
1733851602630556400,10.841556396484375,-1.0609677277967333,0.005780336967110633,0.08362053249478339
1733851602640524300,10.851524169921875,-0.4367994718983769,-0.1492149944335222,-0.11402794571816921
1733851602650493400,10.861493408203126,0.16996932090967892,-0.26284020456969737,-0.0917588307648897
1733851602660462300,10.87146240234375,0.6181000419005751,-0.31921441822052,0.10928396606147289
1733851602670430500,10.881430419921875,0.7702168952554463,-0.31392741772830485,0.42036417766511436
1733851602680399400,10.8913994140625,0.7187810147896408,-0.2523345926463604,0.7669406500637531
1733851602690367500,10.901367431640624,0.5551195618525148,-0.13676643174886702,1.0249649787843227
1733851602700336400,10.91133642578125,0.43116672670841216,0.03262041309773922,1.0894447574794293
1733851602710305500,10.921305419921875,0.4159937074959278,0.2318728193759918,0.9706313310503959
1733851602720273400,10.9312734375,0.21061054337769747,0.4048468750596046,0.8127291722923516
1733851602730242600,10.94124267578125,0.07057809557020664,0.4882645784586668,0.6250432851672172
1733851602740211500,10.95121142578125,0.1784150776937604,0.5126280353426933,0.4131956012099981
1733851602750179600,10.9611796875,0.29973961016088724,0.48019174664020536,0.2553945647388697
1733851602760148500,10.9711484375,0.27876959510743615,0.4582032021939754,0.21551965046823024
1733851602770116400,10.981116455078125,0.14663023863732813,0.3641179743081331,0.21700141345858573
1733851602780085200,10.991085205078125,0.21392361344844102,0.2662467981427908,0.17778350179195404
1733851602790054700,11.0010546875,0.3593079436779022,0.20861703147292135,0.14547814599275588
1733851602800022300,11.011022216796874,0.2263566863030195,0.15804536662101745,0.21398937216103076
1733851602809991400,11.020991455078125,-0.031330373287200924,0.06532149021625519,0.278697114393115
1733851602819960300,11.030960205078125,-0.13630232136845588,-0.008250526472926139,0.25325989079773426
1733851602829928400,11.040928466796874,-0.23761048624515532,-0.011896189498901366,0.21202070243656634
1733851602839897300,11.0508974609375,-0.40633769813925025,0.011686930662393569,0.15126608174443243
1733851602849865500,11.060865478515625,-0.5185539182603359,-0.004164718464016914,0.09894961905181407
1733851602859834400,11.07083447265625,-0.3931494230031967,-0.0657259793639183,0.03944061450660229
1733851602869803500,11.080803466796874,-0.13431670050919056,-0.13736732025146484,-0.05283084195554256
1733851602879771400,11.090771484375,-0.040755204236507414,-0.19307167181670665,-0.09096680360436439
1733851602889740500,11.100740478515625,0.029136078113317487,-0.2538596102565527,-0.0994715970993042
1733851602899709400,11.11070947265625,0.12556056260168552,-0.3044295215427875,-0.08513210610151291
1733851602909677600,11.120677490234375,0.0946872854322195,-0.3282704158574343,-0.01785655920803547
1733851602919646500,11.130646484375,-0.14843699579834937,-0.33336393960416316,0.061525605064630506
1733851602929614600,11.140614501953126,-0.3248439485400915,-0.29112755689918995,0.17344693389236926
1733851602939583500,11.15058349609375,-0.46064942630231376,-0.1913917559057474,0.25680209344923494
1733851602949552600,11.160552734375,-0.6506973663836717,-0.08826806603968143,0.26863983075916764
1733851602959520300,11.170520263671875,-0.7833756520360707,-0.047398295512795445,0.213683082690835
1733851602969489400,11.180489501953126,-0.8205810548365116,-0.04546411257982254,0.12815642431378363
1733851602979458300,11.190458251953125,-0.7653621487006544,-0.0919815336048603,0.0613689531981945
1733851602989426400,11.200426513671875,-0.5635194336682557,-0.15487316632568834,0.07866495591402053
1733851602999395300,11.210395263671876,-0.3780921391248703,-0.26553894213438034,0.14960662409961223
1733851603009363500,11.220363525390624,-0.23565146113187074,-0.3918202202260494,0.2924117514908314
1733851603019332400,11.230332275390625,-0.16249211689680815,-0.4712672664284706,0.4627186337918043
1733851603029301500,11.240301513671875,-0.1304454120337963,-0.4425537976413965,0.6277262406408787
1733851603039269400,11.250269287109376,-0.18803776930272578,-0.40067046615779395,0.7307417939573526
1733851603049238500,11.260238525390625,-0.37847324739694593,-0.37483284506797787,0.7141916411727667
1733851603059207400,11.27020751953125,-0.7126607783436775,-0.279361131259799,0.6239566589742899
1733851603069175600,11.280175537109375,-1.0102455485582351,-0.16539105320870875,0.43093233343064785
1733851603079144400,11.29014453125,-1.065259579771757,-0.13548457524478436,0.17557225548326968
1733851603089112600,11.300112548828125,-0.9486258354693651,-0.1855325084835291,-0.05008884977102279
1733851603099081500,11.31008154296875,-0.7854244012594223,-0.23273732725083826,-0.12719254771769045
1733851603109050600,11.320050537109376,-0.5961497836381197,-0.2806429877638817,-0.10421031605899334
1733851603119018500,11.3300185546875,-0.3772726394355297,-0.331433848324418,-0.009048398852348326
1733851603128987600,11.339987548828125,-0.12134499073326586,-0.37188100952506065,0.16677286295592783
1733851603138956500,11.34995654296875,0.07753419831842183,-0.37099545886218543,0.34881343767046924
1733851603148924400,11.35992431640625,0.0949411140628159,-0.3123649907171726,0.4967155959397554
1733851603158893300,11.369893310546875,-0.08517463006898761,-0.20786007562577724,0.5444342094480991
1733851603168862000,11.379862060546875,-0.33581264793053267,-0.10001286436915396,0.49141222883462904
1733851603178830800,11.389830810546876,-0.44614685369729995,0.004678513205051422,0.3651332888305187
1733851603188799700,11.3997998046875,-0.422906847885251,0.0717693511813879,0.18766367529332637
1733851603198767900,11.409767822265625,-0.2780995868913829,0.1164373449474573,0.029195114824175833
1733851603208737000,11.419737060546876,-0.13571538832597435,0.19704408257901668,-0.01890051530301571
1733851603218706000,11.429705810546874,-0.07818732846491039,0.3205032889872789,0.0942646761059761
1733851603228674000,11.439674072265625,-0.17385544162802397,0.46280338946580885,0.22803952482342718
1733851603238643000,11.449642822265625,-0.40756365973763165,0.5007710088104009,0.2616238145172596
1733851603248611000,11.459611083984376,-0.5203577528119087,0.377947177696228,0.1117237604290247
1733851603258580000,11.469580078125,-0.4779278933614492,0.20455635790526866,-0.08263970476388931
1733851603268548900,11.479548828125,-0.3771048816531896,0.05784194811582565,-0.24704759215414523
1733851603278517000,11.48951708984375,-0.1792670183479786,-0.013071078497171401,-0.36177287248671053
1733851603288486000,11.49948583984375,0.07287702016234397,0.04146832094192505,-0.3356219476640224
1733851603298455000,11.509455078125,0.2760124236200936,0.23610241976976393,-0.17843232108950613
1733851603308423200,11.519423095703125,0.3114273810734972,0.4504477657616138,0.018027824121713637
1733851603318392000,11.52939208984375,0.1644213313937187,0.54620414173007,0.08441255965530872
1733851603328360000,11.53935986328125,0.005715455037355423,0.5692535934060812,0.024902970588207243
1733851603338328800,11.549328857421875,-0.07789097586683928,0.5439087242692708,-0.09398176751136779
1733851603348297700,11.559297607421875,-0.049273880126327274,0.5314964019417763,-0.2076607536613941
1733851603358265900,11.569265869140626,0.10026201682463287,0.5060363819926977,-0.3088794866889715
1733851603368234800,11.57923486328125,0.3599975333772599,0.3929617914766073,-0.3363596142888069
1733851603378204000,11.589203857421875,0.6139467216134071,0.322599384483695,-0.22480478068590162
1733851603388172000,11.599172119140626,0.7908664461828768,0.38971477237939833,0.05708674583435058
1733851603398141000,11.609140869140624,0.8657645969092845,0.5618178904473782,0.4028396268904209
1733851603408109000,11.619109130859375,0.8263337731443345,0.7667688006281852,0.8367395779550075
1733851603418078000,11.629077880859375,0.7138496958673,0.951677039733529,1.3934475780427455
1733851603428046800,11.639046875,0.6015703473821282,0.8582084824413061,1.7202134345561264
1733851603438015000,11.649014892578125,0.6019464872181415,0.4703378766238689,1.579518431186676
1733851603447983900,11.65898388671875,0.5957748128458857,0.07680091560781002,1.0382961695224047
1733851603457952000,11.668951904296875,0.5519993840053677,-0.2340039861857891,0.1223240648984909
1733851603467921000,11.6789208984375,0.471351291450113,-0.48149932210743424,-0.862716315254569
1733851603477890000,11.68889013671875,0.4041434029653668,-0.6255746155649423,-1.5163427208274602
1733851603487858200,11.698858154296875,0.30452889026403424,-0.5596177500545978,-1.5892957288354634
1733851603497827000,11.7088271484375,0.1837950171664357,-0.34868308928906916,-1.23027010923028
1733851603507796000,11.7187958984375,0.061221945942938324,-0.14649287599325178,-0.7826157735794782
1733851603517763800,11.728763916015625,-0.015131225897371769,0.027142273947596548,-0.34378187324404713
1733851603527732700,11.738732666015625,-0.04784706219360232,0.1358387955099344,0.0616916092813015
1733851603537700900,11.748700927734374,-0.09235299726575613,0.12227788766920566,0.27540216450095173
1733851603547669800,11.758669677734375,-0.15831190860271452,-0.0685714319229126,0.24721184280514716
1733851603557639000,11.768638916015625,-0.1241778760716319,-0.28321254599094386,0.07199439210891723
1733851603567607000,11.77860693359375,0.06544219398647547,-0.3629904315829277,-0.06335048240423202
1733851603577576000,11.788575927734374,0.2981508796647191,-0.34110184037983415,-0.09272913710176944
1733851603587544800,11.798544921875,0.49945261968821286,-0.2505120533943176,0.02582943778336048
1733851603597513000,11.808512939453125,0.6507987809315323,-0.13759119213521478,0.27322832759320737
1733851603607481900,11.81848193359375,0.7163514495551586,-0.07005904013216495,0.4494681070744991
1733851603617450000,11.828449951171875,0.6955366250634193,-0.08943886338472366,0.42140638019442556
1733851603627419000,11.8384189453125,0.687400080358982,-0.14533844526112077,0.21689736856222153
1733851603637388000,11.848387939453126,0.7318015321433544,-0.21318682360649108,-0.09194587776958942
1733851603647356200,11.858356201171874,0.8242416231706738,-0.3017980039954185,-0.4021580743670463
1733851603657325000,11.868324951171875,0.8841314437270164,-0.31397885565459727,-0.6024427463024854
1733851603667294000,11.8782939453125,0.897090294021368,-0.27211832052469254,-0.6665659666448831
1733851603677261800,11.88826171875,0.9141855134680866,-0.18192425485849378,-0.615742957380414
1733851603687230700,11.898230712890625,0.8984569061994552,-0.07661503764688968,-0.4760153377383947
1733851603697198800,11.90819873046875,0.710761082202196,0.04668342524170875,-0.37308746270537374
1733851603707167700,11.918167724609376,0.4907268769189715,0.15052432346642017,-0.3100397626399994
1733851603717137000,11.928136962890624,0.34228783529400825,0.18050269762277601,-0.2402864274561405
1733851603727105000,11.93810498046875,0.24926731403023003,0.18732056094408034,-0.17933833001852034
1733851603737074000,11.948073974609375,0.19416881940364836,0.08939210163354873,-0.15370236898064613
1733851603747042000,11.9580419921875,0.22199235361367461,-0.044700726991891856,-0.168430567035079
1733851603757011000,11.968010986328125,0.35077918478548525,-0.29341069940030573,-0.25810382369756696
1733851603766979800,11.977979736328125,0.5559466603264213,-0.6935311304599047,-0.3621738545030355
1733851603776948000,11.987947998046875,0.8049874721243977,-0.9211872089236974,-0.3505319320261478
1733851603786916900,11.997916748046874,1.0135162407919764,-0.9221025702029466,-0.17875497717261313
1733851603796886000,12.007885986328125,1.060511216200888,-0.7753069118708371,0.0157855981528759
1733851603806854000,12.01785400390625,0.9723755443692207,-0.5469798022776842,0.183261056420207
1733851603816823000,12.027822998046876,0.7727306316420436,-0.2996259206533432,0.25464403863251206
1733851603826791200,12.037791259765624,0.6348898486599326,-0.11556465376615524,0.15556407119929788
1733851603836760000,12.047760009765625,0.6712067781880497,-0.011042203018069267,-0.0017278467059135437
1733851603846729000,12.05772900390625,0.7305386726006865,0.10159574964642525,-0.1467716929346323
1733851603856696800,12.06769677734375,0.8265909627757966,0.13325228614807128,-0.28679215804338454
1733851603866665700,12.077665771484375,0.8915411354616284,0.14923545269966124,-0.3788064248740673
1733851603876635000,12.087634765625,0.9426458842769264,0.15458499703407286,-0.3572738075017929
1733851603886602800,12.097602783203126,0.9612310500204563,0.1433376268327236,-0.2779723072499037
1733851603896572000,12.107572021484375,0.9779732182458043,0.11768939083516597,-0.17176175728440285
1733851603906540000,12.1175400390625,0.9872902049064636,0.10811083062887192,-0.007634440401196479
1733851603916509000,12.127509033203125,0.9985459045447409,0.10500351226329803,0.10640928740799427
1733851603926477800,12.137477783203124,1.0020398841403424,0.18051789519190786,0.1946031191676855
1733851603936446000,12.147446044921875,1.0125684385478495,0.29988895550370215,0.24758652133643624
1733851603946414800,12.157414794921875,1.0697405245780944,0.41965690617859364,0.15595862347483633
1733851603956383000,12.167383056640626,1.1166403690494597,0.5551987645685672,-0.0879039089024067
1733851603966352000,12.177351806640624,1.0591139166235923,0.6058452482223511,-0.4098831156611442
1733851603976321000,12.187321044921875,0.8480934042055159,0.5728630160748959,-0.6935445744633674
1733851603986289200,12.1972890625,0.5944681141614914,0.4538841699510813,-0.7959446262300014
1733851603996258000,12.207258056640624,0.42013453362770375,0.2627729845523834,-0.6361065309733152
1733851604006227000,12.21722705078125,0.3855599907875061,0.07439093185663223,-0.422017205569148
1733851604016195000,12.227195068359375,0.41290743191838264,-0.04892915834188461,-0.19761223785579204
1733851604026164000,12.2371640625,0.4753402149558067,-0.09092822515964508,0.025780922466516493
1733851604036131800,12.2471318359375,0.5058130946308375,-0.08108955271244049,0.12360299879312514
1733851604046100700,12.257100830078125,0.4870329908370971,-0.06627309185266494,0.08722235637903213
1733851604056070000,12.26706982421875,0.41958617902994155,-0.11418284401893615,0.050341947749257085
1733851604066038000,12.2770380859375,0.33696634801030156,-0.2349357140779495,-0.0009837503403425216
1733851604076007000,12.2870068359375,0.2775175492197275,-0.3054080111861229,0.025068390282988545
1733851604085975800,12.296975830078125,0.2524333768457174,-0.2914864533394575,0.15804887375235557
1733851604095944000,12.30694384765625,0.1756763003796339,-0.1798497866719961,0.23308687134087083
1733851604105912800,12.316912841796874,-0.11093567879125475,0.01075929442346096,0.2961661355882883
1733851604115881000,12.326880859375,-0.48897126542329783,0.30009061555564404,0.41444530901014803
1733851604125849900,12.336849853515625,-0.8421386605195701,0.6355009662955999,0.5179571214109658
1733851604135819000,12.346819091796876,-1.070539566001296,0.873937966492772,0.4830132338017225
1733851604145787000,12.356786865234374,-1.1307874062150716,0.8569891697794199,0.3147182758450508
