time,seconds_elapsed,z,y,x
1733851591804600000,0.01560009765625,-0.19870154559612274,0.6110214591026306,0.2750733196735382
1733851591814569000,0.02556884765625,-0.18680909276008606,0.6429264545440674,0.18738548457622528
1733851591824537000,0.035537109375,-0.20723074674606323,0.34410327672958374,-0.12788592278957367
1733851591834506000,0.045506103515625,-0.21711678802967072,-0.09986542910337448,-0.4560055136680603
1733851591844475100,0.05547509765625,-0.17207872867584229,-0.3242284953594208,-0.6724640130996704
1733851591854442800,0.06544287109375,-0.1085439994931221,-0.3949270248413086,-0.7521446943283081
1733851591864412000,0.075411865234375,-0.04284914210438728,-0.38419046998023987,-0.6901833415031433
1733851591874380800,0.085380859375,0.011082272045314312,-0.27167415618896484,-0.5400511622428894
1733851591884349000,0.095348876953125,0.046939872205257416,-0.06997083872556686,-0.34213805198669434
1733851591894317800,0.10531787109375,0.057686153799295425,0.11164030432701111,-0.14873459935188293
1733851591904287000,0.115286865234375,0.044083259999752045,0.18847356736660004,-0.012113632634282112
1733851591914254800,0.1252548828125,0.024484911933541298,0.18180201947689056,0.043247517198324203
1733851591924224000,0.13522412109375,0.014523090794682503,0.1545616090297699,0.014873932115733624
1733851591934193000,0.14519287109375,0.01294516772031784,0.10740874707698822,-0.054346952587366104
1733851591944161000,0.1551611328125,0.028756752610206604,0.012717435136437416,-0.12452547997236252
1733851591954130000,0.1651298828125,0.05714991316199303,-0.09725438058376312,-0.18660138547420502
1733851591964098800,0.175098876953125,0.08935099840164185,-0.17413531243801117,-0.2322106808423996
1733851591974067000,0.18506689453125,0.11587820947170258,-0.20969223976135254,-0.26412734389305115
1733851591984036000,0.1950361328125,0.13209977746009827,-0.20799288153648376,-0.2826848030090332
1733851591994005000,0.2050048828125,0.14855602383613586,-0.19329363107681274,-0.28768956661224365
1733851592003973000,0.21497314453125,0.16079245507717133,-0.1837824136018753,-0.276606023311615
1733851592013942000,0.22494189453125,0.1668081134557724,-0.18459774553775787,-0.25140824913978577
1733851592023911000,0.234910888671875,0.1622389256954193,-0.1900670826435089,-0.22119547426700592
1733851592033879000,0.244879150390625,0.146829754114151,-0.19989082217216492,-0.18919582664966583
1733851592043848000,0.254847900390625,0.1285487413406372,-0.21611133217811584,-0.15645918250083923
1733851592053817000,0.264817138671875,0.11240892112255096,-0.24850548803806305,-0.1243009865283966
1733851592063785000,0.274784912109375,0.10715104639530182,-0.278678834438324,-0.10567936301231384
1733851592073753900,0.28475390625,0.11625918745994568,-0.26847267150878906,-0.1085464283823967
1733851592083722800,0.29472265625,0.1443781703710556,-0.2336347997188568,-0.12236770242452621
1733851592093691000,0.30469091796875,0.18790727853775024,-0.21548624336719513,-0.13006536662578583
1733851592103659800,0.31465966796875,0.23061932623386383,-0.24312107264995575,-0.13033461570739746
1733851592113629000,0.32462890625,0.2640957832336426,-0.3061264157295227,-0.12124044448137283
1733851592123597800,0.334597900390625,0.27739080786705017,-0.36774900555610657,-0.10560502856969833
1733851592133566000,0.34456591796875,0.27384188771247864,-0.41538357734680176,-0.09293825924396515
1733851592143534800,0.354534912109375,0.2629847228527069,-0.45259353518486023,-0.0781654343008995
1733851592153503700,0.364503662109375,0.2469511330127716,-0.48259198665618896,-0.05806528776884079
1733851592163471400,0.374471435546875,0.23591819405555725,-0.5062664747238159,-0.0356939360499382
1733851592173440500,0.3844404296875,0.23834209144115448,-0.5088035464286804,-0.02084590308368206
1733851592183409400,0.394409423828125,0.25391969084739685,-0.48420900106430054,-0.01061297208070755
1733851592193377500,0.40437744140625,0.2726459801197052,-0.45986905694007874,-0.009465762414038181
1733851592203346400,0.414346435546875,0.29338347911834717,-0.4728248119354248,-0.005779680795967579
1733851592213315600,0.424315673828125,0.3145228922367096,-0.5319532155990601,0.000491016311571002
1733851592223283500,0.434283447265625,0.3359253704547882,-0.6150595545768738,0.0022439088206738234
1733851592233252600,0.444252685546875,0.35786834359169006,-0.6945141553878784,0.005966630764305592
1733851592243221500,0.454221435546875,0.3741908669471741,-0.7669042348861694,0.013033062219619751
1733851592253189600,0.464189697265625,0.38107115030288696,-0.8177489638328552,0.014527157880365849
1733851592263158500,0.474158447265625,0.37771955132484436,-0.8210989832878113,0.0203498937189579
1733851592273127700,0.484127685546875,0.3631972074508667,-0.81593918800354,0.02910369075834751
1733851592283095600,0.494095458984375,0.3503149747848511,-0.819381833076477,0.03633284196257591
1733851592293064700,0.504064697265625,0.3468362092971802,-0.8259305357933044,0.03196483850479126
1733851592303033600,0.51403369140625,0.3491393029689789,-0.8619809150695801,0.025437163189053535
1733851592313001700,0.524001708984375,0.3550646901130676,-0.9479839205741882,0.021037206053733826
1733851592322970600,0.533970703125,0.3702990412712097,-1.0493462085723877,0.011265004985034466
1733851592332939500,0.543939453125,0.39460042119026184,-1.124121904373169,0.005616616457700729
1733851592342907600,0.55390771484375,0.41903892159461975,-1.1736351251602173,0.007027293089777231
1733851592352876500,0.56387646484375,0.43602311611175537,-1.208219289779663,0.024115784093737602
1733851592362845700,0.573845703125,0.4402402341365814,-1.2036473751068115,0.05672911927103996
1733851592372813600,0.5838134765625,0.4190739095211029,-1.1773452758789062,0.11121237277984619
1733851592382782500,0.593782470703125,0.37668997049331665,-1.1597872972488403,0.17830219864845276
1733851592392751400,0.60375146484375,0.336095929145813,-1.1674813032150269,0.2448078989982605
1733851592402719500,0.613719482421875,0.30080506205558777,-1.199837327003479,0.3053109347820282
1733851592412688400,0.6236884765625,0.2804507911205292,-1.264499545097351,0.3528706729412079
1733851592422657500,0.633657470703125,0.28755849599838257,-1.3340578079223633,0.3829907476902008
1733851592432625400,0.64362548828125,0.31363216042518616,-1.3811172246932983,0.40432244539260864
1733851592442594600,0.653594482421875,0.3376120626926422,-1.417213797569275,0.41213056445121765
1733851592452563500,0.6635634765625,0.35473617911338806,-1.4474538564682007,0.4008634090423584
1733851592462531600,0.673531494140625,0.37040913105010986,-1.4528545141220093,0.3691757917404175
1733851592472500500,0.68350048828125,0.38075634837150574,-1.4317947626113892,0.3386562168598175
1733851592482469600,0.6934697265625,0.3608657419681549,-1.4054542779922485,0.3301998972892761
1733851592492437500,0.7034375,0.3227432370185852,-1.3785139322280884,0.3383452594280243
1733851592502406700,0.71340673828125,0.278526246547699,-1.3478835821151733,0.36246976256370544
1733851592512375600,0.72337548828125,0.24748139083385468,-1.34068763256073,0.3956054151058197
1733851592522343700,0.73334375,0.2401379942893982,-1.3576288223266602,0.42688584327697754
1733851592532312600,0.7433125,0.2583521604537964,-1.3658440113067627,0.44226953387260437
1733851592542281700,0.75328173828125,0.29534879326820374,-1.3711069822311401,0.4459838271141052
1733851592552249600,0.76324951171875,0.3363104462623596,-1.3879529237747192,0.4375726580619812
1733851592562218800,0.77321875,0.3736668527126312,-1.3823862075805664,0.40552765130996704
1733851592572187600,0.783187744140625,0.4030347764492035,-1.3657796382904053,0.3530118763446808
1733851592582156500,0.793156494140625,0.411033570766449,-1.4117515087127686,0.29833984375
1733851592592124400,0.80312451171875,0.3956679105758667,-1.5217512845993042,0.23274843394756317
1733851592602093600,0.813093505859375,0.3852752149105072,-1.6343088150024414,0.15870189666748047
1733851592612062500,0.8230625,0.39418548345565796,-1.7285404205322266,0.08167881518602371
1733851592622030600,0.833030517578125,0.4110387861728668,-1.7990689277648926,0.019882822409272194
1733851592631999500,0.84299951171875,0.41179218888282776,-1.827265739440918,-0.00015318323858082294
1733851592641968400,0.852968505859375,0.38074401021003723,-1.815991759300232,0.017110757529735565
1733851592651936500,0.8629365234375,0.32494693994522095,-1.7987732887268066,0.05500611662864685
1733851592661905400,0.872905517578125,0.2586059868335724,-1.7911465167999268,0.09765903651714325
1733851592671874600,0.88287451171875,0.21116748452186584,-1.7487272024154663,0.1362111121416092
1733851592681842700,0.8928427734375,0.18073473870754242,-1.6312370300292969,0.16871844232082367
1733851592691811600,0.9028115234375,0.16159005463123322,-1.4419678449630737,0.2038974016904831
1733851592701780500,0.912780517578125,0.13490810990333557,-1.229169487953186,0.23678584396839142
1733851592711748600,0.92274853515625,0.08174329996109009,-1.0608279705047607,0.2597059905529022
1733851592721717500,0.932717529296875,0.02423899620771408,-0.9438521862030029,0.2784072458744049
1733851592731686700,0.942686767578125,-0.00474317092448473,-0.8620808720588684,0.2998979687690735
1733851592741654500,0.952654541015625,-0.01597052440047264,-0.8044367432594299,0.31906792521476746
1733851592751623700,0.962623779296875,-0.007987543940544128,-0.7631003260612488,0.3255774676799774
1733851592761592600,0.972592529296875,-0.001088625518605113,-0.7298667430877686,0.31942877173423767
1733851592771560700,0.982560791015625,-0.011189980432391167,-0.7253662347793579,0.3035832941532135
1733851592781529600,0.992529541015625,-0.02125380001962185,-0.744423508644104,0.2732517719268799
1733851592791498800,1.002498779296875,-0.01975059136748314,-0.7602707743644714,0.22578319907188416
1733851592801466400,1.01246630859375,-0.016946548596024513,-0.7919333577156067,0.16957852244377136
1733851592811435500,1.022435546875,-0.015658222138881683,-0.8474142551422119,0.11356211453676224
1733851592821404400,1.032404296875,-0.013906660489737988,-0.9014982581138611,0.0629950761795044
1733851592831372500,1.04237255859375,-0.01808197982609272,-0.933617889881134,0.016951072961091995
1733851592841341400,1.052341552734375,-0.021669525653123856,-0.9344817996025085,-0.03360850736498833
1733851592851310600,1.062310546875,-0.012394949793815613,-0.9113740921020508,-0.0815260112285614
1733851592861278500,1.072278564453125,0.01009890716522932,-0.8681224584579468,-0.11008148640394211
1733851592871247600,1.08224755859375,0.03498261421918869,-0.8082844614982605,-0.11146071553230286
1733851592881216500,1.092216552734375,0.06831952929496765,-0.7333281636238098,-0.08875540643930435
1733851592891184600,1.1021845703125,0.10452807694673538,-0.6221718788146973,-0.0660749152302742
1733851592901153500,1.112153564453125,0.13446733355522156,-0.47168222069740295,-0.05674906075000763
1733851592911122700,1.122122802734375,0.1329573690891266,-0.32864275574684143,-0.06590370088815689
1733851592921090600,1.132090576171875,0.08621568977832794,-0.22498291730880737,-0.09325063228607178
1733851592931059700,1.142059814453125,0.011236891150474548,-0.1489264965057373,-0.11590734124183655
1733851592941028600,1.152028564453125,-0.07262072712182999,-0.0823754295706749,-0.1215503141283989
1733851592950996700,1.161996826171875,-0.1309281885623932,-0.011959541589021683,-0.10650933533906937
1733851592960965600,1.171965576171875,-0.1462821066379547,0.0881556048989296,-0.07624916732311249
1733851592970934500,1.1819345703125,-0.1307026594877243,0.22420324385166168,-0.04139275103807449
1733851592980902700,1.191902587890625,-0.10217754542827606,0.36430177092552185,-0.009647607803344727
1733851592990871600,1.20187158203125,-0.07412993907928467,0.4726976454257965,0.009485731832683086
1733851593000840700,1.2118408203125,-0.052927978336811066,0.5697882771492004,0.010142733342945576
1733851593010808600,1.22180859375,-0.056635886430740356,0.6278249621391296,-0.007826865650713444
1733851593020777500,1.231777587890625,-0.08844813704490662,0.6266472935676575,-0.03359108418226242
1733851593030746400,1.241746337890625,-0.1306058168411255,0.5920258164405823,-0.06452202796936035
1733851593040714500,1.251714599609375,-0.16113175451755524,0.5651827454566956,-0.09842327237129211
1733851593050683400,1.261683349609375,-0.15952861309051514,0.5585590600967407,-0.12251682579517365
1733851593060652500,1.271652587890625,-0.1261506825685501,0.5833933353424072,-0.12841998040676117
1733851593070620400,1.281620361328125,-0.0689798966050148,0.6480352282524109,-0.11617237329483032
1733851593080589600,1.291589599609375,0.0073705390095710754,0.7443758845329285,-0.09254667162895203
1733851593090558500,1.301558349609375,0.07669048756361008,0.8347516059875488,-0.08295796066522598
1733851593100526600,1.311526611328125,0.08812476694583893,0.8704206347465515,-0.10021897405385971
1733851593110495500,1.32149560546875,0.019731370732188225,0.8485831618309021,-0.13599230349063873
1733851593120464600,1.331464599609375,-0.10862340033054352,0.8669366240501404,-0.16850045323371887
1733851593130432500,1.3414326171875,-0.24792277812957764,0.9723355174064636,-0.18004952371120453
1733851593140401700,1.351401611328125,-0.35590410232543945,1.124903678894043,-0.16130326688289642
1733851593150370600,1.36137060546875,-0.40418320894241333,1.273455262184143,-0.11918620765209198
1733851593160339000,1.3713388671875,-0.40882164239883423,1.3543930053710938,-0.0635296106338501
1733851593170307800,1.381307861328125,-0.3926115036010742,1.365774393081665,-0.005826503504067659
1733851593180277000,1.391277099609375,-0.37164896726608276,1.343291163444519,0.028217483311891556
1733851593190244900,1.401244873046875,-0.36292150616645813,1.3146196603775024,0.020951049402356148
1733851593200214000,1.411214111328125,-0.37544557452201843,1.2967075109481812,-0.03837592527270317
1733851593210183000,1.421182861328125,-0.41222888231277466,1.3385001420974731,-0.13234369456768036
1733851593220151000,1.431151123046875,-0.46368274092674255,1.455519199371338,-0.22234149277210236
1733851593230120000,1.441119873046875,-0.5252516865730286,1.6038824319839478,-0.28234750032424927
1733851593240088800,1.4510888671875,-0.5812414288520813,1.726392149925232,-0.28884828090667725
1733851593250057000,1.461056884765625,-0.6255119442939758,1.8146110773086548,-0.26003915071487427
1733851593260025900,1.47102587890625,-0.6576129198074341,1.8776841163635254,-0.21607835590839386
1733851593269995000,1.4809951171875,-0.6834471225738525,1.9243626594543457,-0.15932044386863708
1733851593279963100,1.490963134765625,-0.7057990431785583,1.9779037237167358,-0.08705450594425201
1733851593289932000,1.50093212890625,-0.7290521860122681,2.0245556831359863,-0.020608697086572647
1733851593299901000,1.51090087890625,-0.745714008808136,2.04300594329834,0.01376285869628191
1733851593309869000,1.520869140625,-0.7615422010421753,2.037498712539673,-0.007521826773881912
1733851593319838000,1.530837890625,-0.764864444732666,2.0248961448669434,-0.08022771775722504
1733851593329807000,1.54080712890625,-0.7455278635025024,2.014481782913208,-0.18568706512451172
1733851593339774700,1.550774658203125,-0.7111507058143616,2.0207409858703613,-0.28709039092063904
1733851593349743900,1.560743896484375,-0.674633800983429,2.0199778079986572,-0.36064934730529785
1733851593359712800,1.570712646484375,-0.6420082449913025,1.9830100536346436,-0.3843224346637726
1733851593369682000,1.580681884765625,-0.6125149130821228,1.8844375610351562,-0.3512617349624634
1733851593379649800,1.59064990234375,-0.5694409608840942,1.7522398233413696,-0.2720036506652832
1733851593389619000,1.600618896484375,-0.5112965703010559,1.656525731086731,-0.1744801253080368
1733851593399586800,1.6105869140625,-0.46234259009361267,1.6368380784988403,-0.10521424561738968
1733851593409556000,1.620555908203125,-0.43734580278396606,1.656787395477295,-0.07137762755155563
1733851593419524900,1.63052490234375,-0.4327071011066437,1.6772031784057617,-0.07646985352039337
1733851593429494000,1.640493896484375,-0.4158838093280792,1.7157554626464844,-0.11837588995695114
1733851593439462000,1.6504619140625,-0.3939787745475769,1.7131320238113403,-0.15934330224990845
1733851593449431000,1.66043115234375,-0.3815803825855255,1.6277391910552979,-0.16746631264686584
1733851593459400000,1.67039990234375,-0.38367947936058044,1.525036334991455,-0.14236308634281158
1733851593469368000,1.6803681640625,-0.39787572622299194,1.458318829536438,-0.08475231379270554
1733851593479337000,1.6903369140625,-0.42929330468177795,1.42066490650177,0.0032145578879863024
1733851593489305900,1.700305908203125,-0.48936158418655396,1.3714714050292969,0.08943713456392288
1733851593499274000,1.71027392578125,-0.55824214220047,1.3026162385940552,0.1600777506828308
1733851593509243100,1.7202431640625,-0.6139838099479675,1.1660020351409912,0.23471254110336304
1733851593519212000,1.7302119140625,-0.6218763589859009,0.9691188931465149,0.3149738311767578
1733851593529180200,1.74018017578125,-0.5669225454330444,0.8175147175788879,0.36852627992630005
1733851593539149000,1.750149169921875,-0.4572403132915497,0.8338730335235596,0.3546028435230255
1733851593549118000,1.760117919921875,-0.31533825397491455,0.9608299732208252,0.28613659739494324
1733851593559085800,1.7700859375,-0.18685325980186462,1.0176907777786255,0.2177407592535019
1733851593569054700,1.7800546875,-0.12880590558052063,0.9287034869194031,0.1738053560256958
1733851593579024000,1.79002392578125,-0.1448003202676773,0.7642261385917664,0.14510419964790344
1733851593588992000,1.799991943359375,-0.21752779185771942,0.6276448965072632,0.10018977522850037
1733851593598961000,1.8099609375,-0.30993443727493286,0.5488113760948181,0.04139037802815437
1733851593608929800,1.8199296875,-0.36827245354652405,0.45671024918556213,0.007131771184504032
1733851593618898000,1.82989794921875,-0.3700905740261078,0.39346843957901,0.006308321375399828
1733851593628866800,1.83986669921875,-0.3242308497428894,0.4340929687023163,0.024484043940901756
1733851593638836000,1.8498359375,-0.25153589248657227,0.6021019816398621,0.017660226672887802
1733851593648803800,1.859803955078125,-0.18180134892463684,0.7719874382019043,-0.023104406893253326
1733851593658773000,1.86977294921875,-0.1431114822626114,0.7866795659065247,-0.08010218292474747
1733851593668742000,1.879741943359375,-0.14130505919456482,0.6558555960655212,-0.15858787298202515
1733851593678710000,1.8897099609375,-0.1391790509223938,0.49906036257743835,-0.27455151081085205
1733851593688679000,1.899678955078125,-0.11559796333312988,0.33757200837135315,-0.39876070618629456
1733851593698648000,1.90964794921875,-0.07317833602428436,0.16793636977672577,-0.47441792488098145
1733851593708616000,1.919615966796875,-0.003572645829990506,0.023660138249397278,-0.4800633490085602
1733851593718585000,1.929585205078125,0.07854565978050232,-0.050367217510938644,-0.43598535656929016
1733851593728554000,1.939553955078125,0.15209828317165375,-0.013377213850617409,-0.3715619742870331
1733851593738522000,1.949522216796875,0.18429777026176453,0.09484725445508957,-0.29181307554244995
1733851593748491000,1.959490966796875,0.14704859256744385,0.2160167694091797,-0.2086721509695053
1733851593758460200,1.969460205078125,0.05581030622124672,0.32091203331947327,-0.13510684669017792
1733851593768427800,1.979427734375,-0.05211395397782326,0.37266263365745544,-0.07055171579122543
1733851593778397000,1.98939697265625,-0.13657744228839874,0.35908636450767517,0.0038913595490157604
1733851593788365800,1.99936572265625,-0.1765192449092865,0.3106915354728699,0.10450173169374466
1733851593798334000,2.009333984375,-0.17318283021450043,0.28274697065353394,0.22037000954151154
1733851593808302800,2.019302734375,-0.13479818403720856,0.3054542541503906,0.33494406938552856
1733851593818272000,2.02927197265625,-0.08264388889074326,0.36091750860214233,0.41438350081443787
1733851593828240000,2.039239990234375,-0.04652104899287224,0.42084214091300964,0.43429893255233765
1733851593838209000,2.049208984375,-0.033615369349718094,0.4388544261455536,0.38704752922058105
1733851593848178000,2.059177978515625,-0.037575896829366684,0.4011112153530121,0.27189546823501587
1733851593858146000,2.06914599609375,-0.038910139352083206,0.3101125955581665,0.12294913083314896
1733851593868115000,2.079114990234375,-0.0032735986169427633,0.13408826291561127,-0.02939441427588463
1733851593878083800,2.089083740234375,0.0859750509262085,-0.10230403393507004,-0.16319401562213898
1733851593888052000,2.099052001953125,0.19499945640563965,-0.3355617821216583,-0.27168840169906616
1733851593898020900,2.109020751953125,0.28272581100463867,-0.4847363531589508,-0.35521844029426575
1733851593907990000,2.118989990234375,0.3286779522895813,-0.537071943283081,-0.40784645080566406
1733851593917958100,2.128958251953125,0.32561424374580383,-0.5569769740104675,-0.41038230061531067
1733851593927927000,2.138927001953125,0.2956562340259552,-0.551950991153717,-0.39509934186935425
1733851593937896000,2.14889599609375,0.27030906081199646,-0.537915825843811,-0.3894481062889099
1733851593947864000,2.158864013671875,0.2636008560657501,-0.5512369275093079,-0.4096510410308838
1733851593957833000,2.1688330078125,0.276537150144577,-0.6017669439315796,-0.4472258388996124
1733851593967802000,2.178802001953125,0.3019546568393707,-0.6781284809112549,-0.48554450273513794
1733851593977769700,2.188769775390625,0.3349970281124115,-0.7760211825370789,-0.4971313774585724
1733851593987739000,2.19873876953125,0.36828163266181946,-0.8609068989753723,-0.48357832431793213
1733851593997707800,2.208707763671875,0.3974885046482086,-0.8863850831985474,-0.45320069789886475
1733851594007676000,2.218676025390625,0.4173230528831482,-0.8544966578483582,-0.40308013558387756
1733851594017644800,2.228644775390625,0.40807467699050903,-0.7768284678459167,-0.3330672085285187
1733851594027614000,2.238614013671875,0.37895873188972473,-0.6868631839752197,-0.24559743702411652
1733851594037581800,2.248581787109375,0.3344045579433441,-0.6158609390258789,-0.1494045853614807
1733851594047551000,2.258551025390625,0.29359737038612366,-0.5729748606681824,-0.06221747398376465
1733851594057519900,2.268519775390625,0.28009408712387085,-0.5615986585617065,0.007891038432717323
1733851594067488000,2.278488037109375,0.29743847250938416,-0.5930372476577759,0.05799921229481697
1733851594077457000,2.288456787109375,0.33356744050979614,-0.6475252509117126,0.08682446926832199
1733851594087426000,2.298426025390625,0.3743104934692383,-0.6929128766059875,0.08916929364204407
1733851594097394000,2.308393798828125,0.40598586201667786,-0.7118819952011108,0.06707357615232468
1733851594107363000,2.318363037109375,0.43421658873558044,-0.7378494143486023,0.03048265539109707
1733851594117332000,2.32833203125,0.4453400671482086,-0.7844550013542175,-0.0064569865353405476
1733851594127300000,2.338300048828125,0.4543724060058594,-0.8491439819335938,-0.05216392129659653
1733851594137269000,2.34826904296875,0.46082526445388794,-0.9250696301460266,-0.09448394179344177
1733851594147238100,2.358238037109375,0.4633314907550812,-1.0137195587158203,-0.13029970228672028
1733851594157205200,2.368205322265625,0.45706212520599365,-1.1184382438659668,-0.15015916526317596
1733851594167174400,2.37817431640625,0.44672781229019165,-1.232264518737793,-0.158800408244133
1733851594177143300,2.388143310546875,0.43197229504585266,-1.3246937990188599,-0.1564973145723343
1733851594187111400,2.398111328125,0.40600812435150146,-1.3767621517181396,-0.14486965537071228
1733851594197080300,2.408080322265625,0.36493659019470215,-1.3953968286514282,-0.12284212559461594
1733851594207049500,2.418049560546875,0.3178085386753082,-1.4085092544555664,-0.0967458188533783
1733851594217017300,2.428017333984375,0.2797165513038635,-1.4157451391220093,-0.07354436069726944
1733851594226986500,2.437986572265625,0.26956087350845337,-1.4262710809707642,-0.058135513216257095
1733851594236955400,2.447955322265625,0.2919439375400543,-1.448778510093689,-0.047072477638721466
1733851594246923500,2.457923583984375,0.337043821811676,-1.483759880065918,-0.04231754690408707
1733851594256892400,2.467892333984375,0.3970629572868347,-1.5067107677459717,-0.04136360436677933
1733851594266861300,2.477861328125,0.4607216715812683,-1.5033035278320312,-0.03650131821632385
1733851594276829200,2.4878291015625,0.5039751529693604,-1.459996223449707,-0.017176887020468712
1733851594286798300,2.49779833984375,0.5056720972061157,-1.395766258239746,0.02814331278204918
1733851594296767500,2.507767578125,0.4548989236354828,-1.3609532117843628,0.11047227680683136
1733851594306735400,2.5177353515625,0.36796295642852783,-1.4130795001983643,0.20412024855613708
1733851594316704300,2.527704345703125,0.2743387222290039,-1.5558236837387085,0.27539655566215515
1733851594326673200,2.537673095703125,0.2007962018251419,-1.74453866481781,0.29987096786499023
1733851594336641300,2.547641357421875,0.15820932388305664,-1.9303381443023682,0.28345924615859985
1733851594346610400,2.5576103515625,0.1554841548204422,-2.091087579727173,0.24588029086589813
1733851594356579300,2.567579345703125,0.17217952013015747,-2.196328639984131,0.21349039673805237
1733851594366547500,2.57754736328125,0.1838495135307312,-2.213726043701172,0.202695831656456
1733851594376516400,2.587516357421875,0.19471627473831177,-2.1320583820343018,0.2085084468126297
1733851594386485200,2.5974853515625,0.21021462976932526,-1.9570890665054321,0.2261846363544464
1733851594396453400,2.607453369140625,0.20264485478401184,-1.759551763534546,0.2663365602493286
1733851594406422300,2.61742236328125,0.1661052256822586,-1.64696204662323,0.3110484480857849
1733851594416391400,2.627391357421875,0.10785255581140518,-1.636658787727356,0.34621068835258484
1733851594426359300,2.637359375,0.06333888322114944,-1.6743654012680054,0.34787046909332275
1733851594436328400,2.647328369140625,0.04784674197435379,-1.6986430883407593,0.3222966492176056
1733851594446297300,2.65729736328125,0.07038657367229462,-1.6887168884277344,0.2880583703517914
1733851594456265500,2.667265380859375,0.11957675963640213,-1.622255563735962,0.2651381492614746
1733851594466234400,2.677234375,0.1801198571920395,-1.519912838935852,0.25172948837280273
1733851594476203500,2.68720361328125,0.2273411750793457,-1.428762674331665,0.2492663413286209
1733851594486171100,2.697171142578125,0.2505069077014923,-1.3826404809951782,0.2442370504140854
1733851594496140300,2.707140380859375,0.25012049078941345,-1.3937400579452515,0.2315167337656021
1733851594506109400,2.717109375,0.2349918782711029,-1.4642592668533325,0.20725101232528687
1733851594516077300,2.727077392578125,0.21597078442573547,-1.5722569227218628,0.17401769757270813
1733851594526046200,2.737046142578125,0.19192734360694885,-1.6599622964859009,0.13958077132701874
1733851594536014300,2.747014404296875,0.17704133689403534,-1.6797170639038086,0.1154317706823349
1733851594545983200,2.756983154296875,0.1702241748571396,-1.6338506937026978,0.11731521785259247
1733851594555952400,2.766952392578125,0.15927831828594208,-1.5612584352493286,0.14163440465927124
1733851594565920300,2.776920166015625,0.13607795536518097,-1.4872671365737915,0.1736403852701187
1733851594575889400,2.786889404296875,0.1114455834031105,-1.4065991640090942,0.1797424852848053
1733851594585858300,2.7968583984375,0.09049008786678314,-1.3159314393997192,0.16409863531589508
1733851594595826400,2.806826416015625,0.08508840203285217,-1.2001707553863525,0.12516427040100098
1733851594605795300,2.81679541015625,0.09634801000356674,-1.0751127004623413,0.08535285294055939
1733851594615764500,2.826764404296875,0.11478986591100693,-0.9647589921951294,0.06851980835199356
1733851594625732400,2.836732421875,0.14357079565525055,-0.861420214176178,0.07578455656766891
1733851594635701500,2.846701416015625,0.16056948900222778,-0.7660199403762817,0.09504959732294083
1733851594645670400,2.85667041015625,0.16067075729370117,-0.6919465065002441,0.11048112064599991
1733851594655638500,2.866638427734375,0.15193451941013336,-0.6234502196311951,0.11129258573055267
1733851594665607400,2.876607421875,0.14868324995040894,-0.5367893576622009,0.09910379350185394
1733851594675576600,2.88657666015625,0.1329367756843567,-0.43271011114120483,0.07101409882307053
1733851594685544200,2.896544189453125,0.10241740942001343,-0.3449362814426422,0.03496040403842926
1733851594695513300,2.906513427734375,0.06272459030151367,-0.2905513346195221,-0.011834799312055111
1733851594705482200,2.916482177734375,0.026857545599341393,-0.2537035346031189,-0.05828927084803581
1733851594715450400,2.926450439453125,0.0012943961191922426,-0.21190308034420013,-0.0929710865020752
1733851594725419300,2.936419189453125,-0.011422835290431976,-0.16224144399166107,-0.10775889456272125
1733851594735388200,2.94638818359375,-0.0014996308600530028,-0.09425122290849686,-0.09925328940153122
1733851594745356300,2.956356201171875,0.02575385384261608,-0.0009496544953435659,-0.07255913317203522
1733851594755325400,2.966325439453125,0.05118517950177193,0.1067882627248764,-0.037995029240846634
1733851594765294300,2.97629443359375,0.06780622899532318,0.203940287232399,-0.010565681383013725
1733851594775262500,2.986262451171875,0.07442737370729446,0.2936272919178009,0.0035125871654599905
1733851594785231400,2.9962314453125,0.0650583803653717,0.37984463572502136,0.00040807900950312614
1733851594795200300,3.0062001953125,0.03409300372004509,0.4642511308193207,-0.008483683690428734
1733851594805168400,3.01616845703125,-0.013184276409447193,0.5425863862037659,-0.0207376666367054
1733851594815137300,3.02613720703125,-0.0619526132941246,0.6003252863883972,-0.025474632158875465
1733851594825106400,3.0361064453125,-0.07365360110998154,0.6387127637863159,-0.014459091238677502
1733851594835074300,3.04607421875,-0.04219688102602959,0.6964293122291565,0.009499505162239075
1733851594845043500,3.05604345703125,0.00638479832559824,0.7905125617980957,0.04076444357633591
1733851594855012400,3.066012451171875,0.050203386694192886,0.8876752853393555,0.06265562772750854
1733851594864980500,3.07598046875,0.086894191801548,0.9703283905982971,0.0635276809334755
1733851594874949400,3.085949462890625,0.1042872965335846,1.0483144521713257,0.04683205857872963
1733851594884918500,3.09591845703125,0.10809933394193649,1.1254783868789673,0.0119348568841815
1733851594894886100,3.10588623046875,0.08826544135808945,1.1990550756454468,-0.04123355448246002
1733851594904855300,3.115855224609375,0.02854030765593052,1.2686105966567993,-0.11103823035955429
1733851594914824200,3.12582421875,-0.07698291540145874,1.3275015354156494,-0.1952364593744278
1733851594924792300,3.135792236328125,-0.20752054452896118,1.346447467803955,-0.26529473066329956
1733851594934761200,3.14576123046875,-0.3213328719139099,1.3606958389282227,-0.3080906867980957
1733851594944730400,3.15573046875,-0.3855554163455963,1.433300256729126,-0.32962003350257874
1733851594954698200,3.1656982421875,-0.3960123062133789,1.5386241674423218,-0.3273145258426666
1733851594964667400,3.17566748046875,-0.3654896020889282,1.642641305923462,-0.30432623624801636
1733851594974636300,3.18563623046875,-0.3167409598827362,1.7176681756973267,-0.270801305770874
1733851594984604400,3.1956044921875,-0.25360313057899475,1.7873083353042603,-0.23243261873722076
1733851594994573300,3.2055732421875,-0.1983603537082672,1.876019835472107,-0.1941281110048294
1733851595004542500,3.21554248046875,-0.17117416858673096,1.9824227094650269,-0.1583629548549652
1733851595014510300,3.22551025390625,-0.19970327615737915,2.071560859680176,-0.13220059871673584
1733851595024479500,3.2354794921875,-0.2791425585746765,2.1421749591827393,-0.1273324191570282
1733851595034448400,3.245448486328125,-0.41282445192337036,2.1709117889404297,-0.12723654508590698
1733851595044416500,3.25541650390625,-0.586432695388794,2.176464796066284,-0.11558335274457932
1733851595054385400,3.265385498046875,-0.7601770758628845,2.1802098751068115,-0.08320862799882889
1733851595064354300,3.275354248046875,-0.8798235654830933,2.2074782848358154,-0.034159865230321884
1733851595074322400,3.285322509765625,-0.9166162014007568,2.266873598098755,0.01725991629064083
1733851595084291600,3.29529150390625,-0.8977568745613098,2.3083598613739014,0.04345082491636276
1733851595094260500,3.305260498046875,-0.8435444831848145,2.2880215644836426,0.022124499082565308
1733851595104228400,3.315228271484375,-0.7688307762145996,2.231245517730713,-0.054663993418216705
1733851595114197200,3.325197265625,-0.6718339323997498,2.1952834129333496,-0.17004863917827606
1733851595124166100,3.335166259765625,-0.5388514995574951,2.2462024688720703,-0.3084668219089508
1733851595134134300,3.34513427734375,-0.40083131194114685,2.33400821685791,-0.4284595549106598
1733851595144103200,3.355103271484375,-0.30708014965057373,2.404448986053467,-0.48348212242126465
1733851595154073000,3.365072998046875,-0.27838167548179626,2.446012258529663,-0.45783373713493347
1733851595164041000,3.375041015625,-0.302080363035202,2.4420666694641113,-0.37866079807281494
1733851595174010000,3.385010009765625,-0.3499498963356018,2.346250534057617,-0.27534613013267517
1733851595183979000,3.39497900390625,-0.40558040142059326,2.097125291824341,-0.17447705566883087
1733851595193947100,3.404947021484375,-0.44423937797546387,1.7390904426574707,-0.08892033249139786
1733851595203916000,3.414916015625,-0.4564812481403351,1.4761929512023926,-0.021091148257255554
1733851595213885200,3.42488525390625,-0.4623977243900299,1.4092192649841309,0.013763771392405033
1733851595223853000,3.43485302734375,-0.4718908369541168,1.4746233224868774,0.0009217810584232211
1733851595233822200,3.444822265625,-0.49261847138404846,1.5925785303115845,-0.04756426066160202
1733851595243791000,3.454791015625,-0.5364325642585754,1.6939212083816528,-0.09619249403476715
1733851595253759200,3.46475927734375,-0.5999830365180969,1.7404690980911255,-0.12286298722028732
1733851595263728000,3.47472802734375,-0.6742883920669556,1.7119375467300415,-0.10389281809329987
1733851595273697000,3.484697021484375,-0.7297348380088806,1.6168906688690186,-0.03322477638721466
1733851595283665200,3.4946650390625,-0.7521036863327026,1.4463187456130981,0.06346414238214493
1733851595293634300,3.50463427734375,-0.7379676699638367,1.2335875034332275,0.16047030687332153
1733851595303603200,3.514603271484375,-0.6896209120750427,1.019045114517212,0.23832440376281738
1733851595313571300,3.5245712890625,-0.6003482937812805,0.8548774123191833,0.27751198410987854
1733851595323540200,3.534540283203125,-0.481784850358963,0.8468219041824341,0.25269168615341187
1733851595333509000,3.544509033203125,-0.3492065668106079,0.9487394690513611,0.17995944619178772
1733851595343477000,3.55447705078125,-0.22022400796413422,1.0095696449279785,0.09664701670408249
1733851595353446000,3.56444580078125,-0.11050310730934143,0.970344603061676,0.016462698578834534
1733851595363415000,3.5744150390625,-0.03457048535346985,0.8669233322143555,-0.061161745339632034
1733851595373383200,3.584383056640625,-0.01074637658894062,0.7243081331253052,-0.12690161168575287
1733851595383352000,3.59435205078125,-0.05652908235788345,0.5639888048171997,-0.1580556333065033
1733851595393321000,3.604321044921875,-0.14970563352108002,0.44140028953552246,-0.14852392673492432
1733851595403289000,3.6142890625,-0.2443116009235382,0.3780977129936218,-0.09912561625242233
1733851595413258000,3.624258056640625,-0.311649888753891,0.3885501027107239,-0.0102476691827178
1733851595423227100,3.63422705078125,-0.349384069442749,0.4755696654319763,0.10923483967781067
1733851595433195000,3.644195068359375,-0.36651647090911865,0.6434929370880127,0.23954783380031586
1733851595443164200,3.6541640625,-0.37066030502319336,0.8654488921165466,0.3212050795555115
1733851595453133000,3.664133056640625,-0.3718845546245575,1.0253664255142212,0.33564049005508423
1733851595463101200,3.67410107421875,-0.39136749505996704,1.0294758081436157,0.31531503796577454
1733851595473070000,3.684070068359375,-0.42885440587997437,0.9597659111022949,0.2621830999851227
1733851595483039200,3.694039306640625,-0.4621475040912628,0.8788483738899231,0.17412690818309784
1733851595493007000,3.704007080078125,-0.4677492082118988,0.7523226141929626,0.08094263076782227
1733851595502976300,3.713976318359375,-0.4418694078922272,0.5773870348930359,-0.014146331697702408
1733851595512945200,3.723945068359375,-0.38860803842544556,0.4122183322906494,-0.09572827816009521
1733851595522913300,3.733913330078125,-0.3098843991756439,0.2967607080936432,-0.15496549010276794
1733851595532882200,3.743882080078125,-0.21354588866233826,0.22334986925125122,-0.17955870926380157
1733851595542850000,3.75385009765625,-0.12621891498565674,0.1760825365781784,-0.15200704336166382
1733851595552819000,3.76381884765625,-0.08507974445819855,0.1603698879480362,-0.08991837501525879
1733851595562788000,3.7737880859375,-0.07822421193122864,0.18198056519031525,-0.03591664135456085
1733851595572757000,3.783757080078125,-0.08559424430131912,0.18794257938861847,-0.012815847061574459
1733851595582725000,3.79372509765625,-0.09777180105447769,0.11635230481624603,-0.017712516710162163
1733851595592694000,3.803694091796875,-0.09956490993499756,0.00847031082957983,-0.0361703522503376
1733851595602662100,3.813662109375,-0.08361020684242249,-0.06084620952606201,-0.05813866853713989
1733851595612631000,3.823631103515625,-0.047385893762111664,-0.0764470100402832,-0.06658328324556351
1733851595622600200,3.83360009765625,-0.005618433468043804,-0.10519056022167206,-0.04112602397799492
1733851595632568000,3.843568115234375,0.02428273856639862,-0.1265009045600891,0.00031915376894176006
1733851595642537200,3.853537109375,0.04194934293627739,-0.13564443588256836,0.030616194009780884
1733851595652506000,3.863506103515625,0.06610075384378433,-0.1444597691297531,0.020918292924761772
1733851595662474200,3.87347412109375,0.10830766707658768,-0.16691838204860687,-0.04128824546933174
1733851595672443100,3.883443115234375,0.1617400050163269,-0.2023291140794754,-0.14306706190109253
1733851595682412000,3.893412109375,0.21650226414203644,-0.2778157591819763,-0.2671307921409607
1733851595692380200,3.903380126953125,0.2610521614551544,-0.39410510659217834,-0.3915368914604187
1733851595702349300,3.913349365234375,0.2914918065071106,-0.5250660181045532,-0.5012279152870178
1733851595712318200,3.923318115234375,0.30765774846076965,-0.6483179330825806,-0.5793864130973816
1733851595722286300,3.933286376953125,0.3109930455684662,-0.7428743839263916,-0.6144996285438538
1733851595732255200,3.943255126953125,0.3102244436740875,-0.7573587894439697,-0.6063151955604553
1733851595742224100,3.95322412109375,0.31100574135780334,-0.7251100540161133,-0.5466927289962769
1733851595752192000,3.96319189453125,0.32316866517066956,-0.6887834668159485,-0.44410431385040283
1733851595762161000,3.973160888671875,0.34697622060775757,-0.6354895234107971,-0.32750484347343445
1733851595772130000,3.983130126953125,0.3764052093029022,-0.5656963586807251,-0.21610401570796967
1733851595782098200,3.99309814453125,0.3862909972667694,-0.5095912218093872,-0.11585567891597748
1733851595792067000,4.003067138671875,0.3652666509151459,-0.488383948802948,-0.03961284086108208
1733851595802036000,4.013035888671875,0.32299384474754333,-0.49667471647262573,0.008253127336502075
1733851595812004000,4.023004150390625,0.27783143520355225,-0.5277021527290344,0.03892049193382263
1733851595821973000,4.032972900390625,0.25485336780548096,-0.5644158124923706,0.0615411102771759
1733851595831942100,4.042942138671875,0.2704315483570099,-0.603680431842804,0.07889719307422638
1733851595841910000,4.052909912109375,0.32083314657211304,-0.648396372795105,0.08821776509284973
1733851595851879200,4.062879150390625,0.3793979287147522,-0.678818941116333,0.09253980964422226
1733851595861848000,4.07284814453125,0.42228588461875916,-0.6938449740409851,0.08222807943820953
1733851595871816200,4.082816162109375,0.455845445394516,-0.7164970636367798,0.06267808377742767
1733851595881785000,4.09278515625,0.4755503833293915,-0.7726835608482361,0.040203746408224106
1733851595891754200,4.102754150390625,0.481182724237442,-0.8719486594200134,0.022256970405578613
1733851595901722000,4.11272216796875,0.4792548716068268,-0.9731456637382507,0.0008249339880421758
1733851595911691300,4.122691162109375,0.47749558091163635,-1.040671467781067,-0.022466806694865227
1733851595921660200,4.13266015625,0.4850246012210846,-1.081740379333496,-0.03441014140844345
1733851595931628000,4.1426279296875,0.4972245395183563,-1.10056734085083,-0.03182793781161308
1733851595941597200,4.15259716796875,0.5002453923225403,-1.111838698387146,-0.008071128278970718
1733851595951566300,4.16256640625,0.4945979118347168,-1.1358758211135864,0.03299747779965401
1733851595961534000,4.172533935546875,0.4754815697669983,-1.1790354251861572,0.07994643598794937
1733851595971503000,4.182503173828125,0.4446837306022644,-1.2216417789459229,0.12049013376235962
1733851595981472000,4.192471923828125,0.4024847447872162,-1.2869188785552979,0.15153218805789948
1733851595991440100,4.202440185546875,0.3658199608325958,-1.382180094718933,0.17160683870315552
1733851596001409000,4.212408935546875,0.3431200683116913,-1.4868547916412354,0.18031863868236542
1733851596011378200,4.222378173828125,0.3542105555534363,-1.5530582666397095,0.17454864084720612
1733851596021346000,4.232345947265625,0.3885478973388672,-1.5836067199707031,0.1732766330242157
1733851596031315200,4.242315185546875,0.43090787529945374,-1.5871840715408325,0.19262637197971344
1733851596041284000,4.2522841796875,0.4670279026031494,-1.5709962844848633,0.23400166630744934
1733851596051252200,4.262252197265625,0.47545814514160156,-1.5487256050109863,0.29457712173461914
1733851596061221000,4.27222119140625,0.4709246754646301,-1.5309960842132568,0.3611687421798706
1733851596071190000,4.28218994140625,0.4734501540660858,-1.531493067741394,0.4145132005214691
1733851596081158100,4.292158203125,0.4860921800136566,-1.5688936710357666,0.45041632652282715
1733851596091127000,4.302126953125,0.4793463945388794,-1.6494114398956299,0.4707239866256714
1733851596101096200,4.31209619140625,0.43402254581451416,-1.7437418699264526,0.47071054577827454
1733851596111064300,4.322064208984375,0.35307738184928894,-1.8320374488830566,0.44859778881073
1733851596121033200,4.332033203125,0.25050559639930725,-1.8870491981506348,0.4076017141342163
1733851596131001000,4.3420009765625,0.16055865585803986,-1.8728654384613037,0.3528527021408081
1733851596140970000,4.351969970703125,0.12021858990192413,-1.7933769226074219,0.3185056447982788
1733851596150939100,4.361939208984375,0.11467123031616211,-1.6926255226135254,0.32617342472076416
1733851596160907500,4.371907470703125,0.13202862441539764,-1.576347827911377,0.3651522099971771
1733851596170875600,4.381875732421875,0.15240873396396637,-1.4620414972305298,0.42101600766181946
1733851596180844500,4.391844482421875,0.15802523493766785,-1.3894052505493164,0.4758851230144501
1733851596190812700,4.401812744140625,0.14073705673217773,-1.3633520603179932,0.5128601789474487
1733851596200781600,4.411781494140625,0.12129184603691101,-1.352612018585205,0.5129587054252625
1733851596210750500,4.42175048828125,0.1094258651137352,-1.3401916027069092,0.4786856770515442
1733851596220718600,4.431718505859375,0.09148942679166794,-1.3981863260269165,0.4200313985347748
1733851596230687700,4.441687744140625,0.09417815506458282,-1.547003149986267,0.3471966087818146
1733851596240656600,4.45165673828125,0.1260644793510437,-1.7179689407348633,0.26116955280303955
1733851596250624800,4.461624755859375,0.17135021090507507,-1.8444904088974,0.17679184675216675
1733851596260593700,4.47159375,0.2184818983078003,-1.9259833097457886,0.121515654027462
1733851596270562600,4.4815625,0.2549096941947937,-1.9765788316726685,0.10095391422510147
1733851596280530400,4.491530517578125,0.2794998288154602,-1.9842816591262817,0.10518062114715576
1733851596290499300,4.501499267578125,0.28820890188217163,-1.9613134860992432,0.11615177989006042
1733851596300468700,4.51146875,0.2727908790111542,-1.9287676811218262,0.11751379817724228
1733851596310436600,4.5214365234375,0.22477273643016815,-1.8701581954956055,0.1137523502111435
1733851596320405500,4.531405517578125,0.16850101947784424,-1.7844009399414062,0.1175469234585762
1733851596330374400,4.54137451171875,0.11967701464891434,-1.642155408859253,0.12945471704006195
1733851596340342500,4.551342529296875,0.07498294860124588,-1.4625303745269775,0.15846765041351318
1733851596350311400,4.5613115234375,0.02267926186323166,-1.2830793857574463,0.21012099087238312
1733851596360280600,4.571280517578125,-0.0395953468978405,-1.107997179031372,0.2798444330692291
1733851596370248400,4.58124853515625,-0.10567875951528549,-0.9485049247741699,0.35534584522247314
1733851596380217600,4.591217529296875,-0.16818471252918243,-0.7968641519546509,0.41419926285743713
1733851596390186500,4.6011865234375,-0.21124377846717834,-0.6583489179611206,0.44127270579338074
1733851596400154600,4.611154541015625,-0.2301262468099594,-0.5363895893096924,0.4428148567676544
1733851596410123500,4.62112353515625,-0.23305653035640717,-0.4381743371486664,0.41755104064941406
1733851596420092700,4.6310927734375,-0.21874858438968658,-0.34986743330955505,0.3832189440727234
1733851596430060500,4.641060546875,-0.1899281144142151,-0.2805056869983673,0.33688342571258545
1733851596440029700,4.65102978515625,-0.13329757750034332,-0.23533950746059418,0.2798610329627991
1733851596449998600,4.66099853515625,-0.04354770481586456,-0.19378939270973206,0.2220102697610855
1733851596459966700,4.670966796875,0.05078146606683731,-0.17789067327976227,0.1607002466917038
1733851596469935600,4.680935546875,0.1243709921836853,-0.1828548163175583,0.10380074381828308
1733851596479904800,4.69090478515625,0.19816318154335022,-0.19485102593898773,0.041577234864234924
1733851596489872400,4.700872314453125,0.2618952691555023,-0.23472175002098083,-0.012079604901373386
1733851596499841500,4.710841552734375,0.29236388206481934,-0.28075698018074036,-0.0576191321015358
1733851596509810400,4.720810546875,0.2912120819091797,-0.30956998467445374,-0.10236130654811859
1733851596519778600,4.730778564453125,0.2622734606266022,-0.30702531337738037,-0.14616157114505768
1733851596529747500,4.74074755859375,0.22268982231616974,-0.27963656187057495,-0.17806437611579895
1733851596539715600,4.750715576171875,0.19286133348941803,-0.20559123158454895,-0.18623118102550507
1733851596549684500,4.7606845703125,0.19825157523155212,-0.09883096069097519,-0.1797325313091278
1733851596559653600,4.770653564453125,0.22906051576137543,0.004384531639516354,-0.16919229924678802
1733851596569621500,4.78062158203125,0.2662193179130554,0.08845626562833786,-0.161200150847435
1733851596579590700,4.790590576171875,0.30552294850349426,0.1852511614561081,-0.1504717916250229
1733851596589559600,4.8005595703125,0.3285827338695526,0.2914324402809143,-0.14074884355068207
1733851596599527700,4.810527587890625,0.3158682584762573,0.4066142439842224,-0.13543978333473206
1733851596609496600,4.82049658203125,0.2796572744846344,0.5415787100791931,-0.12635360658168793
1733851596619465500,4.830465576171875,0.22252194583415985,0.6646864414215088,-0.10682449489831924
1733851596629433600,4.84043359375,0.16711167991161346,0.7631611227989197,-0.08432478457689285
1733851596639402800,4.85040283203125,0.11663688719272614,0.8380768299102783,-0.07093700021505356
1733851596649371600,4.86037158203125,0.07371418923139572,0.9109611511230469,-0.0655084103345871
1733851596659339800,4.87033984375,0.03934917226433754,0.9740792512893677,-0.0668846145272255
1733851596669308700,4.88030859375,0.015491509810090065,1.005305290222168,-0.07628291100263596
1733851596679277600,4.890277587890625,0.007987802848219872,1.0248357057571411,-0.08991848677396774
1733851596689245400,4.900245361328125,0.005855942144989967,1.0670640468597412,-0.1073017343878746
1733851596699214300,4.91021435546875,-0.00850597396492958,1.1365820169448853,-0.12494999915361404
1733851596709183500,4.92018359375,-0.019613752141594887,1.2184052467346191,-0.13761040568351746
1733851596719151600,4.930151611328125,-0.023344701156020164,1.3046399354934692,-0.14954490959644318
1733851596729120500,4.94012060546875,-0.01964556984603405,1.3935387134552002,-0.1613408476114273
1733851596739089400,4.95008935546875,-0.022287018597126007,1.4700744152069092,-0.17710818350315094
1733851596749057500,4.9600576171875,-0.04625893011689186,1.5254985094070435,-0.18553975224494934
1733851596759026400,4.9700263671875,-0.09713435173034668,1.5620840787887573,-0.18698650598526
1733851596768995600,4.97999560546875,-0.16217060387134552,1.5912288427352905,-0.1869622766971588
1733851596778963500,4.98996337890625,-0.23302629590034485,1.620250940322876,-0.17820893228054047
1733851596788932600,4.9999326171875,-0.3003094792366028,1.6576392650604248,-0.16280654072761536
1733851596798901500,5.009901611328125,-0.3565142750740051,1.700197696685791,-0.1383472979068756
1733851596808869600,5.01986962890625,-0.40363144874572754,1.7440407276153564,-0.11188212782144547
1733851596818838500,5.029838623046875,-0.4403226375579834,1.7889831066131592,-0.09256841242313385
1733851596828807700,5.0398076171875,-0.46382102370262146,1.8589584827423096,-0.0806259959936142
1733851596838775600,5.049775634765625,-0.4656640887260437,1.9704326391220093,-0.08337801694869995
1733851596848744700,5.05974462890625,-0.4495631456375122,2.1093218326568604,-0.09946510940790176
1733851596858713600,5.069713623046875,-0.4150061309337616,2.2306149005889893,-0.13119423389434814
1733851596868681700,5.079681640625,-0.38723814487457275,2.289797306060791,-0.15355387330055237
1733851596878650600,5.089650634765625,-0.38890302181243896,2.336017370223999,-0.15912966430187225
1733851596888619800,5.099619873046875,-0.4212891757488251,2.4150617122650146,-0.14560720324516296
1733851596898587400,5.10958740234375,-0.46787330508232117,2.5352656841278076,-0.11581188440322876
1733851596908556500,5.119556640625,-0.5088081955909729,2.683232307434082,-0.08039051294326782
1733851596918524400,5.1295244140625,-0.5292482376098633,2.8137097358703613,-0.05771804228425026
1733851596928493600,5.13949365234375,-0.5089677572250366,2.6646289825439453,-0.054378438740968704
1733851596938462500,5.14946240234375,-0.4453476369380951,1.7508087158203125,-0.05707746371626854
1733851596948430600,5.1594306640625,-0.3633989691734314,0.7626070976257324,-0.023272361606359482
1733851596958399500,5.1693994140625,-0.27443933486938477,0.5050631165504456,-0.03643709048628807
1733851596968368600,5.17936865234375,-0.21449609100818634,0.7647202610969543,-0.12205958366394043
1733851596978336500,5.18933642578125,-0.17570586502552032,1.1979656219482422,-0.2152220755815506
1733851596988305700,5.1993056640625,-0.15110784769058228,1.5678638219833374,-0.27890437841415405
1733851596998274600,5.209274658203125,-0.14541639387607574,1.719942331314087,-0.3145937919616699
1733851597008242700,5.21924267578125,-0.15554280579090118,1.5580321550369263,-0.31198203563690186
1733851597018211600,5.229211669921875,-0.17180272936820984,1.1872066259384155,-0.28185388445854187
1733851597028180500,5.239180419921875,-0.18247534334659576,0.9022829532623291,-0.266634464263916
1733851597038148600,5.249148681640625,-0.1771950125694275,0.8019834160804749,-0.30556970834732056
1733851597048117800,5.25911767578125,-0.14071103930473328,0.7329489588737488,-0.3713250458240509
1733851597058086700,5.269086669921875,-0.08110585063695908,0.5576571822166443,-0.4145815670490265
1733851597068054800,5.2790546875,-0.005628401413559914,0.32397863268852234,-0.4132460057735443
1733851597078023700,5.289023681640625,0.08431023359298706,0.15727463364601135,-0.3725319802761078
1733851597087992600,5.29899267578125,0.1742638349533081,0.1587228626012802,-0.302024245262146
1733851597097960400,5.30896044921875,0.24209415912628174,0.3417564034461975,-0.2019241750240326
1733851597107929300,5.318929443359375,0.2471296638250351,0.6297836303710938,-0.08440206199884415
1733851597117898500,5.3288984375,0.18389573693275452,0.8634358048439026,0.03765403479337692
1733851597127866600,5.33886669921875,0.061290208250284195,0.896567702293396,0.14767161011695862
1733851597137835500,5.34883544921875,-0.08171932399272919,0.8148306608200073,0.2242760807275772
1733851597147804400,5.358804443359375,-0.2176433503627777,0.7666612863540649,0.26578837633132935
1733851597157772500,5.3687724609375,-0.335005521774292,0.7993183135986328,0.2991945743560791
1733851597167741400,5.378741455078125,-0.4214583933353424,0.9238786697387695,0.33879444003105164
1733851597177710600,5.388710693359375,-0.4731532633304596,1.1286365985870361,0.38406044244766235
1733851597187678500,5.398678466796875,-0.5000725388526917,1.2448902130126953,0.43738865852355957
1733851597197647400,5.4086474609375,-0.5151976346969604,1.2161357402801514,0.47559207677841187
1733851597207615500,5.418615478515625,-0.5100292563438416,1.185368537902832,0.45428466796875
1733851597217584400,5.42858447265625,-0.5078077912330627,1.1322215795516968,0.37766334414482117
1733851597227553300,5.43855322265625,-0.5048543810844421,1.0238416194915771,0.28291767835617065
1733851597237521400,5.448521484375,-0.49513083696365356,0.8729112148284912,0.21259211003780365
1733851597247490300,5.458490234375,-0.4708552956581116,0.6936583518981934,0.192747563123703
1733851597257459500,5.46845947265625,-0.4254676401615143,0.5481308698654175,0.21593813598155975
1733851597267427300,5.47842724609375,-0.3738632798194885,0.4509414732456207,0.25866642594337463
1733851597277396500,5.488396484375,-0.3352643549442291,0.4816040098667145,0.27212104201316833
1733851597287365400,5.498365478515625,-0.3331308960914612,0.5847455859184265,0.23528046905994415
1733851597297333500,5.50833349609375,-0.38426512479782104,0.6106418967247009,0.15827006101608276
1733851597307302400,5.518302490234375,-0.44890961050987244,0.5103715062141418,0.04584285616874695
1733851597317271600,5.528271484375,-0.4603792428970337,0.3122330904006958,-0.08335950970649719
1733851597327239400,5.538239501953125,-0.3841736614704132,0.08595388382673264,-0.20828360319137573
1733851597337208600,5.54820849609375,-0.2401542067527771,-0.12180180847644806,-0.3215900659561157
1733851597347177500,5.558177490234375,-0.06961708515882492,-0.2975821793079376,-0.42352786660194397
1733851597357145600,5.5681455078125,0.07967866957187653,-0.4465821087360382,-0.516424298286438
1733851597367114500,5.578114501953125,0.17741720378398895,-0.5602402091026306,-0.6113806366920471
1733851597377083600,5.588083740234375,0.2244376838207245,-0.6288319826126099,-0.700567901134491
1733851597387051300,5.59805126953125,0.23298056423664093,-0.6762210726737976,-0.7700462937355042
1733851597397020400,5.6080205078125,0.21676886081695557,-0.7115435600280762,-0.8129732608795166
1733851597406989300,5.6179892578125,0.19741781055927277,-0.7347458004951477,-0.8294801115989685
1733851597416957400,5.62795751953125,0.17477251589298248,-0.725578784942627,-0.8084371089935303
1733851597426926300,5.63792626953125,0.15180648863315582,-0.718403160572052,-0.7314245700836182
1733851597436895500,5.6478955078125,0.12704576551914215,-0.6947139501571655,-0.6119256615638733
1733851597446863400,5.65786328125,0.10056808590888977,-0.6392027735710144,-0.47070249915122986
1733851597456832500,5.66783251953125,0.08937681466341019,-0.5390004515647888,-0.3427189290523529
1733851597466800400,5.67780029296875,0.09424347430467606,-0.4077122211456299,-0.23206032812595367
1733851597476769500,5.68776953125,0.10853999108076096,-0.28722837567329407,-0.1341712921857834
1733851597486738400,5.697738525390625,0.12312585115432739,-0.21698538959026337,-0.043467745184898376
1733851597496706600,5.70770654296875,0.1273854523897171,-0.19389961659908295,0.03555214777588844
1733851597506675500,5.717675537109375,0.11684812605381012,-0.1799611747264862,0.09829728305339813
1733851597516644400,5.727644287109375,0.09331323206424713,-0.1837662011384964,0.14429546892642975
1733851597526612500,5.737612548828125,0.08004909008741379,-0.22045977413654327,0.1786196082830429
1733851597536581600,5.74758154296875,0.08338694274425507,-0.2626935839653015,0.20438389480113983
1733851597546550500,5.757550537109375,0.10756231844425201,-0.2974158823490143,0.21885257959365845
1733851597556518700,5.7675185546875,0.1332673877477646,-0.3243855834007263,0.2289673089981079
1733851597566487600,5.777487548828125,0.15087246894836426,-0.3258090317249298,0.22676540911197662
1733851597576456400,5.78745654296875,0.15768060088157654,-0.3089480996131897,0.23000702261924744
1733851597586424300,5.79742431640625,0.13896790146827698,-0.32343462109565735,0.2520068883895874
1733851597596393500,5.8073935546875,0.10934421420097351,-0.38060975074768066,0.28632134199142456
1733851597606362400,5.8173623046875,0.0913364514708519,-0.43855321407318115,0.3199695944786072
1733851597616330500,5.82733056640625,0.10223866999149323,-0.46835920214653015,0.3473394811153412
1733851597626299400,5.83729931640625,0.14492115378379822,-0.49667447805404663,0.3707239031791687
1733851597636268300,5.847268310546875,0.20794302225112915,-0.572195827960968,0.38600707054138184
1733851597646236400,5.857236328125,0.279238224029541,-0.6833559274673462,0.38390955328941345
1733851597656205300,5.867205322265625,0.3490872383117676,-0.7701523900032043,0.3619038462638855
1733851597666173400,5.87717333984375,0.4023091793060303,-0.8246526122093201,0.3255847096443176
1733851597676142300,5.887142333984375,0.4357272982597351,-0.8706384897232056,0.27775630354881287
1733851597686111500,5.897111572265625,0.4557763636112213,-0.9324089288711548,0.22045199573040009
1733851597696079600,5.90707958984375,0.4793173372745514,-1.008094072341919,0.15476396679878235
1733851597706048500,5.917048583984375,0.5180783271789551,-1.0955365896224976,0.09421434253454208
1733851597716017400,5.927017333984375,0.5701152086257935,-1.2217761278152466,0.05120467022061348
1733851597725985500,5.936985595703125,0.627239465713501,-1.424095630645752,0.022236401215195656
1733851597735954400,5.946954345703125,0.6766003370285034,-1.6457968950271606,-0.004737510811537504
1733851597745923600,5.956923583984375,0.7098690867424011,-1.797237515449524,-0.04448705539107323
1733851597755891200,5.96689111328125,0.7286477088928223,-1.8399916887283325,-0.09565407037734985
1733851597765860600,5.976860595703125,0.7318727970123291,-1.8095275163650513,-0.14421042799949646
1733851597775829500,5.98682958984375,0.7318393588066101,-1.78036630153656,-0.17425425350666046
1733851597785797400,5.99679736328125,0.7279101014137268,-1.7544937133789062,-0.18238568305969238
1733851597795766300,6.006766357421875,0.7176977396011353,-1.7209707498550415,-0.17269927263259888
1733851597805735400,6.0167353515625,0.6971152424812317,-1.679163932800293,-0.15150129795074463
1733851597815703300,6.026703369140625,0.657563328742981,-1.6936250925064087,-0.12532314658164978
1733851597825672400,6.03667236328125,0.5879752039909363,-1.8385777473449707,-0.09231512248516083
1733851597835641300,6.046641357421875,0.5041598677635193,-2.086695909500122,-0.0688164234161377
1733851597845609500,6.056609375,0.4382956326007843,-2.316570281982422,-0.06799750030040741
1733851597855578400,6.066578369140625,0.4114270508289337,-2.489048719406128,-0.08235304057598114
1733851597865547500,6.076547607421875,0.4150468111038208,-2.6363205909729004,-0.09166744351387024
1733851597875515400,6.086515380859375,0.4560970067977905,-2.7147703170776367,-0.09385226666927338
1733851597885484500,6.096484619140625,0.5223774909973145,-2.708216905593872,-0.08824817836284637
1733851597895453400,6.106453369140625,0.5633243918418884,-2.637573003768921,-0.0687454342842102
1733851597905421600,6.116421630859375,0.5461928248405457,-2.5576188564300537,-0.03729217126965523
1733851597915390500,6.126390380859375,0.47043377161026,-2.535604476928711,-0.003216522978618741
1733851597925358600,6.136358642578125,0.3596497178077698,-2.5858941078186035,0.024005243554711342
1733851597935327500,6.146327392578125,0.23988473415374756,-2.6325912475585938,0.027700230479240417
1733851597945296600,6.156296630859375,0.13726568222045898,-2.65535306930542,0.008960632607340813
1733851597955264300,6.16626416015625,0.06968329846858978,-2.6199183464050293,-0.00940118357539177
1733851597965233400,6.1762333984375,0.06094786524772644,-2.4840660095214844,-0.013450785540044308
1733851597975202300,6.186202392578125,0.10710439831018448,-2.2444632053375244,-0.00818609818816185
1733851597985170400,6.19617041015625,0.15448470413684845,-1.989579439163208,0.015608713030815125
1733851597995139300,6.206139404296875,0.1847524791955948,-1.8399616479873657,0.048258859664201736
1733851598005108500,6.2161083984375,0.18145309388637543,-1.806226372718811,0.0801273062825203
1733851598015076400,6.226076416015625,0.15764839947223663,-1.816004991531372,0.1099008247256279
1733851598025045500,6.23604541015625,0.12700553238391876,-1.8348630666732788,0.136241614818573
1733851598035014400,6.246014404296875,0.10069575905799866,-1.8703752756118774,0.1586800217628479
1733851598044982500,6.255982421875,0.07675260305404663,-1.8558474779129028,0.16611211001873016
1733851598054951400,6.265951416015625,0.049321528524160385,-1.7730956077575684,0.16037201881408691
1733851598064920300,6.27592041015625,0.018471205607056618,-1.6787011623382568,0.14972470700740814
1733851598074888400,6.285888427734375,-0.01247470360249281,-1.6120637655258179,0.13408692181110382
1733851598084857300,6.295857421875,-0.05174781009554863,-1.5899401903152466,0.12172452360391617
1733851598094825500,6.305825439453125,-0.1049942746758461,-1.605185627937317,0.1080407053232193
1733851598104794600,6.315794677734375,-0.15846681594848633,-1.6290775537490845,0.08279687166213989
1733851598114763500,6.325763427734375,-0.19296406209468842,-1.6355645656585693,0.04754696786403656
1733851598124731600,6.335731689453125,-0.18904522061347961,-1.6077542304992676,0.016387715935707092
1733851598134700500,6.345700439453125,-0.1500919759273529,-1.5548183917999268,-0.0014923885464668274
1733851598144669400,6.35566943359375,-0.08026789873838425,-1.487330436706543,-0.0060341437347233295
1733851598154637300,6.36563720703125,0.013334011659026146,-1.409525990486145,0.006871204823255539
1733851598164606200,6.375606201171875,0.11107148975133896,-1.3233472108840942,0.026231054216623306
1733851598174575400,6.385575439453125,0.1850719153881073,-1.2368777990341187,0.02809748612344265
1733851598184543500,6.39554345703125,0.2196839600801468,-1.1533722877502441,0.001489046378992498
1733851598194512400,6.405512451171875,0.20771917700767517,-1.0798951387405396,-0.04755564033985138
1733851598204481300,6.415481201171875,0.15985871851444244,-1.021515965461731,-0.11343452334403992
1733851598214449400,6.425449462890625,0.11568298935890198,-0.993564784526825,-0.16219496726989746
1733851598224418300,6.435418212890625,0.10637284070253372,-0.9591748714447021,-0.1801779568195343
1733851598234387500,6.445387451171875,0.12902146577835083,-0.872773289680481,-0.14303088188171387
1733851598244355300,6.455355224609375,0.14795520901679993,-0.7321106791496277,-0.06860964745283127
1733851598254324200,6.46532421875,0.1319511979818344,-0.5603397488594055,0.006730648688971996
1733851598264293400,6.47529345703125,0.08565028756856918,-0.38558870553970337,0.057292092591524124
1733851598274261200,6.48526123046875,0.03505402430891991,-0.20871716737747192,0.06441694498062134
1733851598284230100,6.495230224609375,-0.0043993741273880005,-0.050249770283699036,0.029062414541840553
1733851598294198300,6.5051982421875,-0.041895944625139236,0.07816726714372635,-0.014166289009153843
1733851598304167200,6.515167236328125,-0.06478794664144516,0.1768973022699356,-0.03127949684858322
1733851598314136300,6.52513623046875,-0.060076285153627396,0.2673918604850769,-0.011641286313533783
1733851598324104200,6.535104248046875,-0.040877554565668106,0.34649521112442017,0.01773950643837452
1733851598334073300,6.5450732421875,-0.022929318249225616,0.41146838665008545,0.042457133531570435
1733851598344042200,6.555042236328125,0.00004870234988629818,0.4713248014450073,0.047331783920526505
1733851598354010400,6.56501025390625,0.027210531756281853,0.5381895899772644,0.023452991619706154
1733851598363979300,6.574979248046875,0.04797040671110153,0.59702068567276,-0.01989368349313736
1733851598373948400,6.584948486328125,0.042796168476343155,0.6680698394775391,-0.07109206169843674
1733851598383916300,6.594916259765625,0.020770225673913956,0.734207272529602,-0.10514084249734879
1733851598393885400,6.604885498046875,0.00690090749412775,0.7898233532905579,-0.11183176934719086
1733851598403854300,6.614854248046875,0.008928106166422367,0.8505167961120605,-0.09387567639350891
1733851598413822500,6.624822509765625,0.016124200075864792,0.9227712154388428,-0.06606046855449677
1733851598423791400,6.634791259765625,0.017888011410832405,0.9801969528198242,-0.03625916317105293
1733851598433760500,6.644760498046875,0.01804196462035179,1.0196657180786133,-0.007345724850893021
1733851598443728100,6.65472802734375,0.007145907264202833,1.048150897026062,0.008596489205956459
1733851598453697300,6.664697265625,-0.020085632801055908,1.0723336935043335,0.0057163117453455925
1733851598463665200,6.6746650390625,-0.062135614454746246,1.09778892993927,-0.020517956465482712
1733851598473634300,6.68463427734375,-0.1103135421872139,1.126054048538208,-0.06072869524359703
1733851598483603200,6.694603271484375,-0.14830619096755981,1.1839325428009033,-0.09892428666353226
1733851598493571300,6.7045712890625,-0.17765940725803375,1.2747138738632202,-0.11463922262191772
1733851598503540200,6.714540283203125,-0.195478618144989,1.3910542726516724,-0.10643668472766876
1733851598513509400,6.72450927734375,-0.217124342918396,1.5124597549438477,-0.07059621065855026
1733851598523477200,6.734477294921875,-0.2515403628349304,1.608232855796814,-0.020958086475729942
1733851598533446400,6.7444462890625,-0.307333379983902,1.6694834232330322,0.02778240479528904
1733851598543415300,6.754415283203125,-0.37809276580810547,1.7145930528640747,0.05795256048440933
1733851598553383400,6.764383544921875,-0.44622543454170227,1.7447474002838135,0.06247824430465698
1733851598563352300,6.774352294921875,-0.4883057773113251,1.757910966873169,0.04538421332836151
1733851598573321200,6.7843212890625,-0.49897482991218567,1.7758073806762695,0.014579310081899166
1733851598583289300,6.794289306640625,-0.48391252756118774,1.8301070928573608,-0.01973898336291313
1733851598593258500,6.804258544921875,-0.4551454186439514,1.913535714149475,-0.051795925945043564
1733851598603227400,6.814227294921875,-0.4330683648586273,1.9943196773529053,-0.07426261901855469
1733851598613195500,6.824195556640625,-0.4272524416446686,2.060476779937744,-0.08479195833206177
1733851598623164400,6.834164306640625,-0.4260100722312927,2.1238491535186768,-0.08788495510816574
1733851598633133300,6.84413330078125,-0.4103451073169708,2.178316593170166,-0.0914626494050026
1733851598643101200,6.85410107421875,-0.37397199869155884,2.203111171722412,-0.10309024155139923
1733851598653070300,6.8640703125,-0.3143123388290405,2.2148313522338867,-0.11621423065662384
1733851598663038200,6.8740380859375,-0.2401057630777359,2.2324233055114746,-0.13047680258750916
1733851598673007400,6.88400732421875,-0.18014508485794067,2.262957811355591,-0.1325194090604782
1733851598682976300,6.893976318359375,-0.16169710457324982,2.2994110584259033,-0.12382418662309647
1733851598692944400,6.9039443359375,-0.19020138680934906,2.3301072120666504,-0.10284105688333511
1733851598702913300,6.913913330078125,-0.24611498415470123,2.348334312438965,-0.08799739927053452
1733851598712882200,6.923882080078125,-0.3153766095638275,2.3581881523132324,-0.09051041305065155
1733851598722850300,6.933850341796875,-0.387369304895401,2.3222877979278564,-0.10736769437789917
1733851598732819200,6.943819091796875,-0.4460248351097107,2.250319004058838,-0.13685503602027893
1733851598742788400,6.953788330078125,-0.4759877920150757,2.1641488075256348,-0.17093311250209808
1733851598752756500,6.963756591796875,-0.48317545652389526,2.088867425918579,-0.20397520065307617
1733851598762725400,6.973725341796875,-0.4644734263420105,2.0114827156066895,-0.2254762351512909
1733851598772694300,6.9836943359375,-0.429775208234787,1.9541590213775635,-0.23255228996276855
1733851598782662400,6.993662353515625,-0.3703712522983551,1.9189965724945068,-0.22711731493473053
1733851598792631300,7.00363134765625,-0.29874148964881897,1.8942915201187134,-0.2243683785200119
1733851598802599400,7.013599365234375,-0.23141834139823914,1.8525220155715942,-0.2244112640619278
1733851598812568300,7.023568359375,-0.17833290994167328,1.7661601305007935,-0.23247621953487396
1733851598822537500,7.033537353515625,-0.1408768892288208,1.613984227180481,-0.2514863908290863
1733851598832505300,7.04350537109375,-0.11370742321014404,1.4224849939346313,-0.2855228781700134
1733851598842474200,7.05347412109375,-0.09209347516298294,1.2945480346679688,-0.35149258375167847
1733851598852443100,7.063443115234375,-0.0734337866306305,1.2689625024795532,-0.4440231919288635
1733851598862411300,7.073411376953125,-0.054954104125499725,1.300060510635376,-0.5380860567092896
1733851598872380200,7.083380126953125,-0.03695736452937126,1.3552305698394775,-0.6037058234214783
1733851598882349300,7.093349365234375,-0.028016600757837296,1.389034628868103,-0.6238089799880981
1733851598892317200,7.103317138671875,-0.03235529363155365,1.3242993354797363,-0.5962753295898438
1733851598902286300,7.113286376953125,-0.05565369501709938,1.136130452156067,-0.5215760469436646
1733851598912255200,7.123255126953125,-0.09836440533399582,0.9729272127151489,-0.4231775999069214
1733851598922223400,7.133223388671875,-0.1541088968515396,1.0293313264846802,-0.34950390458106995
1733851598932192300,7.143192138671875,-0.19856303930282593,1.2696515321731567,-0.3047151565551758
1733851598942161400,7.153161376953125,-0.22351393103599548,1.503504991531372,-0.2674093246459961
1733851598952129300,7.16312939453125,-0.2503167688846588,1.5606334209442139,-0.21096527576446533
1733851598962098400,7.173098388671875,-0.27698007225990295,1.4507609605789185,-0.1370396614074707
1733851598972066300,7.18306640625,-0.29001346230506897,1.3003820180892944,-0.06737257540225983
1733851598982035500,7.193035400390625,-0.2821158468723297,1.1863905191421509,-0.016697676852345467
1733851598992004400,7.20300439453125,-0.25657427310943604,1.1154416799545288,0.017474940046668053
1733851599001972200,7.21297216796875,-0.22380858659744263,1.0710806846618652,0.0400172658264637
1733851599011941400,7.22294140625,-0.18420353531837463,1.0583027601242065,0.03829840198159218
1733851599021910500,7.23291064453125,-0.15939459204673767,1.0883318185806274,-0.0009568601381033659
1733851599031878100,7.242878173828125,-0.1520683914422989,1.0702320337295532,-0.05852481722831726
1733851599041847300,7.252847412109375,-0.1592988818883896,0.952364444732666,-0.11592419445514679
1733851599051816200,7.262816162109375,-0.16975054144859314,0.7500060200691223,-0.15037518739700317
1733851599061784300,7.272784423828125,-0.16377520561218262,0.5543656349182129,-0.15858039259910583
1733851599071753200,7.282753173828125,-0.1353205442428589,0.41942256689071655,-0.13693635165691376
1733851599081722400,7.292722412109375,-0.09072351455688477,0.34485647082328796,-0.1038425862789154
1733851599091690200,7.302690185546875,-0.06281396001577377,0.3374383747577667,-0.07878755778074265
1733851599101659400,7.312659423828125,-0.08184677362442017,0.3734741508960724,-0.07225056737661362
1733851599111627300,7.322627197265625,-0.1411607712507248,0.3780955374240875,-0.08363055437803268
1733851599121596400,7.332596435546875,-0.20893822610378265,0.3485826551914215,-0.11582071334123611
1733851599131565300,7.3425654296875,-0.26186373829841614,0.2855139970779419,-0.1480432003736496
1733851599141533400,7.352533447265625,-0.2855730652809143,0.19306500256061554,-0.16139361262321472
1733851599151502300,7.36250244140625,-0.29610171914100647,0.1222403421998024,-0.1421159952878952
1733851599161471200,7.37247119140625,-0.30860498547554016,0.0916222482919693,-0.08386041224002838
1733851599171439000,7.382439208984375,-0.3228543698787689,0.04067937657237053,-0.0020652678795158863
1733851599181408300,7.392408203125,-0.3272946774959564,0.016301333904266357,0.07149364054203033
1733851599191377200,7.402377197265625,-0.3158554434776306,-0.013272146694362164,0.12294067442417145
1733851599201345300,7.41234521484375,-0.28429725766181946,-0.06667305529117584,0.13783305883407593
1733851599211314200,7.422314208984375,-0.23059329390525818,-0.13348175585269928,0.12285184115171432
1733851599221283000,7.432282958984375,-0.16447792947292328,-0.2154887318611145,0.08258111774921417
1733851599231251000,7.4422509765625,-0.08661698549985886,-0.3082417845726013,0.028402183204889297
1733851599241220000,7.45222021484375,-0.01852635107934475,-0.390150785446167,-0.01862684264779091
1733851599251188000,7.46218798828125,0.030253741890192032,-0.46924614906311035,-0.04343007877469063
1733851599261157000,7.4721572265625,0.05592874810099602,-0.5417925119400024,-0.0400843508541584
1733851599271126000,7.4821259765625,0.06588297337293625,-0.5879103541374207,-0.016638588160276413
1733851599281094100,7.49209423828125,0.06279370188713074,-0.5850959420204163,0.02116631343960762
1733851599291063000,7.50206298828125,0.05686497315764427,-0.5521771311759949,0.06341096758842468
1733851599301032200,7.5120322265625,0.06002694368362427,-0.5161402821540833,0.09764271229505539
1733851599311000000,7.522,0.07983064651489258,-0.4847160875797272,0.1198112815618515
1733851599320969200,7.53196923828125,0.11277581006288528,-0.4656531810760498,0.13419315218925476
1733851599330938000,7.541938232421875,0.14560547471046448,-0.47144147753715515,0.14249351620674133
1733851599340906200,7.55190625,0.17784489691257477,-0.49955782294273376,0.15428970754146576
1733851599350875100,7.561875244140625,0.20246443152427673,-0.5513820648193359,0.16697899997234344
1733851599360844000,7.571843994140625,0.20509456098079681,-0.6067180037498474,0.18110202252864838
1733851599370812200,7.581812255859375,0.19202293455600739,-0.6421794295310974,0.19317644834518433
1733851599380781000,7.591781005859375,0.17813614010810852,-0.6706461906433105,0.1995728313922882
1733851599390749200,7.601749267578125,0.18209919333457947,-0.6762577891349792,0.1956237107515335
1733851599400718300,7.61171826171875,0.20438985526561737,-0.6679868102073669,0.18603846430778503
1733851599410687200,7.621687255859375,0.24480709433555603,-0.652019202709198,0.17476363480091095
1733851599420655000,7.631655029296875,0.2864573299884796,-0.6441155076026917,0.1741258054971695
1733851599430624000,7.6416240234375,0.310979425907135,-0.6582908034324646,0.18138159811496735
1733851599440593000,7.651593017578125,0.3222486078739166,-0.696814239025116,0.1935431957244873
1733851599450561000,7.66156103515625,0.3229980170726776,-0.7448686957359314,0.20016492903232574
1733851599460530000,7.671530029296875,0.3091098964214325,-0.8139516115188599,0.2010118067264557
1733851599470499000,7.6814990234375,0.2802187502384186,-0.91605544090271,0.2059066891670227
1733851599480467200,7.69146728515625,0.25451311469078064,-1.0139249563217163,0.21234248578548431
1733851599490436000,7.70143603515625,0.2539081573486328,-1.0877480506896973,0.21549300849437714
1733851599500405000,7.711405029296875,0.29322707653045654,-1.1296168565750122,0.21448208391666412
1733851599510373000,7.721373046875,0.3606230318546295,-1.1353634595870972,0.21316446363925934
1733851599520342000,7.731342041015625,0.43140748143196106,-1.1194734573364258,0.21611976623535156
1733851599530311200,7.741311279296875,0.48128750920295715,-1.0949565172195435,0.2239660769701004
1733851599540279000,7.751279052734375,0.49186399579048157,-1.119552731513977,0.2291528582572937
1733851599550248200,7.761248291015625,0.470906525850296,-1.2465342283248901,0.22116917371749878
1733851599560216000,7.771216064453125,0.4506678283214569,-1.4642093181610107,0.1955799162387848
1733851599570185200,7.781185302734375,0.435199111700058,-1.717867136001587,0.1504344940185547
1733851599580154000,7.791154052734375,0.4376462996006012,-1.9527907371520996,0.09216426312923431
1733851599590122200,7.801122314453125,0.46269693970680237,-2.104902744293213,0.02974882908165455
1733851599600091100,7.811091064453125,0.5063685774803162,-2.1470959186553955,-0.02000221610069275
1733851599610060300,7.821060302734375,0.5505862832069397,-2.1082723140716553,-0.05085577070713043
1733851599620028000,7.83102783203125,0.5634469389915466,-2.1024625301361084,-0.057195425033569336
1733851599629997000,7.8409970703125,0.5493355393409729,-2.2240946292877197,-0.04429039731621742
1733851599639966000,7.850966064453125,0.536099374294281,-2.4671671390533447,-0.03482978418469429
1733851599649934000,7.86093408203125,0.5366157293319702,-2.729919672012329,-0.047182176262140274
1733851599659903000,7.870903076171875,0.5469528436660767,-2.9652130603790283,-0.07952333986759186
1733851599669871000,7.88087109375,0.5593600869178772,-3.1469993591308594,-0.11582618951797485
1733851599679840000,7.890840087890625,0.5680356025695801,-3.2058634757995605,-0.14689409732818604
1733851599689809200,7.90080908203125,0.5567634105682373,-3.087472438812256,-0.16622552275657654
1733851599699777000,7.910777099609375,0.5164748430252075,-2.877516984939575,-0.1567728966474533
1733851599709746200,7.92074609375,0.43348655104637146,-2.6547975540161133,-0.12184345722198486
1733851599719715000,7.930715087890625,0.3013487458229065,-2.424283027648926,-0.07842247933149338
1733851599729683200,7.94068310546875,0.14075851440429688,-2.2012321949005127,-0.0326886884868145
1733851599739652000,7.950652099609375,-0.01697358675301075,-2.0265696048736572,0.010836414992809296
1733851599749621200,7.960621337890625,-0.14717097580432892,-1.9068621397018433,0.05756441503763199
1733851599759589000,7.970589111328125,-0.2078779935836792,-1.8135817050933838,0.10423258692026138
1733851599769558300,7.980558349609375,-0.1955578327178955,-1.6858974695205688,0.1464225947856903
1733851599779527200,7.990527099609375,-0.15604345500469208,-1.5472087860107422,0.18508370220661163
1733851599789495000,8.0004951171875,-0.12151288241147995,-1.459165334701538,0.21539215743541718
1733851599799464200,8.010464111328124,-0.09626825153827667,-1.4325076341629028,0.23741836845874786
1733851599809432000,8.02043212890625,-0.09084907174110413,-1.4603878259658813,0.24213911592960358
1733851599819401000,8.03040087890625,-0.12293855845928192,-1.5432465076446533,0.22417797148227692
1733851599829370000,8.0403701171875,-0.1804959923028946,-1.6709229946136475,0.1926029622554779
1733851599839338000,8.050337890625,-0.24858184158802032,-1.8001763820648193,0.15522363781929016
1733851599849307100,8.06030712890625,-0.29333096742630005,-1.9100748300552368,0.12347247451543808
1733851599859276000,8.070276123046876,-0.3012123107910156,-1.9641956090927124,0.1116885170340538
1733851599869244200,8.080244140625,-0.27784213423728943,-1.9897205829620361,0.12376237660646439
1733851599879213000,8.090213134765625,-0.22485215961933136,-2.016615629196167,0.15103662014007568
1733851599889182200,8.10018212890625,-0.15782813727855682,-2.025304079055786,0.17726652324199677
1733851599899150000,8.110150146484376,-0.10132251679897308,-2.0029823780059814,0.19083106517791748
1733851599909119200,8.120119140625,-0.07058379054069519,-1.9765156507492065,0.17568372189998627
1733851599919087000,8.130087158203125,-0.062027860432863235,-1.9543938636779785,0.12988853454589844
1733851599929056300,8.14005615234375,-0.059325411915779114,-1.9227964878082275,0.056918155401945114
1733851599939025200,8.150025146484374,-0.0574292428791523,-1.8452380895614624,0.004266129806637764
1733851599948993300,8.1599931640625,-0.05721333622932434,-1.7066682577133179,-0.014087659306824207
1733851599958962200,8.169962158203125,-0.05703570321202278,-1.5442737340927124,-0.002071743132546544
1733851599968931000,8.17993115234375,-0.052684810012578964,-1.366758942604065,0.028828611597418785
1733851599978899000,8.18989892578125,-0.03783848509192467,-1.1901735067367554,0.060236603021621704
1733851599988868000,8.1998681640625,-0.02453574724495411,-1.0558935403823853,0.08128879964351654
1733851599998837000,8.2098369140625,-0.0270705446600914,-0.9849162697792053,0.08330294489860535
1733851600008805000,8.21980517578125,-0.031564872711896896,-0.9507154822349548,0.06481371819972992
1733851600018774000,8.22977392578125,-0.02545158565044403,-0.9108626246452332,0.03619592264294624
1733851600028743000,8.239742919921875,-0.008533289656043053,-0.8367526531219482,0.01554195862263441
1733851600038711000,8.2497109375,0.012705952860414982,-0.7117212414741516,0.025414828211069107
1733851600048680200,8.25968017578125,0.03475676849484444,-0.5526670217514038,0.06296645849943161
1733851600058648000,8.26964794921875,0.04644005373120308,-0.39099186658859253,0.10731501877307892
1733851600068617200,8.2796171875,0.022612113505601883,-0.24213777482509613,0.12133923172950745
1733851600078586000,8.289586181640624,-0.027733881026506424,-0.13927024602890015,0.09873032569885254
1733851600088554200,8.29955419921875,-0.059882115572690964,-0.09659866988658905,0.05243626609444618
1733851600098523100,8.309523193359375,-0.04390261694788933,-0.07961169630289078,0.02179180271923542
1733851600108492000,8.319491943359376,0.008510125800967216,-0.043239083141088486,0.027401721104979515
1733851600118460200,8.329460205078124,0.07877709716558456,0.020248278975486755,0.06077006459236145
1733851600128429000,8.339428955078125,0.15161782503128052,0.1141100525856018,0.09866899996995926
1733851600138397200,8.349397216796875,0.2045273780822754,0.23871669173240662,0.11625971645116806
1733851600148366300,8.359366455078124,0.22032713890075684,0.3808394968509674,0.09925392270088196
1733851600158335200,8.369335205078125,0.19416823983192444,0.5228855609893799,0.05558367446064949
1733851600168303400,8.379303466796875,0.1470026671886444,0.653328537940979,-0.013689366169273853
1733851600178272300,8.389272216796876,0.10121706128120422,0.7498279213905334,-0.0876685231924057
1733851600188241200,8.3992412109375,0.08177560567855835,0.8065899610519409,-0.13077197968959808
1733851600198209300,8.409209228515625,0.09076431393623352,0.8385095596313477,-0.12207862734794617
1733851600208178200,8.41917822265625,0.11506373435258865,0.849191427230835,-0.06170397996902466
1733851600218147300,8.429147216796874,0.13322409987449646,0.8602925539016724,0.02367057465016842
1733851600228115200,8.439115234375,0.1289268285036087,0.8721962571144104,0.09791571646928787
1733851600238084400,8.44908447265625,0.09628419578075409,0.912642776966095,0.12573111057281494
1733851600248053200,8.45905322265625,0.0375799834728241,0.9904864430427551,0.09522160142660141
1733851600258021400,8.469021484375,-0.037756580859422684,1.0789330005645752,0.023307200521230698
1733851600267990300,8.478990234375,-0.10022326558828354,1.1483745574951172,-0.06407323479652405
1733851600277958400,8.48895849609375,-0.1291973888874054,1.20487642288208,-0.13356922566890717
1733851600287927300,8.49892724609375,-0.11435811221599579,1.2768975496292114,-0.16153064370155334
1733851600297896400,8.508896484375,-0.05775315687060356,1.3706789016723633,-0.14213722944259644
1733851600307864300,8.5188642578125,0.018230203539133072,1.4759970903396606,-0.08560680598020554
1733851600317833500,8.52883349609375,0.07878143340349197,1.5626153945922852,-0.006863257847726345
1733851600327802400,8.53880224609375,0.092566579580307,1.6235811710357666,0.0703544020652771
1733851600337770200,8.548770263671875,0.04607817530632019,1.6504594087600708,0.13295146822929382
1733851600347739100,8.5587392578125,-0.04255065694451332,1.6585530042648315,0.16132111847400665
1733851600357708300,8.568708251953124,-0.14805950224399567,1.6783421039581299,0.14648012816905975
1733851600367676200,8.57867626953125,-0.2612141966819763,1.7269240617752075,0.09670501202344894
1733851600377645300,8.588645263671875,-0.3556389808654785,1.7865040302276611,0.032083142548799515
1733851600387614200,8.5986142578125,-0.40525108575820923,1.8416844606399536,-0.01797306537628174
1733851600397582300,8.608582275390624,-0.4165500998497009,1.8856710195541382,-0.04372956231236458
1733851600407551200,8.61855126953125,-0.3858301043510437,1.9207590818405151,-0.051176946610212326
1733851600417519400,8.628519287109375,-0.32791516184806824,1.9623934030532837,-0.04735025018453598
1733851600427488300,8.63848828125,-0.26243335008621216,2.005756378173828,-0.04698246717453003
1733851600437457400,8.64845751953125,-0.214697003364563,2.0257060527801514,-0.04983631148934364
1733851600447425300,8.65842529296875,-0.19763289391994476,2.0162336826324463,-0.057618387043476105
1733851600457394400,8.66839453125,-0.20667138695716858,1.99246084690094,-0.07133526355028152
1733851600467363300,8.67836328125,-0.22800906002521515,1.9594019651412964,-0.09020648896694183
1733851600477331500,8.68833154296875,-0.25333544611930847,1.9494127035140991,-0.11661173403263092
1733851600487300400,8.69830029296875,-0.2885034382343292,1.9729911088943481,-0.14220227301120758
1733851600497269500,8.70826953125,-0.33679401874542236,2.0176470279693604,-0.15517853200435638
1733851600507237400,8.7182373046875,-0.3888678550720215,2.0941226482391357,-0.14455774426460266
1733851600517206500,8.72820654296875,-0.43171679973602295,2.1959595680236816,-0.11645791679620743
1733851600527174100,8.738174072265625,-0.4701995849609375,2.274203300476074,-0.08555397391319275
1733851600537143300,8.748143310546874,-0.5054859519004822,2.3080368041992188,-0.06092292442917824
1733851600547112200,8.7581123046875,-0.5330816507339478,2.312767744064331,-0.052417121827602386
1733851600557080300,8.768080322265625,-0.5603891611099243,2.307549238204956,-0.05242857336997986
1733851600567049200,8.77804931640625,-0.5970921516418457,2.3107028007507324,-0.04391482472419739
1733851600577018400,8.788018310546875,-0.6372163891792297,2.3420777320861816,-0.020692327991127968
1733851600586986200,8.797986328125,-0.6566914319992065,2.423438787460327,0.006687277927994728
1733851600596955400,8.807955322265625,-0.6562360525131226,2.554180145263672,0.023646820336580276
1733851600606923300,8.81792333984375,-0.6541761159896851,2.7206971645355225,0.01754021644592285
1733851600616892400,8.827892333984375,-0.6653065085411072,2.896890163421631,0.0005583027377724648
1733851600626861300,8.837861328125,-0.6881616115570068,3.028079032897949,-0.011025910265743732
1733851600636829400,8.847829345703126,-0.7080929279327393,3.1037068367004395,-0.015963410958647728
1733851600646798300,8.85779833984375,-0.7133811116218567,3.1559829711914062,-0.01847747154533863
1733851600656767500,8.867767578125,-0.7187631130218506,3.196647882461548,-0.004162448458373547
1733851600666735400,8.8777353515625,-0.7333126068115234,3.1725120544433594,0.029803387820720673
1733851600676704500,8.88770458984375,-0.7418376803398132,3.0206570625305176,0.0845332145690918
1733851600686673400,8.89767333984375,-0.7346359491348267,2.663295269012451,0.14620165526866913
1733851600696641300,8.907641357421875,-0.7090522646903992,2.06545352935791,0.2096773087978363
1733851600706610200,8.917610107421876,-0.6791654825210571,1.4553617238998413,0.25954994559288025
1733851600716578300,8.927578369140624,-0.6500440835952759,1.086201548576355,0.27718886733055115
1733851600726547200,8.937547119140625,-0.6213948130607605,0.9461300373077393,0.25957396626472473
1733851600736516400,8.947516357421875,-0.585342288017273,0.9658329486846924,0.2242085337638855
1733851600746484200,8.957484130859376,-0.5454778075218201,1.1011848449707031,0.18917597830295563
1733851600756453400,8.967453369140625,-0.5022752285003662,1.2907592058181763,0.1675844043493271
1733851600766422300,8.97742236328125,-0.4623107612133026,1.439679741859436,0.17687368392944336
1733851600776390400,8.987390380859376,-0.43676307797431946,1.4344990253448486,0.2201862782239914
1733851600786359300,8.997359375,-0.4158657193183899,1.2908490896224976,0.28086933493614197
1733851600796328200,9.007328125,-0.3870497941970825,1.1007941961288452,0.3301074504852295
1733851600806296300,9.01729638671875,-0.3523545563220978,0.9704688191413879,0.3432198464870453
1733851600816265500,9.027265380859374,-0.34442606568336487,0.9037297368049622,0.32852667570114136
1733851600826233300,9.0372333984375,-0.3588937520980835,0.8983047008514404,0.2840282917022705
1733851600836202500,9.047202392578125,-0.380595862865448,0.9443497061729431,0.2173110544681549
1733851600846171400,9.05717138671875,-0.402812659740448,1.019232988357544,0.14197556674480438
1733851600856139500,9.067139404296874,-0.41116008162498474,1.0127439498901367,0.08774934709072113
1733851600866108400,9.0771083984375,-0.3967767655849457,0.9326522350311279,0.03613574057817459
1733851600876077300,9.087077392578125,-0.3543347716331482,0.8189259171485901,-0.0171906016767025
1733851600886045200,9.097045166015626,-0.2828623056411743,0.6731976866722107,-0.05881867557764053
1733851600896014300,9.107014404296875,-0.1967841386795044,0.5073238015174866,-0.07650632411241531
1733851600905983200,9.116983154296875,-0.11721146106719971,0.3703582286834717,-0.07914620637893677
1733851600915951400,9.126951416015626,-0.0647602379322052,0.28864312171936035,-0.07630354166030884
1733851600925920300,9.136920166015624,-0.048332881182432175,0.29069969058036804,-0.07253433763980865
1733851600935889200,9.14688916015625,-0.06822642683982849,0.34074100852012634,-0.057491470128297806
1733851600945857300,9.156857177734375,-0.10771167278289795,0.3587171137332916,-0.027251606807112694
1733851600955826200,9.166826171875,-0.15579824149608612,0.34584659337997437,0.00047775893472135067
1733851600965794300,9.176794189453124,-0.1818893402814865,0.33514368534088135,0.010849295184016228
1733851600975763200,9.18676318359375,-0.16819056868553162,0.27362731099128723,0.015693584457039833
1733851600985732400,9.196732421875,-0.1238192617893219,0.19086012244224548,0.006579003296792507
1733851600995700500,9.206700439453124,-0.061447229236364365,0.1170937642455101,-0.012523318640887737
1733851601005669400,9.21666943359375,0.002402986865490675,0.0409870482981205,-0.035030726343393326
1733851601015638300,9.22663818359375,0.05330584570765495,-0.029332388192415237,-0.054464880377054214
1733851601025606400,9.2366064453125,0.08438895642757416,-0.08457262068986893,-0.07499893754720688
1733851601035575300,9.2465751953125,0.1066785529255867,-0.13087700307369232,-0.09326476603746414
1733851601045543400,9.25654345703125,0.12658418715000153,-0.19749028980731964,-0.10297438502311707
1733851601055512300,9.26651220703125,0.1548994481563568,-0.2597142457962036,-0.10886343568563461
1733851601065481500,9.2764814453125,0.1907520294189453,-0.2973155379295349,-0.11212706565856934
1733851601075449300,9.286449462890625,0.2292592078447342,-0.3572576940059662,-0.09306496381759644
1733851601085418200,9.296418212890625,0.2493753731250763,-0.4254545271396637,-0.05883565545082092
1733851601095387100,9.30638720703125,0.25935080647468567,-0.48143312335014343,-0.025936825200915337
1733851601105355300,9.316355224609374,0.2587786912918091,-0.5156495571136475,-0.008042850531637669
1733851601115324200,9.32632421875,0.25952383875846863,-0.5350069999694824,-0.01976315677165985
1733851601125293300,9.336293212890626,0.266084760427475,-0.5454009771347046,-0.06170253828167915
1733851601135261200,9.34626123046875,0.2907911539077759,-0.5614827871322632,-0.1196739673614502
1733851601145230300,9.356230224609375,0.3313564360141754,-0.6005680561065674,-0.1796349734067917
1733851601155198200,9.3661982421875,0.3819783329963684,-0.6528816223144531,-0.23555922508239746
1733851601165167900,9.37616796875,0.4328386187553406,-0.7211755514144897,-0.2762421667575836
1733851601175136800,9.38613671875,0.4731822907924652,-0.7981030941009521,-0.29981595277786255
1733851601185105000,9.39610498046875,0.49951839447021484,-0.85688716173172,-0.3135720491409302
1733851601195073800,9.40607373046875,0.5203937888145447,-0.8692886829376221,-0.32718801498413086
1733851601205043000,9.41604296875,0.5371544361114502,-0.8498128056526184,-0.33363619446754456
1733851601215010800,9.4260107421875,0.5591307878494263,-0.8249183893203735,-0.31754618883132935
1733851601224980000,9.43597998046875,0.5842208862304688,-0.7876740097999573,-0.2758050858974457
1733851601234948900,9.445948974609376,0.6041303873062134,-0.7620049118995667,-0.20839117467403412
1733851601244917000,9.4559169921875,0.6078681349754333,-0.7872897386550903,-0.12615303695201874
1733851601254886000,9.465885986328125,0.589065670967102,-0.8276494145393372,-0.05562373995780945
1733851601264854000,9.47585400390625,0.5432879328727722,-0.8424685597419739,-0.010514461435377598
1733851601274823000,9.485822998046874,0.48203474283218384,-0.8454264998435974,0.008420614525675774
1733851601284792000,9.4957919921875,0.4287172853946686,-0.8411564826965332,0.004661614075303078
1733851601294759700,9.505759765625,0.4057413935661316,-0.8394211530685425,-0.012487544678151608
1733851601304728800,9.515728759765626,0.4257628917694092,-0.8338280916213989,-0.04101257398724556
1733851601314697700,9.52569775390625,0.48258596658706665,-0.8249427676200867,-0.06629503518342972
1733851601324665900,9.535665771484375,0.5644010305404663,-0.8312346935272217,-0.08688105642795563
1733851601334634800,9.545634765625,0.6454993486404419,-0.86334228515625,-0.09152907133102417
1733851601344603000,9.555602783203126,0.7116144895553589,-0.9433571100234985,-0.08325199037790298
1733851601354571800,9.56557177734375,0.7464345097541809,-1.0444650650024414,-0.07375702261924744
1733851601364541000,9.575541015625,0.7450324892997742,-1.131179928779602,-0.07184256613254547
1733851601374508800,9.5855087890625,0.710605800151825,-1.1903520822525024,-0.07833109050989151
1733851601384478000,9.59547802734375,0.6595411896705627,-1.2713847160339355,-0.09543190896511078
1733851601394446800,9.60544677734375,0.614168643951416,-1.4029009342193604,-0.12307392805814743
1733851601404415000,9.6154150390625,0.6013799905776978,-1.5463930368423462,-0.1567213088274002
1733851601414383900,9.6253837890625,0.619366466999054,-1.657528281211853,-0.18894396722316742
1733851601424352800,9.635352783203125,0.6452673077583313,-1.7148576974868774,-0.20588931441307068
1733851601434321000,9.64532080078125,0.6694767475128174,-1.7098290920257568,-0.2058059573173523
1733851601444290000,9.6552900390625,0.6877853274345398,-1.641546607017517,-0.1986205130815506
1733851601454258000,9.6652578125,0.6945300102233887,-1.538464903831482,-0.18990558385849
1733851601464227000,9.67522705078125,0.6777555346488953,-1.520211935043335,-0.1787649542093277
1733851601474196000,9.685196044921875,0.6415549516677856,-1.6147505044937134,-0.16678471863269806
1733851601484163800,9.695163818359376,0.6097086668014526,-1.747788429260254,-0.15920408070087433
1733851601494132700,9.7051328125,0.5889970064163208,-1.875308632850647,-0.15436431765556335
1733851601504101600,9.7151015625,0.5831476449966431,-1.9639347791671753,-0.15178342163562775
1733851601514069800,9.72506982421875,0.573068380355835,-1.9889037609100342,-0.14024393260478973
1733851601524039000,9.735038818359374,0.5395821928977966,-1.9694995880126953,-0.10637005418539047
1733851601534007800,9.7450078125,0.47482582926750183,-1.9545254707336426,-0.05057390034198761
1733851601543976000,9.754975830078125,0.3859829902648926,-1.992266297340393,0.019192742183804512
1733851601553944800,9.76494482421875,0.2895755171775818,-2.047436237335205,0.08673183619976044
1733851601563913000,9.774912841796874,0.19756852090358734,-2.1100099086761475,0.12484582513570786
1733851601573881900,9.7848818359375,0.10708710551261902,-2.2002146244049072,0.13785749673843384
1733851601583850800,9.794850830078126,0.046352338045835495,-2.2799954414367676,0.1292063593864441
1733851601593819000,9.80481884765625,0.010269437916576862,-2.3204293251037598,0.0967823714017868
1733851601603787800,9.814787841796875,-0.0008986475877463818,-2.3364014625549316,0.05826013162732124
1733851601613757000,9.8247568359375,0.01046905480325222,-2.3366074562072754,0.03175528720021248
1733851601623725000,9.83472509765625,0.034531135112047195,-2.3157474994659424,0.031486641615629196
1733851601633694000,9.84469384765625,0.06876447051763535,-2.230278730392456,0.051278986036777496
1733851601643662000,9.854662109375,0.11072839796543121,-2.0412509441375732,0.07176117599010468
1733851601653631000,9.864630859375,0.13132423162460327,-1.789581298828125,0.08802109956741333
1733851601663599900,9.874599853515624,0.120267853140831,-1.5381258726119995,0.10594625025987625
1733851601673567700,9.884567626953125,0.08619163930416107,-1.3005543947219849,0.12654687464237213
1733851601683536600,9.89453662109375,0.02973279356956482,-1.0999095439910889,0.15948233008384705
1733851601693505800,9.904505859375,-0.03416895866394043,-0.9754673838615417,0.19105997681617737
1733851601703474000,9.914473876953124,-0.07900742441415787,-0.9334427118301392,0.20770733058452606
1733851601713442800,9.92444287109375,-0.08932770788669586,-0.9114686846733093,0.2108706384897232
1733851601723411700,9.93441162109375,-0.066978819668293,-0.8722531199455261,0.19634085893630981
1733851601733379800,9.9443798828125,-0.04623598977923393,-0.8290462493896484,0.1719718724489212
1733851601743348700,9.9543486328125,-0.038345083594322205,-0.8078312277793884,0.1452532857656479
1733851601753316900,9.96431689453125,-0.029973968863487244,-0.8055145144462585,0.1232055202126503
1733851601763285800,9.97428564453125,-0.008424105122685432,-0.8364434242248535,0.10378958284854889
1733851601773255000,9.9842548828125,0.025261953473091125,-0.9017316102981567,0.0850188285112381
1733851601783223000,9.99422314453125,0.06799588352441788,-0.9830635786056519,0.059059739112854004
1733851601793192000,10.00419189453125,0.11764545738697052,-1.0765596628189087,0.016828127205371857
1733851601803160800,10.014160888671874,0.17255185544490814,-1.1632394790649414,-0.03585372492671013
1733851601813129000,10.02412890625,0.22048768401145935,-1.2216846942901611,-0.07677879184484482
1733851601823097900,10.034097900390625,0.25763577222824097,-1.235066294670105,-0.09681970626115799
1733851601833065700,10.044065673828126,0.2996908128261566,-1.1848620176315308,-0.09214027225971222
1733851601843034600,10.05403466796875,0.332609623670578,-1.0689306259155273,-0.0697084367275238
1733851601853003800,10.064003662109375,0.3424609303474426,-0.8992612361907959,-0.042090386152267456
1733851601862972000,10.073971923828125,0.32491517066955566,-0.707552969455719,-0.0328216515481472
1733851601872940800,10.08394091796875,0.27331987023353577,-0.5133509635925293,-0.047456786036491394
1733851601882909700,10.09390966796875,0.19312940537929535,-0.2996189296245575,-0.0705350711941719
1733851601892877800,10.1038779296875,0.1073247566819191,-0.10734429955482483,-0.07720869034528732
1733851601902846700,10.1138466796875,0.03279539570212364,0.03355076164007187,-0.0511041134595871
1733851601912815900,10.12381591796875,-0.0015908086206763983,0.1502843052148819,0.0036075985990464687
1733851601922783700,10.13378369140625,-0.004549540579319,0.24877329170703888,0.05282827094197273
1733851601932753000,10.1437529296875,-0.0010333694517612457,0.3258638083934784,0.0715327188372612
1733851601942720800,10.153720703125,-0.007341389078646898,0.3644450604915619,0.05609787628054619
1733851601952690000,10.16368994140625,-0.021223383024334908,0.3799145519733429,0.010890452191233635
1733851601962658800,10.173658935546875,-0.03359125554561615,0.41200539469718933,-0.0337817408144474
1733851601972627000,10.183626953125,-0.029776543378829956,0.47909122705459595,-0.05369632691144943
1733851601982595800,10.193595947265624,-0.013794046826660633,0.5668048858642578,-0.05536442622542381
1733851601992565000,10.20356494140625,0.007497925311326981,0.6550260782241821,-0.04998110979795456
1733851602002532900,10.213532958984375,0.027154134586453438,0.7276225090026855,-0.04821278527379036
1733851602012502000,10.223501953125,0.035977985709905624,0.792222797870636,-0.05536656826734543
1733851602022469600,10.2334697265625,0.03809428587555885,0.8312615156173706,-0.08040980994701385
1733851602032438800,10.243438720703125,0.02929493598639965,0.8434308171272278,-0.10932161659002304
1733851602042407700,10.25340771484375,0.010366019792854786,0.8499380350112915,-0.1336834877729416
1733851602052375800,10.263375732421874,-0.02038310468196869,0.8772911429405212,-0.14617185294628143
1733851602062344700,10.2733447265625,-0.06030603498220444,0.9408999085426331,-0.15304343402385712
1733851602072313900,10.28331396484375,-0.10025984793901443,1.0335016250610352,-0.14872591197490692
1733851602082281700,10.29328173828125,-0.1323051154613495,1.1204431056976318,-0.12961626052856445
1733851602092251000,10.3032509765625,-0.15307430922985077,1.1919915676116943,-0.10020776838064194
1733851602102218800,10.31321875,-0.15335848927497864,1.2512274980545044,-0.07838138937950134
1733851602112188000,10.32318798828125,-0.127925306558609,1.3016570806503296,-0.07492087781429291
1733851602122156800,10.33315673828125,-0.08935685455799103,1.359389066696167,-0.09529130160808563
1733851602132125000,10.343125,-0.06378278881311417,1.4327166080474854,-0.12836536765098572
1733851602142093800,10.35309375,-0.0509539395570755,1.572850227355957,-0.1539766937494278
1733851602152063000,10.36306298828125,-0.05600782111287117,1.7336345911026,-0.15618951618671417
1733851602162030300,10.3730302734375,-0.08399233967065811,1.8707271814346313,-0.1287245750427246
1733851602171999500,10.38299951171875,-0.13870938122272491,1.9330898523330688,-0.07086527347564697
1733851602181968400,10.392968505859375,-0.20454804599285126,1.9392247200012207,0.00018535018898546696
1733851602191936500,10.4029365234375,-0.26824820041656494,1.943225383758545,0.06159837916493416
1733851602201905400,10.412905517578125,-0.3110261857509613,1.981891393661499,0.08796694874763489
1733851602211873500,10.42287353515625,-0.32720619440078735,2.052110433578491,0.07049048691987991
1733851602221842400,10.432842529296876,-0.3297158181667328,2.1192989349365234,0.02246929332613945
1733851602231811600,10.4428115234375,-0.3370363116264343,2.171351432800293,-0.03769577667117119
1733851602241779200,10.452779296875,-0.35154640674591064,2.235673189163208,-0.09147674590349197
1733851602251748400,10.462748291015625,-0.3767454922199249,2.33872652053833,-0.1261202096939087
1733851602261716500,10.472716552734376,-0.42456522583961487,2.4555647373199463,-0.14474821090698242
1733851602271685400,10.482685302734374,-0.48888349533081055,2.5325968265533447,-0.1475551873445511
1733851602281654300,10.492654296875,-0.5726028680801392,2.5603740215301514,-0.1344296932220459
1733851602291622400,10.502622314453125,-0.6662337779998779,2.5711565017700195,-0.12060841172933578
1733851602301591300,10.51259130859375,-0.7775105834007263,2.6032614707946777,-0.1172114834189415
1733851602311560400,10.522560546875,-0.8883519172668457,2.6659815311431885,-0.11595207452774048
1733851602321528300,10.5325283203125,-0.9730899930000305,2.727677583694458,-0.10072141140699387
1733851602331497500,10.54249755859375,-1.0084261894226074,2.76975679397583,-0.06838184595108032
1733851602341466400,10.55246630859375,-0.9875496625900269,2.8266067504882812,-0.04197394847869873
1733851602351434500,10.5624345703125,-0.9087270498275757,2.935797691345215,-0.0401262491941452
1733851602361403400,10.5724033203125,-0.7693045735359192,2.8899998664855957,-0.07587605714797974
1733851602371371500,10.58237158203125,-0.5942219495773315,2.0954177379608154,-0.13331857323646545
1733851602381340400,10.59234033203125,-0.43076997995376587,0.8248153328895569,-0.12764649093151093
1733851602391309600,10.6023095703125,-0.29901808500289917,0.2462129443883896,-0.1179797574877739
1733851602401277400,10.61227734375,-0.20689280331134796,0.4459846019744873,-0.17843008041381836
1733851602411246600,10.62224658203125,-0.1709555834531784,0.9292199611663818,-0.250341534614563
1733851602421215500,10.632215576171875,-0.177461639046669,1.3413785696029663,-0.2784809470176697
1733851602431183400,10.642183349609375,-0.19903483986854553,1.4504603147506714,-0.2572648823261261
1733851602441152300,10.65215234375,-0.2124909907579422,1.1726046800613403,-0.20781420171260834
1733851602451120400,10.662120361328125,-0.20877163112163544,0.7351596355438232,-0.13473226130008698
1733851602461089300,10.67208935546875,-0.19281746447086334,0.5676459074020386,-0.09569136798381805
1733851602471058400,10.682058349609376,-0.17502275109291077,0.6953285336494446,-0.12458373606204987
1733851602481026300,10.6920263671875,-0.1670912653207779,0.8490763306617737,-0.15763774514198303
1733851602490995500,10.701995361328125,-0.17070011794567108,0.8871161341667175,-0.15261901915073395
1733851602500964400,10.71196435546875,-0.18848007917404175,0.9091342687606812,-0.12104193866252899
1733851602510932500,10.721932373046876,-0.21262270212173462,1.0049254894256592,-0.1089429259300232
1733851602520901400,10.7319013671875,-0.2359495759010315,1.1118708848953247,-0.13480207324028015
1733851602530869500,10.741869384765625,-0.25566017627716064,1.115059733390808,-0.18863414227962494
1733851602540838400,10.75183837890625,-0.2539951503276825,0.9590850472450256,-0.24696823954582214
1733851602550807600,10.7618076171875,-0.22297942638397217,0.7248565554618835,-0.2912403643131256
1733851602560775400,10.771775390625,-0.16539634764194489,0.5524860620498657,-0.3156445324420929
1733851602570744600,10.78174462890625,-0.10751307755708694,0.5076493620872498,-0.31560298800468445
1733851602580713500,10.79171337890625,-0.06940193474292755,0.500109851360321,-0.26157647371292114
1733851602590681600,10.801681640625,-0.05737164244055748,0.47618478536605835,-0.14283785223960876
1733851602600650500,10.811650390625,-0.07892178744077682,0.4873332977294922,0.012128095142543316
1733851602610618400,10.821618408203125,-0.13029736280441284,0.5752399563789368,0.17123092710971832
1733851602620587300,10.831587158203124,-0.2011648714542389,0.7009813785552979,0.2993561327457428
1733851602630556400,10.841556396484375,-0.27111199498176575,0.8021205067634583,0.37018024921417236
1733851602640524300,10.851524169921875,-0.3296354115009308,0.8274912238121033,0.37398338317871094
1733851602650493400,10.861493408203126,-0.35963404178619385,0.7720761299133301,0.31041213870048523
1733851602660462300,10.87146240234375,-0.3505226671695709,0.671665608882904,0.19924187660217285
1733851602670430500,10.881430419921875,-0.2971777021884918,0.5314062237739563,0.07255078852176666
1733851602680399400,10.8913994140625,-0.20918935537338257,0.3763880133628845,-0.0454837903380394
1733851602690367500,10.901367431640624,-0.1098017767071724,0.21681036055088043,-0.14420689642429352
1733851602700336400,10.91133642578125,-0.0247819721698761,0.08897026628255844,-0.21746262907981873
1733851602710305500,10.921305419921875,0.0322972908616066,0.005110514350235462,-0.25749102234840393
1733851602720273400,10.9312734375,0.04531921446323395,-0.06714233756065369,-0.2523380219936371
1733851602730242600,10.94124267578125,0.02337130531668663,-0.124119333922863,-0.20911093056201935
1733851602740211500,10.95121142578125,-0.009032156318426132,-0.12039168924093246,-0.15799091756343842
1733851602750179600,10.9611796875,-0.029565660282969475,-0.07980538159608841,-0.10576020926237106
1733851602760148500,10.9711484375,-0.03092191182076931,-0.07297064363956451,-0.05655234679579735
1733851602770116400,10.981116455078125,-0.016012471169233322,-0.1254783272743225,-0.021810345351696014
1733851602780085200,10.991085205078125,0.012426688335835934,-0.18151001632213593,-0.016742706298828125
1733851602790054700,11.0010546875,0.053992774337530136,-0.21965952217578888,-0.03072483278810978
1733851602800022300,11.011022216796874,0.0867374837398529,-0.2744804322719574,-0.030636148527264595
1733851602809991400,11.020991455078125,0.10481821000576019,-0.3326047360897064,-0.009464281611144543
1733851602819960300,11.030960205078125,0.11085321009159088,-0.348753958940506,0.02035028301179409
1733851602829928400,11.040928466796874,0.11355685442686081,-0.3399261236190796,0.04831187427043915
1733851602839897300,11.0508974609375,0.12259979546070099,-0.34414491057395935,0.0759662464261055
1733851602849865500,11.060865478515625,0.13015437126159668,-0.38237646222114563,0.10592787712812424
1733851602859834400,11.07083447265625,0.13748005032539368,-0.4020625054836273,0.1141577735543251
1733851602869803500,11.080803466796874,0.15067841112613678,-0.3881397843360901,0.09777853637933731
1733851602879771400,11.090771484375,0.1677713692188263,-0.3880152702331543,0.07381579279899597
1733851602889740500,11.100740478515625,0.18987241387367249,-0.4137347340583801,0.047108545899391174
1733851602899709400,11.11070947265625,0.20746365189552307,-0.44813787937164307,0.022873399779200554
1733851602909677600,11.120677490234375,0.22874604165554047,-0.4806356132030487,0.004746061284095049
1733851602919646500,11.130646484375,0.2560466229915619,-0.5342553853988647,0.002758410293608904
1733851602929614600,11.140614501953126,0.2894724905490875,-0.5907793641090393,0.016944803297519684
1733851602939583500,11.15058349609375,0.3149620294570923,-0.6237537860870361,0.03955818712711334
1733851602949552600,11.160552734375,0.3271486461162567,-0.6390318274497986,0.07290735840797424
1733851602959520300,11.170520263671875,0.3265518248081207,-0.6497541069984436,0.11193541437387466
1733851602969489400,11.180489501953126,0.3217940926551819,-0.6606589555740356,0.1506473869085312
1733851602979458300,11.190458251953125,0.31811094284057617,-0.6821287274360657,0.17712931334972382
1733851602989426400,11.200426513671875,0.3229656219482422,-0.6886391043663025,0.18199411034584045
1733851602999395300,11.210395263671876,0.33882230520248413,-0.6981833577156067,0.16860760748386383
1733851603009363500,11.220363525390624,0.36981111764907837,-0.720434844493866,0.1400878131389618
1733851603019332400,11.230332275390625,0.42232587933540344,-0.7704674005508423,0.09673018008470535
1733851603029301500,11.240301513671875,0.47964295744895935,-0.836097002029419,0.05424050614237785
1733851603039269400,11.250269287109376,0.5325855612754822,-0.8917047381401062,0.008329990319907665
1733851603049238500,11.260238525390625,0.5743902921676636,-0.9436739087104797,-0.03335700184106827
1733851603059207400,11.27020751953125,0.5930237770080566,-1.0141886472702026,-0.05703243613243103
1733851603069175600,11.280175537109375,0.5818318128585815,-1.1088203191757202,-0.06027935817837715
1733851603079144400,11.29014453125,0.5405863523483276,-1.2030895948410034,-0.0462421290576458
1733851603089112600,11.300112548828125,0.4998982846736908,-1.271633267402649,-0.020693091675639153
1733851603099081500,11.31008154296875,0.470861554145813,-1.305116057395935,0.0022601610980927944
1733851603109050600,11.320050537109376,0.4672236740589142,-1.311743974685669,0.018445998430252075
1733851603119018500,11.3300185546875,0.49227821826934814,-1.3184243440628052,0.022239917889237404
1733851603128987600,11.339987548828125,0.5422348380088806,-1.3347508907318115,0.011465568095445633
1733851603138956500,11.34995654296875,0.6090154647827148,-1.3345178365707397,-0.01641133800148964
1733851603148924400,11.35992431640625,0.6690665483474731,-1.314691185951233,-0.049853451550006866
1733851603158893300,11.369893310546875,0.7105793356895447,-1.3046354055404663,-0.08428289741277695
1733851603168862000,11.379862060546875,0.7287308573722839,-1.3391965627670288,-0.1106463223695755
1733851603178830800,11.389830810546876,0.7127406597137451,-1.4337241649627686,-0.130949929356575
1733851603188799700,11.3997998046875,0.6684507131576538,-1.5869150161743164,-0.13579341769218445
1733851603198767900,11.409767822265625,0.6148050427436829,-1.7606227397918701,-0.13538019359111786
1733851603208737000,11.419737060546876,0.57025545835495,-1.9087581634521484,-0.13353408873081207
1733851603218706000,11.429705810546874,0.5477003455162048,-1.9831451177597046,-0.12909989058971405
1733851603228674000,11.439674072265625,0.5371872186660767,-1.959947943687439,-0.1194978579878807
1733851603238643000,11.449642822265625,0.5089970231056213,-1.9011101722717285,-0.10156697779893875
1733851603248611000,11.459611083984376,0.46313390135765076,-1.8696260452270508,-0.07351004332304001
1733851603258580000,11.469580078125,0.4011412262916565,-1.8874019384384155,-0.04525807872414589
1733851603268548900,11.479548828125,0.3271556794643402,-1.9825940132141113,-0.015260234475135803
1733851603278517000,11.48951708984375,0.2617308795452118,-2.167895555496216,0.010301965288817883
1733851603288486000,11.49948583984375,0.22320237755775452,-2.389010190963745,0.023585014045238495
1733851603298455000,11.509455078125,0.21647310256958008,-2.5547385215759277,0.02318527363240719
1733851603308423200,11.519423095703125,0.22346709668636322,-2.6095786094665527,0.02229870669543743
1733851603318392000,11.52939208984375,0.2251516729593277,-2.5578677654266357,0.03062756359577179
1733851603328360000,11.53935986328125,0.2104227989912033,-2.4569077491760254,0.05211261659860611
1733851603338328800,11.549328857421875,0.18226592242717743,-2.329195737838745,0.08531790971755981
1733851603348297700,11.559297607421875,0.13328959047794342,-2.2083537578582764,0.11344249546527863
1733851603358265900,11.569265869140626,0.0616929791867733,-2.1241683959960938,0.13274641335010529
1733851603368234800,11.57923486328125,-0.024620868265628815,-2.0567197799682617,0.13513341546058655
1733851603378204000,11.589203857421875,-0.10178528726100922,-1.9840331077575684,0.12000550329685211
1733851603388172000,11.599172119140626,-0.15576569736003876,-1.8655238151550293,0.1029953584074974
1733851603398141000,11.609140869140624,-0.1608954519033432,-1.7012242078781128,0.09404978156089783
1733851603408109000,11.619109130859375,-0.10453230142593384,-1.500510573387146,0.09908156096935272
1733851603418078000,11.629077880859375,-0.015704048797488213,-1.3119198083877563,0.1303432285785675
1733851603428046800,11.639046875,0.06712425500154495,-1.1596144437789917,0.1790468543767929
1733851603438015000,11.649014892578125,0.12036365270614624,-1.018966794013977,0.2209063321352005
1733851603447983900,11.65898388671875,0.1412542760372162,-0.8708744645118713,0.24147604405879974
1733851603457952000,11.668951904296875,0.12926805019378662,-0.7324004173278809,0.2400267869234085
1733851603467921000,11.6789208984375,0.10111472010612488,-0.6446953415870667,0.20779775083065033
1733851603477890000,11.68889013671875,0.07158371806144714,-0.6117690205574036,0.16231927275657654
1733851603487858200,11.698858154296875,0.04572495445609093,-0.6226136684417725,0.12453486025333405
1733851603497827000,11.7088271484375,0.019144490361213684,-0.6428043246269226,0.10554641485214233
1733851603507796000,11.7187958984375,0.008565348573029041,-0.6677677631378174,0.1108626127243042
1733851603517763800,11.728763916015625,0.02638338692486286,-0.6864733695983887,0.12812790274620056
1733851603527732700,11.738732666015625,0.06929810345172882,-0.6829355955123901,0.14807337522506714
1733851603537700900,11.748700927734374,0.11779611557722092,-0.6670901775360107,0.15910989046096802
1733851603547669800,11.758669677734375,0.14766186475753784,-0.6636187434196472,0.16102203726768494
1733851603557639000,11.768638916015625,0.14966972172260284,-0.7026365399360657,0.14996756613254547
1733851603567607000,11.77860693359375,0.14125441014766693,-0.7735783457756042,0.12595731019973755
1733851603577576000,11.788575927734374,0.13550761342048645,-0.8367842435836792,0.09435798227787018
1733851603587544800,11.798544921875,0.14456050097942352,-0.8612328767776489,0.05934832990169525
1733851603597513000,11.808512939453125,0.1622152179479599,-0.8201338648796082,0.027539638802409172
1733851603607481900,11.81848193359375,0.19403359293937683,-0.7111732959747314,0.004265207797288895
1733851603617450000,11.828449951171875,0.22701199352741241,-0.5656219124794006,-0.01104813627898693
1733851603627419000,11.8384189453125,0.2537589371204376,-0.4173312783241272,-0.024314405396580696
1733851603637388000,11.848387939453126,0.254530131816864,-0.2930595576763153,-0.037279024720191956
1733851603647356200,11.858356201171874,0.2363913357257843,-0.17591507732868195,-0.04612258821725845
1733851603657325000,11.868324951171875,0.20209775865077972,-0.05542369186878204,-0.05761260911822319
1733851603667294000,11.8782939453125,0.16404545307159424,0.06210559979081154,-0.068168044090271
1733851603677261800,11.88826171875,0.12192810326814651,0.16918377578258514,-0.07269840687513351
1733851603687230700,11.898230712890625,0.08979706466197968,0.27570194005966187,-0.05496521666646004
1733851603697198800,11.90819873046875,0.08065267652273178,0.36906060576438904,-0.021000981330871582
1733851603707167700,11.918167724609376,0.08864615857601166,0.4336361289024353,0.01969371736049652
1733851603717137000,11.928136962890624,0.10789309442043304,0.4829404950141907,0.059103384613990784
1733851603727105000,11.93810498046875,0.1317632794380188,0.5384665727615356,0.08259592950344086
1733851603737074000,11.948073974609375,0.14734330773353577,0.5967461466789246,0.09263230860233307
1733851603747042000,11.9580419921875,0.14251622557640076,0.6447309255599976,0.07889237254858017
1733851603757011000,11.968010986328125,0.09885039180517197,0.6841819286346436,0.039350952953100204
1733851603766979800,11.977979736328125,0.033423978835344315,0.7113432288169861,-0.03251738101243973
1733851603776948000,11.987947998046875,-0.024941353127360344,0.7284243702888489,-0.12417059391736984
1733851603786916900,11.997916748046874,-0.054672885686159134,0.7335342168807983,-0.21240483224391937
1733851603796886000,12.007885986328125,-0.052705857902765274,0.7450752854347229,-0.2715607285499573
1733851603806854000,12.01785400390625,-0.01464875228703022,0.788397490978241,-0.2877865731716156
1733851603816823000,12.027822998046876,0.0356256365776062,0.8575374484062195,-0.269727498292923
1733851603826791200,12.037791259765624,0.07424626499414444,0.9322340488433838,-0.2356102615594864
1733851603836760000,12.047760009765625,0.09514044970273972,1.0128368139266968,-0.20100952684879303
1733851603846729000,12.05772900390625,0.08777361363172531,1.0922160148620605,-0.1674337238073349
1733851603856696800,12.06769677734375,0.055521830916404724,1.1653701066970825,-0.1440010815858841
1733851603866665700,12.077665771484375,0.009896821342408657,1.2424975633621216,-0.1300559788942337
1733851603876635000,12.087634765625,-0.04331425949931145,1.3270682096481323,-0.12442842125892639
1733851603886602800,12.097602783203126,-0.09529543668031693,1.4061970710754395,-0.12126191705465317
1733851603896572000,12.107572021484375,-0.14248718321323395,1.4739550352096558,-0.1123073622584343
1733851603906540000,12.1175400390625,-0.18041831254959106,1.5544730424880981,-0.10089278966188431
1733851603916509000,12.127509033203125,-0.20662908256053925,1.6652107238769531,-0.09646771848201752
1733851603926477800,12.137477783203124,-0.225754052400589,1.8102807998657227,-0.10263533145189285
1733851603936446000,12.147446044921875,-0.25045716762542725,1.9575203657150269,-0.12060260772705078
1733851603946414800,12.157414794921875,-0.30065029859542847,2.0544140338897705,-0.14923958480358124
1733851603956383000,12.167383056640626,-0.3958521783351898,2.0877726078033447,-0.18355916440486908
1733851603966352000,12.177351806640624,-0.5162883400917053,2.127967596054077,-0.2077031135559082
1733851603976321000,12.187321044921875,-0.6237077116966248,2.2082064151763916,-0.2079862654209137
1733851603986289200,12.1972890625,-0.6829912662506104,2.3002405166625977,-0.182501420378685
1733851603996258000,12.207258056640624,-0.6993207335472107,2.354963779449463,-0.15080136060714722
1733851604006227000,12.21722705078125,-0.6867260932922363,2.3650588989257812,-0.1357766091823578
1733851604016195000,12.227195068359375,-0.6573267579078674,2.3313353061676025,-0.1367354393005371
1733851604026164000,12.2371640625,-0.6309553384780884,2.276627540588379,-0.142928346991539
1733851604036131800,12.2471318359375,-0.6156263947486877,2.2247836589813232,-0.15967431664466858
1733851604046100700,12.257100830078125,-0.617099940776825,2.199068069458008,-0.17237253487110138
1733851604056070000,12.26706982421875,-0.6339542269706726,2.196639060974121,-0.1801944077014923
1733851604066038000,12.2770380859375,-0.6442524194717407,2.213479995727539,-0.18788108229637146
1733851604076007000,12.2870068359375,-0.6283671855926514,2.232720136642456,-0.20268213748931885
1733851604085975800,12.296975830078125,-0.5843603014945984,2.2086546421051025,-0.22650277614593506
1733851604095944000,12.30694384765625,-0.5198538899421692,2.1067991256713867,-0.2508135735988617
