time,seconds_elapsed,z,y,x
1733902475874124800,5.130124755859375,-0.3827057704001665,-0.7952545981392264,0.2525660633146763
1733902475884151000,5.140151123046875,-0.4337754479020834,-0.8978563099578022,0.33475334813594815
1733902475894177800,5.150177734375,-0.4912561614900827,-0.9046882018044591,0.2974421468734741
1733902475904204800,5.160204833984375,-0.5028063140302896,-0.8112745895698666,0.16337445268929005
1733902475914230800,5.170230712890625,-0.4924900871992111,-0.6974024189352989,0.012784078249335288
1733902475924257800,5.1802578125,-0.42159167363345623,-0.5754305284753441,-0.09495850358903407
1733902475934284000,5.190283935546875,-0.2784942852973938,-0.5025117149978876,-0.15315584101378918
1733902475944310800,5.200310791015625,-0.13698270484805106,-0.4971165779560804,-0.11169394981265067
1733902475954337800,5.210337890625,-0.1211298866778612,-0.49920156753659245,-0.00776946495771408
1733902475964363800,5.22036376953125,-0.23358722207844257,-0.4858905428037047,0.08467734807133674
1733902475974391000,5.23039111328125,-0.28196809888780117,-0.3877987096250057,0.08996785569489002
1733902475984417000,5.2404169921875,-0.1895873368322849,-0.263866625007987,0.06925707609951495
1733902475994443800,5.25044384765625,-0.056873979866504665,-0.11082213541418313,0.10292729051113128
1733902476004470800,5.260470703125,0.12020926470160484,0.05920768351107836,0.18735563225746155
1733902476014496800,5.270496826171875,0.2861965302377939,0.21529753215014932,0.2675432676941156
1733902476024524000,5.28052392578125,0.4948071319699287,0.3000242723211646,0.3127005062818527
1733902476034550000,5.290550048828125,0.6647106941670179,0.31939503548443315,0.3178676797866821
1733902476044576800,5.30057666015625,0.6635971799671649,0.3280886295497417,0.3326858942121267
1733902476054603800,5.310603759765625,0.5570201347768307,0.3898199863195419,0.373085124617815
1733902476064629500,5.32062939453125,0.4950479549884796,0.4964323950842023,0.4130868801385164
1733902476074656800,5.33065673828125,0.3987871366292238,0.6214411690220236,0.38068624727129935
1733902476084683800,5.340683837890625,0.39732641642689703,0.7212310382902621,0.3222778974443674
1733902476094709800,5.350709716796875,0.5367746346056461,0.7534414092823862,0.22612112398147582
1733902476104736500,5.360736572265625,0.6253489901155233,0.6593120499938726,0.1347889941960573
1733902476114762500,5.370762451171875,0.551758268725872,0.4762406709268689,0.06904138752222061
1733902476124789800,5.380789794921875,0.4373527218669653,0.2562374453037977,0.044020343512296674
1733902476134816800,5.390816650390625,0.2764484586834907,0.06407587406933307,0.07424597042798996
1733902476144842800,5.4008427734375,0.15304069020152092,-0.0028019056782126427,0.12162439219653606
1733902476154869500,5.410869384765625,-0.00672901599407196,0.0178507139891386,0.10702069730460644
1733902476164895700,5.420895751953125,-0.02866846060156822,0.0012575988456606864,0.053065819755196565
1733902476174922800,5.4309228515625,-0.002879354828596115,-0.05624123492091894,-0.013237667235732078
1733902476184949800,5.44094970703125,-0.2616138776451349,-0.10280161830484867,-0.07465981192588805
1733902476194975500,5.4509755859375,-0.5838181253314018,-0.08735124345570802,-0.06711538789570332
1733902476205002500,5.46100244140625,-0.6632248395234346,-0.0114873164370656,-0.03601005553603172
1733902476215028700,5.47102880859375,-0.5774538509964943,0.11056845291405916,-0.024264088162779807
1733902476225055700,5.4810556640625,-0.5073989025175571,0.2692337049990892,-0.11810790850818156
1733902476235082800,5.491082763671875,-0.5504571229994296,0.4138268848508596,-0.30512334902584554
1733902476245108500,5.5011083984375,-0.5308487516880035,0.5347726471334695,-0.4797440028727054
1733902476255135700,5.5111357421875,-0.47355333153903484,0.693840050278604,-0.5288607927411795
1733902476265161700,5.52116162109375,-0.4134171350061893,0.8625584943443536,-0.41165713959634304
1733902476275188700,5.531188720703125,-0.34751521455347534,1.0910495623275638,-0.23611527925133705
1733902476285215700,5.5412158203125,-0.4232160599648952,1.2877256883770227,-0.10616115786582231
1733902476295241500,5.551241455078125,-0.49158641635775563,1.49278824223876,-0.015432839192450046
1733902476305268700,5.561268798828125,-0.4328945734143257,1.7351985299810766,0.046322482974827286
1733902476315295700,5.571295654296875,-0.299199219673872,1.8989143434539437,0.08796616048365831
1733902476325321700,5.58132177734375,0.018847908332943916,1.93319041480422,0.12518325372189282
1733902476335348500,5.591348388671875,0.5546259331166744,1.887596830625832,0.1865893240600824
1733902476345374500,5.60137451171875,1.1428507689744234,1.73768187122941,0.21130115599036214
1733902476355401700,5.611401611328125,1.4126128817617893,1.5085411071658135,0.17443594492971895
1733902476365428700,5.6214287109375,1.4078022666096686,1.2868322466686368,0.056954936148226255
1733902476375454700,5.631454833984375,1.3412182091116904,1.0311483435943722,-0.14400164369940757
1733902476385481500,5.6414814453125,1.1826461882680654,0.682883187456429,-0.4207876637741923
1733902476395507500,5.651507568359375,0.9648474869519471,0.3273199832648039,-0.7185191489830612
1733902476405534700,5.66153466796875,0.7382593299806117,-0.053311611209809776,-0.9141665165066718
1733902476415561700,5.671561767578125,0.7675240029096603,-0.4386033064499497,-0.9603393618777394
1733902476425587700,5.681587646484375,0.9242536107569932,-0.8920388558506965,-0.97036245098114
1733902476435614500,5.691614501953125,0.9192647164285183,-1.263287997213006,-0.990540146613121
1733902476445640400,5.701640380859375,0.7143558918237686,-1.4077870690405367,-0.896103621071577
1733902476455667700,5.711667724609375,0.4827689036518335,-1.3205188276931643,-0.8085106778144836
1733902476465694700,5.72169482421875,0.10738894609510898,-1.2035898998364805,-0.6916586145862936
1733902476475720700,5.731720703125,-0.08700082258284092,-0.994801603449881,-0.5298910125717521
1733902476485747500,5.74174755859375,-0.20765841557383535,-0.7862772186964749,-0.3119417968690395
1733902476495773400,5.7517734375,-0.24943068789839742,-0.6198854640126228,0.024102467860281467
1733902476505800700,5.76180078125,-0.28359949948191643,-0.539059530672431,0.4220277269631624
1733902476515827700,5.77182763671875,-0.5140115986555814,-0.5747916460499167,0.8268348545342683
1733902476525853700,5.781853759765625,-0.7526373994231224,-0.642990737529099,1.1520707250013946
1733902476535880400,5.79188037109375,-0.8658353240579366,-0.737865362226963,1.4528884857878088
1733902476545906400,5.801906494140625,-0.9182079008519649,-0.8265700661182404,1.7604484143108128
1733902476555933700,5.81193359375,-0.8719207814514637,-0.8174988709121942,2.084175341519713
1733902476565960700,5.821960693359375,-0.7346522453993558,-0.7996987180665135,2.2857257956072687
1733902476575986700,5.831986572265625,-0.8037830647706985,-0.9227300544515251,2.2359607709631324
1733902476586013400,5.842013427734375,-1.1064455766409635,-1.045388173609972,2.0378309389740226
1733902476596039700,5.852039794921875,-1.163702418345213,-1.0664701246052979,1.7621148862183094
1733902476606066700,5.862066650390625,-1.0028834953576327,-1.056352635216713,1.4743793098449707
1733902476616093700,5.87209375,-0.8349152851372956,-1.0275254769220947,1.2473153520554303
1733902476626119700,5.88211962890625,-0.556864651954174,-0.9226134423345327,1.0715934589684009
1733902476636146400,5.892146484375,-0.376596932131052,-0.9238274942994117,0.9142384126991033
1733902476646173700,5.902173583984375,-0.366923094856739,-0.964079425188899,0.8015852624654769
1733902476656199700,5.91219970703125,-0.3725847738802433,-0.9750596688866615,0.7618383584886789
1733902476666226700,5.922226806640625,-0.4541460357576608,-0.9720721775084733,0.8466165365859866
1733902476676252700,5.932252685546875,-0.35739304996728893,-0.8664271524712442,1.0658002625197172
1733902476686279700,5.94227978515625,-0.11055296308398246,-0.7167594458341598,1.2039631170630454
1733902476696306700,5.952306640625,0.18949498237371443,-0.633247926671803,1.1721046282485126
1733902476706332700,5.962332763671875,0.4708668689340353,-0.6394219391316175,1.014729123713076
1733902476716359700,5.972359619140625,0.5886158810019493,-0.7023299384653567,0.8508680565506219
1733902476726385700,5.9823857421875,0.5828560023009777,-0.6954077379867434,0.7161532966345548
1733902476736412700,5.99241259765625,0.5128700274050235,-0.6245411808639765,0.5914882215678692
1733902476746439700,6.002439697265625,0.5433680415213108,-0.5641682529658079,0.41170594717413184
1733902476756465700,6.012465576171875,0.5942910040289163,-0.4988271812662482,0.2262809907183051
1733902476766492700,6.02249267578125,0.6427414389431476,-0.37931729700565336,0.05838204634189605
1733902476776518700,6.0325185546875,0.7346832250595092,-0.26745500488877294,-0.09320902957320212
1733902476786545700,6.042545654296875,0.7148831305682659,-0.16298165397942066,-0.15519056171178816
1733902476796572700,6.05257275390625,0.6286462780952453,-0.035243455077707764,-0.1309814186066389
1733902476806598700,6.0625986328125,0.6335013169109821,0.11766250282824038,-0.1253875441223383
1733902476816625700,6.072625732421875,0.641011838671565,0.19044073879122733,-0.22730127367675304
1733902476826651600,6.082651611328125,0.6321183381199836,0.16686609419733284,-0.38409137953966854
1733902476836678700,6.0926787109375,0.7057552367389202,0.11612257990986108,-0.5347305615574122
1733902476846705700,6.10270556640625,0.7826859162062406,0.10014701214283704,-0.750627520905435
1733902476856731600,6.112731689453125,0.8274035943329334,0.10695873798429965,-1.0420897165864706
1733902476866758700,6.122758544921875,0.6321510713458061,0.027555823184549806,-1.2644994188293814
1733902476876784600,6.13278466796875,0.3796019591659307,-0.02636749018281698,-1.3997086842641233
1733902476886811600,6.142811767578125,0.15300854149758814,-0.07769026566296816,-1.549376098640263
1733902476896838700,6.152838623046875,-0.2660492297440767,-0.027435996197164057,-1.6367659205406904
1733902476906864600,6.16286474609375,-0.698256405416131,0.10550883143693209,-1.5790528595015405
1733902476916891600,6.1728916015625,-0.818470930814743,0.212338390083611,-1.423697170355916
1733902476926917600,6.182917724609375,-0.6319073257178068,0.29772622451186176,-1.2213371534511446
1733902476936944600,6.192944580078125,-0.4996440506070852,0.3552607141137123,-0.9334437561675906
1733902476946971600,6.2029716796875,-0.5170376684784889,0.4176300765261054,-0.627113953961432
1733902476956997600,6.21299755859375,-0.5759376012146472,0.504622131280601,-0.34899376267343757
1733902476967024600,6.223024658203125,-0.5948416236490011,0.5952680323675275,-0.12036942369937896
1733902476977050600,6.233050537109375,-0.5952981352448463,0.6601271657690405,0.01818885990232229
1733902476987077600,6.24307763671875,-0.6918196503669023,0.6358921575702726,0.06435293744504451
1733902476997104600,6.253104736328125,-1.0477876359671354,0.5445518444783986,0.20668343306183815
1733902477007130600,6.263130615234375,-1.4940753594398497,0.6072917937688529,0.4216302520781755
1733902477017157600,6.27315771484375,-1.5127221922427414,0.7632713139012456,0.5808382327377796
1733902477027183900,6.283183837890625,-1.212298399209976,0.8725101256467401,0.6547317364662886
1733902477037210600,6.293210693359375,-0.9407710303157567,0.9654321549721062,0.6803145060122012
1733902477047237600,6.303237548828125,-0.7411749251663684,0.981861311725527,0.6720517045795917
1733902477057263400,6.313263427734375,-0.4867249478012323,0.907028919711709,0.529581508231163
1733902477067290600,6.32329052734375,-0.3650187225401401,0.7072628648228942,0.3716635673820972
1733902477077316600,6.333316650390625,-0.20840368098318576,0.5199266679182648,0.25268822838962074
1733902477087343400,6.34334326171875,-0.03530921379029751,0.43862434923797844,0.11452595836818218
1733902477097370400,6.353370361328125,0.17014029356241225,0.47377296563908455,-0.020218612164258954
1733902477107396600,6.363396728515625,0.35537469588220116,0.557157497420907,-0.15333996540904044
1733902477117423600,6.373423583984375,0.4818073651432991,0.6720752315856516,-0.25662790592610835
1733902477127449600,6.38344970703125,0.6361287428051233,0.8179897231690585,-0.3568956218391657
1733902477137476400,6.393476318359375,0.8074000862240791,0.9299997531935572,-0.46969022637009616
1733902477147503400,6.40350341796875,0.9423580072462558,1.0053094073303044,-0.5005734404116868
1733902477157529600,6.413529541015625,1.0349842684954405,1.0057564204454421,-0.45439036590754983
1733902477167556600,6.423556640625,1.04363869959414,0.9175824624300003,-0.3855933085352182
1733902477177582600,6.43358251953125,1.1460410894483328,0.7915247639611362,-0.2887456301987171
1733902477187609300,6.443609375,1.2486001311689614,0.6416932450644671,-0.12831775235533713
1733902477197636600,6.45363671875,1.3577695309400557,0.5458147040210664,0.09036182344853877
1733902477207662600,6.46366259765625,1.2884072409003973,0.4650855090536177,0.27889585183560844
1733902477217689600,6.473689697265625,1.026267878076434,0.398839889729768,0.41847324935197827
1733902477227715600,6.483715576171875,0.7581810050249099,0.3639195291265845,0.5098258374035358
1733902477237742300,6.493742431640625,0.5801391445577144,0.387650825586915,0.5517237819343805
1733902477247769600,6.50376953125,0.499735820543766,0.4369656222455203,0.5355003768861294
1733902477257795600,6.513795654296875,0.4959831900119781,0.4989249425522983,0.5195499435603619
1733902477267822600,6.523822509765625,0.442235817733407,0.5543289959967136,0.522177369454503
1733902477277849300,6.533849365234375,0.295346051377058,0.6141204707451164,0.5202016854673623
1733902477287875300,6.543875244140625,0.08001987765431404,0.6112953303217887,0.4888210432976484
1733902477297902600,6.553902587890625,-0.1131833115875721,0.6120074241138994,0.42681613028347487
1733902477307928600,6.563928466796875,-0.241436182013154,0.5868875959046185,0.3703834644436836
1733902477317955600,6.57395556640625,-0.21350772612392901,0.49011006019487974,0.3255617414206266
1733902477327981600,6.583981689453125,-0.1506920812487602,0.38857057078033685,0.37189620709419247
1733902477338008300,6.59400830078125,-0.06867898395061492,0.3239825094051659,0.44396366443932056
1733902477348035600,6.60403564453125,-0.017568389916419982,0.2880354361027479,0.5253220972210169
1733902477358061600,6.6140615234375,-0.04581657927930355,0.306370134216547,0.6130751994758844
1733902477368088600,6.624088623046875,-0.02986263882219791,0.32040377413555976,0.6188076056480407
1733902477378114600,6.634114501953125,-0.006453121662139892,0.3606647651143372,0.5865326449871063
1733902477388141300,6.644141357421875,0.05192892467975616,0.4013298068493604,0.5584855311542749
1733902477398168600,6.65416845703125,0.19222937577366828,0.40142186904698607,0.516612136542797
1733902477408194600,6.664194580078125,0.37549101671576496,0.3410825511574745,0.43728374828398225
1733902477418221600,6.6742216796875,0.35246085426211354,0.2859668131351471,0.37009880228340625
1733902477428248300,6.684248291015625,0.2791682390362024,0.2521694652125239,0.2501286070346832
1733902477438274300,6.6942744140625,0.31791677962541576,0.1695133938357234,0.0564805966347456
1733902477448301600,6.704301513671875,0.39929391710758205,0.07490911051183939,-0.1160059677928686
1733902477458327600,6.71432763671875,0.3673100483477115,-0.020550620597600936,-0.21024667850136755
1733902477468354600,6.7243544921875,0.30078619660437106,-0.06927928793132304,-0.26314181786477564
1733902477478381300,6.73438134765625,0.22654314878582954,-0.0864417273953557,-0.31457682154774663
1733902477488407300,6.7444072265625,0.16322598412930964,-0.04350859459787607,-0.3692828097254038
1733902477498434600,6.7544345703125,0.08945230738818645,-0.017817980763316154,-0.4032821099609136
1733902477508460500,6.76446044921875,0.10853460899889468,0.004964928930997848,-0.3952157078832388
1733902477518487600,6.774487548828125,0.12744506117403506,0.020588906781375406,-0.37365737154781814
1733902477528513500,6.784513427734375,0.06460486637949943,0.0241945300579071,-0.3316068668037653
1733902477538540500,6.79454052734375,-0.04342705379426479,0.014418109191954135,-0.27640520406365393
1733902477548567600,6.804567626953125,-0.09986205772161483,-0.00651683454811573,-0.21461130345165727
1733902477558593500,6.814593505859375,-0.164430099222064,-0.04472206204086542,-0.14283201539814472
1733902477568620500,6.82462060546875,-0.28334581698179245,-0.11574585555195807,-0.061759998342394824
1733902477578646500,6.834646484375,-0.3487327736496925,-0.20024609349071978,0.01752104364335537
1733902477588673500,6.844673583984375,-0.3825613934934139,-0.29434739572852847,0.09756371765136718
1733902477598700500,6.854700439453125,-0.4047872538268566,-0.3955947703287005,0.16311317140460013
1733902477608726500,6.8647265625,-0.5129360783785581,-0.4589887996137142,0.23086861076951026
1733902477618753500,6.87475341796875,-0.6537111612468958,-0.5327966708853841,0.2571113055288792
1733902477628779500,6.884779541015625,-0.6780535753428936,-0.5868836503818631,0.24935645361840725
1733902477638806500,6.894806640625,-0.6044803896099329,-0.6003741233348846,0.2439858664959669
1733902477648833500,6.90483349609375,-0.519321980023384,-0.6003934125572442,0.2347580194234848
1733902477658859500,6.914859619140625,-0.5088754048109054,-0.606076426629722,0.22344810537993906
1733902477668886500,6.924886474609375,-0.6155705234229565,-0.6101502519398927,0.24589257690012453
1733902477678912500,6.93491259765625,-0.6244593477994204,-0.6440121895313262,0.2234773314744234
1733902477688939500,6.944939453125,-0.5467015698581934,-0.6766627055063843,0.1972954269915819
1733902477698966500,6.954966552734375,-0.498629905128479,-0.6845306624025106,0.2237216616243124
1733902477708992500,6.964992431640625,-0.48542438659667964,-0.6262941620111465,0.2466308280467987
1733902477719019500,6.97501953125,-0.3824526724219322,-0.5376218990847468,0.2262216617465019
1733902477729045500,6.98504541015625,-0.20329846679866312,-0.42240357453823085,0.16937749249637127
1733902477739072500,6.995072509765625,-0.017720365607738493,-0.3342459831357002,0.060198740375041956
1733902477749099500,7.005099609375,0.07832710226178169,-0.21616905428767202,-0.03656476680934429
1733902477759125500,7.01512548828125,0.10649696569144725,-0.09946633640229702,-0.12213818693757056
1733902477769152500,7.025152587890625,0.16443360635340212,-0.001028174003958702,-0.15058219113349913
1733902477779178500,7.035178466796875,0.255912451133132,0.05420856004953384,-0.14626315889060496
1733902477789205500,7.04520556640625,0.2619546539068222,0.07949731508493423,-0.1163327155292034
1733902477799232500,7.055232421875,0.24777298381924628,0.06438245580047369,-0.09719196172952652
1733902477809258500,7.065258544921875,0.2435410453379154,0.08073036401122807,-0.07664835539460181
1733902477819285500,7.075285400390625,0.23789105675220487,0.11939970188438892,-0.056901452395319935
1733902477829311500,7.0853115234375,0.24725626646876334,0.12887977015227078,-0.03523731759786606
1733902477839338500,7.09533837890625,0.24285832377076147,0.12665332627445458,0.0093371526658535
1733902477849365500,7.105365478515625,0.3025613895833492,0.13314064246714113,0.029584990924596783
1733902477859391500,7.1153916015625,0.3012894699513912,0.13466595233827827,0.053173956304788585
1733902477869418500,7.12541845703125,0.2891571336090565,0.1929039140343666,0.0916243907302618
1733902477879444500,7.135444580078125,0.30561025575995443,0.2365133386582136,0.114638186571002
1733902477889471500,7.145471435546875,0.21975334251523015,0.23529198016971348,0.17485095547139642
1733902477899498500,7.15549853515625,0.07926701346039772,0.2650967513248324,0.2397814005434513
1733902477909524500,7.1655244140625,0.08921089984774588,0.23522476015239951,0.2837035443782806
1733902477919551500,7.175551513671875,0.1653232486695051,0.17682722398042677,0.34011224482059477
1733902477929577500,7.185577392578125,0.1400391698092222,0.11413140609264373,0.38294367080926894
1733902477939604500,7.1956044921875,0.07952244952619075,0.06638327422887086,0.39356560258865353
1733902477949631500,7.205631591796875,0.09534896421134471,-0.008099135303497314,0.38118309087753294
1733902477959657500,7.215657470703125,0.11206804382205009,-0.04206862492263317,0.3550473636239767
1733902477969684500,7.2256845703125,0.008131868529319762,-0.07905629331916571,0.30534020664691924
1733902477979710500,7.23571044921875,-0.1330862819314003,-0.10686170735061168,0.24971593458056449
1733902477989737500,7.245737548828125,-0.15078209761977196,-0.1090463579133153,0.1416594644874334
1733902477999764500,7.255764404296875,-0.04012976581454277,-0.10649024368971585,0.07147650571465491
1733902478009790500,7.26579052734375,0.0780956315934658,-0.09244622850716114,0.023048867154121397
1733902478019817500,7.2758173828125,0.013316577690839767,-0.09395604854822158,-0.007025953114032745
1733902478029843500,7.285843505859375,-0.05866963111162185,-0.06589315262436866,-0.00898117883503437
1733902478039870500,7.295870361328125,-0.05767243676781654,-0.049103345865011215,-0.022070377510786054
1733902478049897500,7.3058974609375,-0.04625789330601692,-0.005905716912448406,-0.025332594177126883
1733902478059923700,7.315923828125,-0.0398497798293829,0.09862696296870709,-0.015554127484560011
1733902478069950500,7.325950439453125,0.024008067575097082,0.17941753273457287,-0.05315700516998768
1733902478079976400,7.3359765625,0.08456862699985504,0.2576470198407769,-0.07138648934364318
1733902478090003700,7.346003662109375,0.130651163738966,0.32630700682997704,-0.05305179122984409
1733902478100030700,7.35603076171875,0.12412848397195339,0.3547863746002316,-0.034896541336178775
1733902478110056700,7.366056640625,0.1228337679862976,0.3304910145163536,-0.009376900154352188
1733902478120083500,7.37608349609375,0.101305242267251,0.27621581897139547,0.04051087408661842
1733902478130109400,7.386109375,0.11743044763803481,0.20980039603859185,0.10927578275501727
1733902478140136700,7.39613671875,0.19399521640241144,0.1488382700756192,0.15215046336352825
1733902478150163700,7.406163818359375,0.20640344707667826,0.07111790153533219,0.16951368609666823
1733902478160189700,7.416189697265625,0.09141045571863651,0.06566197421699763,0.14323124384880065
1733902478170216400,7.426216552734375,-0.073738605427742,0.11640168911218643,0.07192775661349296
1733902478180242400,7.436242431640625,-0.11235212146043777,0.17255232314020394,0.018660861328244207
1733902478190269700,7.446269775390625,-0.004312017980217933,0.17472352969944477,-0.025773323681950566
1733902478200295700,7.456295654296875,0.11637421658337116,0.14423925184756517,-0.02727554493844509
1733902478210322700,7.46632275390625,0.027490064471960066,0.09746931736618279,-0.011963409516215323
1733902478220349400,7.476349365234375,-0.09747779293358326,0.035141456007957456,-0.05802431894540786
1733902478230375400,7.48637548828125,-0.10891221013963222,-0.052233752845227716,-0.12035597969591617
1733902478240402700,7.496402587890625,-0.00029927520751953123,-0.16352145994454623,-0.14592004454135893
1733902478250428700,7.5064287109375,0.09407119936048984,-0.22810382223129272,-0.14584581026136875
1733902478260455700,7.51645556640625,0.033061142602562904,-0.23732523956298826,-0.06344108329713344
1733902478270482400,7.526482421875,-0.06337444780170917,-0.22599837438464163,0.016393500918149947
1733902478280508400,7.53650830078125,-0.09550620059967041,-0.2204199897304177,0.07367080088853836
1733902478290535700,7.54653564453125,-0.015610241585969924,-0.22061083612740037,0.14237667284607886
1733902478300561700,7.556561767578125,0.07865384999811649,-0.20158318731337785,0.21508827331364153
1733902478310588700,7.566588623046875,0.129791332039237,-0.1670575251162052,0.3175163821309805
1733902478320615400,7.576615478515625,0.14239479302465916,-0.1590960447177291,0.3870218800336122
1733902478330641400,7.586641357421875,0.15792261702418325,-0.151248253826797,0.4142372192174196
1733902478340668700,7.596668701171875,0.19624445663392542,-0.12424012765288352,0.3902992942690849
1733902478350694700,7.606694580078125,0.28428514365851876,-0.10026976173967123,0.346428588360548
1733902478360721700,7.6167216796875,0.4769166704922914,-0.12617898676097392,0.29780922662019726
1733902478370748400,7.62674853515625,0.5820207205206156,-0.10814677872508764,0.28335458481013776
1733902478380774400,7.6367744140625,0.5386293225616217,-0.04310732032060623,0.2802279772222042
1733902478390801700,7.6468017578125,0.4464174873322248,-0.02072305455505848,0.3450198906064033
1733902478400827600,7.65682763671875,0.41256724017858504,-0.05318944613486528,0.413475587195158
1733902478410854700,7.666854736328125,0.4175099572777748,-0.04247019146084785,0.45471652912199495
1733902478420881400,7.67688134765625,0.403331794321537,-0.040222704795002936,0.5043780933916568
1733902478430907600,7.68690771484375,0.37611353252828117,-0.011338263355195522,0.5081704714119434
1733902478440934700,7.6969345703125,0.32310850304961203,-0.02080313405394554,0.43363983882367607
1733902478450960600,7.706960693359375,0.33928514634668827,-0.024165303963422775,0.3070902651846409
1733902478460987600,7.716987548828125,0.3076221801042557,-0.001816109511256218,0.207051097330451
1733902478471014400,7.727014404296875,0.20609189690947533,0.048588674341142175,0.13389876735806464
1733902478481040600,7.73704052734375,0.1126338610112667,0.09988660764098167,0.10173369681239128
1733902478491067600,7.747067626953125,0.08405483225882053,0.13716069176346063,0.06529986290633678
1733902478501093600,7.75709375,0.097636782887578,0.12290771000534295,0.003209609696269035
1733902478511120600,7.76712060546875,0.05748597428500652,0.14217472053319216,-0.017073884397745133
1733902478521146600,7.777146728515625,-0.030284663626551626,0.18049071492403745,-0.0655517918407917
1733902478531173600,7.787173583984375,-0.10581424412429333,0.18968407520502806,-0.10045651648342609
1733902478541200600,7.79720068359375,-0.12203531108498572,0.19827391663491725,-0.12443769605159759
1733902478551226600,7.8072265625,-0.0965478186070919,0.25468232481628655,-0.13829261840283869
1733902478561253600,7.817253662109375,-0.026502807000279426,0.27351386653631926,-0.170896080365777
1733902478571279600,7.827279541015625,-0.01501344473659992,0.2751677712231874,-0.21910393869578837
1733902478581306600,7.837306640625,-0.065120414686203,0.3219613788411021,-0.2865215244084596
1733902478591333600,7.847333740234375,-0.08905190989375114,0.39976036557555195,-0.3618488603323698
1733902478601359600,7.857359619140625,-0.012476619735360146,0.4723591533184051,-0.3574690378129482
1733902478611386600,7.86738671875,0.10032032288312911,0.4998407422229647,-0.2953711858183145
1733902478621412600,7.87741259765625,0.10643617541491984,0.5162199223548174,-0.20775310811996459
1733902478631439600,7.887439697265625,0.05461246467530727,0.5581164055809378,-0.12444120318293571
1733902478641466600,7.897466552734375,0.05617839881777763,0.5608940536007285,-0.09058160367906093
1733902478651492600,7.90749267578125,0.04019114061295986,0.5740460883796215,-0.09384440486729144
1733902478661519600,7.91751953125,0.05780979941189289,0.5908583992317319,-0.10928864223659038
1733902478671545600,7.927545654296875,0.10959726979434489,0.5815361518740654,-0.1524649361401796
1733902478681572600,7.937572509765625,0.2525117027789354,0.5541866649165749,-0.1929682114422321
1733902478691599600,7.947599609375,0.34987785203158855,0.5066293794497847,-0.24997429325580595
1733902478703505400,7.95950537109375,0.37058161736428735,0.5067302094757556,-0.27023382195234297
1733902478713532700,7.96953271484375,0.3673936349779367,0.4764864623814821,-0.33028292472362514
1733902478723558700,7.97955859375,0.36060558227300643,0.4284922468021512,-0.39241175637841225
1733902478733585700,7.989585693359375,0.36880467081964013,0.40479426808953284,-0.4053898958951235
1733902478743612400,7.9996123046875,0.35557226428091526,0.4261749097704887,-0.3571890518277883
1733902478753638400,8.009638427734375,0.30406828701496125,0.41497810071259733,-0.2891372598648071
1733902478763665700,8.019665771484375,0.30251988852918144,0.3782522981226444,-0.2184311540007591
1733902478773691600,8.029691650390625,0.35429566847383975,0.3646525195762515,-0.1250818391740322
1733902478783718700,8.03971875,0.38253275192081926,0.3616626901105046,-0.020597382348775863
1733902478793744600,8.04974462890625,0.40000352668166156,0.3725608084827661,0.09689970078468323
1733902478803771600,8.059771728515624,0.4537076443403959,0.3391226492613554,0.1678255868792534
1733902478813798700,8.069798583984374,0.38532735107541083,0.306454013107717,0.24579671531021594
1733902478823824600,8.07982470703125,0.2623556359231472,0.2125909035399556,0.28773265376389023
1733902478833851600,8.0898515625,0.07125614096224307,0.08006868523210287,0.2748299175709486
1733902478843877600,8.099877685546875,-0.15073767395615575,0.02900222260057926,0.2586561968833208
1733902478853904600,8.109904541015625,-0.27914427363872524,0.04158580984175205,0.21797698049247263
1733902478863931600,8.119931640625,-0.22924831609129903,0.10460019215941428,0.17809446743726728
1733902478873957600,8.12995751953125,-0.13863164109885692,0.1305640699774027,0.15809680454730987
1733902478883984600,8.139984619140625,-0.07274784082472324,0.09304916283637285,0.14430150342881679
1733902478894010600,8.1500107421875,-0.09818740250766277,0.011436170771718025,0.18318273048698902
1733902478904037600,8.16003759765625,-0.24032266781330108,-0.028620237545669076,0.21402795060575008
1733902478914064600,8.170064697265625,-0.3183510793894529,-0.03561141160726547,0.18133797940313814
1733902478924090600,8.180090576171875,-0.38449265381693837,-0.06828735428452491,0.1327852531582117
1733902478934117600,8.19011767578125,-0.4587444694638252,-0.12235767490714787,0.12959785529375076
1733902478944143600,8.2001435546875,-0.4462713568598032,-0.1723278667345643,0.17375556145012377
1733902478954170600,8.210170654296874,-0.41230888150334355,-0.22641893788427114,0.2342038926720619
1733902478964197600,8.22019775390625,-0.36344051343798633,-0.2440884500876069,0.30286066479086876
1733902478974223600,8.2302236328125,-0.31770226009190083,-0.24005378774404523,0.3589361877560615
1733902478984250600,8.240250732421876,-0.24742928494811056,-0.28624942946881055,0.4088157786905765
1733902478994276600,8.250276611328125,-0.13473171105086804,-0.40639235093593595,0.46478725675940513
1733902479004303600,8.2603037109375,-0.14974281769990921,-0.5109311682969332,0.5243927074164152
1733902479014330600,8.27033056640625,-0.33648119484186173,-0.5131207872956991,0.5230377856761217
1733902479024356600,8.280356689453125,-0.3233960878193378,-0.49993660381287336,0.4003267672866583
1733902479034383600,8.290383544921875,-0.19164134675264358,-0.49412967109978195,0.2652887667655945
1733902479053809700,8.3098095703125,-0.051942368683218956,-0.44746553508043285,0.046566520863771436
1733902479063836700,8.319836669921875,-0.08378770575523375,-0.417819169357419,-0.031554829692840576
1733902479073862700,8.329862548828125,-0.13673779017627238,-0.3952113239690661,-0.05380757803320885
1733902479083889400,8.339889404296875,-0.13674772704839705,-0.35451311061680313,-0.06053484046161174
1733902479093916400,8.34991650390625,-0.12808628168702124,-0.33565263506323095,-0.059327802759408944
1733902479103942400,8.3599423828125,-0.021666472885012625,-0.34675825870633126,-0.11122750134468078
1733902479113969700,8.3699697265625,0.08044540959000587,-0.35854426582902665,-0.17089315775632857
1733902479123995600,8.37999560546875,0.004708908343315124,-0.315271818074584,-0.2173819372087717
1733902479134022400,8.3900224609375,-0.11917056930363178,-0.2751785848781466,-0.268943197619915
1733902479144049400,8.40004931640625,-0.17848317449390888,-0.25313304954767224,-0.3412146531045437
1733902479154075400,8.410075439453125,-0.23996260232925415,-0.20028788680583237,-0.364047247159481
1733902479164102700,8.4201025390625,-0.21937983302772043,-0.11074585530757904,-0.35681261973083017
1733902479174128600,8.430128662109375,-0.10309797090291976,-0.07919190239757298,-0.33619536363780494
1733902479184155400,8.4401552734375,-0.01734451803267002,-0.044535891819000244,-0.21555296821594236
1733902479194182400,8.450182373046875,0.011883914539217949,-0.008615560393035411,-0.11516133366227149
1733902479204208400,8.46020849609375,0.10558628058731555,-0.0634428368628025,-0.007089666000008582
1733902479214235600,8.470235595703125,0.15582710604965685,-0.10901450147032737,0.15027707070708274
1733902479224261600,8.48026171875,0.0429781409829855,-0.05883417402356863,0.3158896577119827
1733902479234288400,8.490288330078124,-0.04235270256102085,-0.02076397108733654,0.36741292420029636
1733902479244315400,8.5003154296875,0.04498188202083111,0.030070436353981492,0.36131752993464467
1733902479254341600,8.510341552734374,0.15633330200612544,0.01953442929238081,0.3599152619212866
1733902479264368600,8.52036865234375,0.15964871016442775,0.0328369784578681,0.3731014912307262
1733902479274394600,8.53039453125,0.11023673674166203,0.04649520919322967,0.3348731751233339
1733902479284421400,8.54042138671875,0.024926351463794707,0.0372048182785511,0.2927583729714155
1733902479294447400,8.550447265625,-0.04149462442696094,0.04524433234930038,0.22654607139527796
1733902479304474600,8.560474609375,-0.025972061124444005,0.038862814618647094,0.15946575481295586
1733902479314501600,8.570501708984375,0.0994581530958414,0.02853957352489233,0.08668868789374828
1733902479324527600,8.580527587890625,0.2255862864524126,-0.020461481009423733,0.039973113948106764
1733902479334554400,8.590554443359375,0.20853286032080648,-0.06904957082867622,0.019154782325029374
1733902479344580400,8.600580322265625,0.113004447889328,-0.06783171947151422,0.01070785649716854
1733902479354607600,8.610607666015625,-0.014531798699498175,-0.035658757880330086,-0.003158171769976616
1733902479364634600,8.620634521484375,-0.052314124605059624,0.029920506489276886,-0.04635667750537395
1733902479374660600,8.63066064453125,0.003022562691569328,0.039328970825672147,-0.05956161151528358
1733902479384687400,8.640687255859374,0.04463701410591602,0.004172024987637996,-0.023614099821448326
1733902479394713300,8.65071337890625,0.05241057071685791,0.013348434133827686,-0.007093757653236389
1733902479404740600,8.66074072265625,0.05242752185165882,-0.0014694880306720733,-0.00628068770468235
1733902479414767600,8.670767578125,0.034115035569667815,-0.06560586011558771,-0.015693243694305418
1733902479424793600,8.680793701171876,-0.024980711999535558,-0.1901002547904849,-0.01818155337870121
1733902479434820400,8.6908203125,-0.07029343340992927,-0.2686351545840502,-0.05143441916108131
1733902479444846300,8.700846435546875,-0.10689034892320633,-0.2569631292298436,-0.09451835860610008
1733902479454873600,8.71087353515625,-0.1455038649559021,-0.19947949303239582,-0.1684077706813812
1733902479464900600,8.720900634765625,-0.18233634279072283,-0.03662935647815466,-0.25972587194144725
1733902479474926600,8.730926513671875,-0.13457038300931454,0.17900164541006086,-0.3410053942680359
1733902479484953300,8.740953369140625,0.011186579924821853,0.3338905938267708,-0.34555472813546656
1733902479494979300,8.750979248046875,0.16046294915676115,0.4010854766994715,-0.263387317058444
1733902479505006600,8.761006591796875,0.2017664349257946,0.38251112461090087,-0.12339666256606578
1733902479515033600,8.77103369140625,0.1475116976469755,0.3338219125047326,-0.024331308180093762
1733902479525059600,8.7810595703125,0.07035656177401542,0.2729582784801721,0.05014437935054302
1733902479535086300,8.79108642578125,0.06853694513142108,0.20756226172298192,0.09782733702361583
1733902479545112300,8.8011123046875,0.22372633779942988,0.18319149831533432,0.09695639940798283
1733902479555139600,8.8111396484375,0.3318359993845224,0.22885434833765028,0.10769523556530475
1733902479565166600,8.82116650390625,0.31836803052425383,0.2909565842464566,0.10187865824103355
1733902479575192600,8.831192626953126,0.29049510421454905,0.3222480868279934,0.059877837857604026
1733902479585219300,8.84121923828125,0.3018231384366751,0.3813496796160936,-0.020533669462800025
1733902479595245600,8.85124560546875,0.27002514763772484,0.4309963385775685,-0.054985974162816996
1733902479605272600,8.8612724609375,0.21780513105690477,0.4787567454010248,0.006052724167704582
1733902479615299600,8.871299560546875,0.12507833204269408,0.46039223667085166,0.09474223048985003
1733902479625325600,8.88132568359375,0.08072598009705544,0.3952531172841787,0.17869009524285792
1733902479635352300,8.891352294921875,0.07479483648240566,0.3384294063001871,0.24156243874132632
1733902479645378600,8.901378662109375,0.12184651051461697,0.31349048761576415,0.2718780820280313
1733902479655405600,8.911405517578125,0.21343232280015945,0.30247926425784827,0.23937866496145724
1733902479665432600,8.9214326171875,0.3569721942067146,0.2861912695407867,0.196467159473896
1733902479675458300,8.931458251953124,0.41624855903983116,0.31749826195240016,0.13548574428856372
1733902479685485600,8.941485595703124,0.34525896005928514,0.34126112259477376,0.05025076233446598
1733902479695511600,8.951511474609376,0.2294073060452938,0.37915246183276174,-0.10570961470603943
1733902479705538600,8.96153857421875,0.09222703279852866,0.42143122237473724,-0.3044938189506531
1733902479715565600,8.971565673828126,0.002429272973537445,0.45763650822192425,-0.4867126728415489
1733902479725591300,8.98159130859375,0.0011906710892915725,0.4442155933737755,-0.6537216826409101
1733902479735618600,8.99161865234375,0.046451954573392865,0.4063420820534229,-0.7485486688047647
1733902479745644500,9.00164453125,0.013752046498656273,0.3322828663691878,-0.7442799054443836
1733902479755671600,9.011671630859375,-0.04797346505224705,0.23531711461097002,-0.6781354084074497
1733902479765698600,9.021698486328125,-0.08939034806787967,0.1131698675841093,-0.5880559090316295
1733902479775724300,9.031724365234375,-0.13963292709589004,0.03259673996120691,-0.5109861133545637
1733902479785751600,9.04175146484375,-0.20546821205317972,-0.06202069510519504,-0.43025662612617016
1733902479795777500,9.051777587890625,-0.3833586813509464,-0.1506587635010481,-0.32163024719059463
1733902479805804500,9.061804443359375,-0.5559703334629535,-0.15470307045578954,-0.20573241594731806
1733902479815830500,9.07183056640625,-0.6453437303960323,-0.06509703381061553,-0.05559621501564979
1733902479825857300,9.081857177734374,-0.530245525097847,0.04813771570324898,0.11047522167265414
1733902479835884500,9.091884521484374,-0.2784457699805498,0.05727291605621576,0.26201719774901866
1733902479845910500,9.10191064453125,-0.13738017973303793,-0.024976620346307755,0.4536977074682712
1733902479855937500,9.1119375,-0.1503010361045599,-0.09576368249207734,0.6279395911306143
1733902479865963500,9.121963623046875,-0.2227063471019268,-0.14600626152008772,0.6843091286063194
1733902479875990300,9.131990234375,-0.2647340554922819,-0.18801994138509034,0.6690227121472359
1733902479886017500,9.142017578125,-0.30755846721827984,-0.17829729653298854,0.566020018312335
1733902479896043500,9.15204345703125,-0.35542788737416264,-0.14784487512409686,0.4107856174588203
1733902479906070500,9.162070556640625,-0.34862522162199017,-0.07831248921453952,0.25420038651823995
1733902479916096500,9.172096435546875,-0.29779286000728605,0.06661416037529706,0.1089607254564762
1733902479926123300,9.182123291015625,-0.24998656821548937,0.21270926922261713,-0.04816109657883644
1733902479936150500,9.192150634765625,-0.14438918171226978,0.25354835235029455,-0.1334779115974903
1733902479946176500,9.202176513671875,-0.05948620819151401,0.21513971123993395,-0.1883458123385906
1733902479956203500,9.21220361328125,-0.18790858996510504,0.1419096398562193,-0.2643804197490215
1733902479966229500,9.2222294921875,-0.4207113836675882,0.07439385446608066,-0.3469558271050453
1733902479976256500,9.232256591796874,-0.5296101498037576,-0.00040770401805639264,-0.41059623236656184
1733902479986283500,9.242283447265624,-0.4880740243226289,-0.018933833050727843,-0.44378129360973834
1733902479996309500,9.2523095703125,-0.36993279806673524,-0.08145517115443944,-0.39984745933711524
1733902480006336500,9.26233642578125,-0.3080179014235735,-0.14554536601006984,-0.3310521555304527
1733902480016362500,9.272362548828125,-0.29890578968524933,-0.1736184910669923,-0.33264088602662084
1733902480026389500,9.282389404296875,-0.2830062097638845,-0.22398674230128526,-0.3757826931387186
1733902480036416500,9.29241650390625,-0.21141396871507168,-0.27675533267557617,-0.3498018641859293
1733902480046442500,9.3024423828125,-0.1805652414649725,-0.2849889080137014,-0.25757833851873874
1733902480056469500,9.312469482421875,-0.1590022289544344,-0.2114101693227887,-0.2085977422505617
1733902480066496300,9.322496337890625,-0.2143108592003584,-0.08947071982771157,-0.13870412181317807
1733902480076523300,9.332523193359375,-0.1155664073318243,0.06167524266839027,-0.06690203740596772
1733902480086549200,9.34254931640625,0.13537234704196452,0.1989209823668003,0.047342181411385534
1733902480096576300,9.352576171875,0.3776683607548475,0.32758331037610766,0.14859072505533694
1733902480106603300,9.362603271484375,0.5073328515440225,0.48448330635428427,0.21545827566981315
1733902480116629200,9.372629150390624,0.5033908359199762,0.5856409568443894,0.19294833769798278
1733902480126656300,9.38265625,0.6232137316524982,0.6096116150185465,0.1472802269786596
1733902480136682200,9.39268212890625,0.8985282178699969,0.5458543053790926,0.06809270849525928
1733902480146709200,9.402709228515626,0.9884358678102493,0.44840866114944217,-0.00388473247885704
1733902480156736300,9.412736328125,0.9961468805789947,0.3910018895804882,-0.02608428932726383
1733902480166762200,9.42276220703125,0.9615712417602539,0.3142299078062177,0.03931260421276092
1733902480176789200,9.432789306640625,0.8272183008939027,0.2677949043676257,0.16864684013426304
1733902480186815200,9.442815185546875,0.6199620363801718,0.13712562045007942,0.3165039902180433
1733902480196842200,9.45284228515625,0.3471604097664356,-0.026692776614427566,0.4704220477759838
1733902480206869200,9.462869140625,0.24895605612397192,-0.1404217393860221,0.5689519801110029
1733902480216895200,9.472895263671875,0.3549053248047829,-0.25916882258057594,0.5708750571280717
1733902480226922200,9.482922119140625,0.20786007562577724,-0.27272768459469077,0.5786901147931813
1733902480236948200,9.4929482421875,0.02250233918726444,-0.16218611968755722,0.5430170361265539
1733902480246975200,9.502975341796875,0.017639701586961744,-0.06506868449896573,0.4722112692803144
1733902480257002200,9.513002197265624,0.07915946143269538,-0.013723697187006473,0.41532296862751245
1733902480267028200,9.5230283203125,0.18847791428565977,-0.01870177786052227,0.35408377928882834
1733902480277055200,9.53305517578125,0.2263046638548374,-0.07421528302878141,0.31191373981833453
1733902480287081200,9.543081298828126,0.11551438488364218,-0.19231150109916925,0.2771951853975653
1733902480297108200,9.553108154296876,-0.07829553807973862,-0.279791923892498,0.294848038727045
1733902480307134200,9.56313427734375,-0.27316578375101086,-0.2785717344477773,0.2801639720752835
1733902480317161200,9.5731611328125,-0.35420857471227646,-0.22999971898049115,0.23070377559661864
1733902480327188200,9.583188232421875,-0.26595979789495466,-0.22277707425057885,0.18745237063020467
1733902480337214200,9.593214111328125,-0.2074006414204836,-0.3030865825012326,0.13954320298582315
1733902480347241200,9.6032412109375,-0.4136591270685196,-0.4039557714387774,0.11255056664198636
1733902480357267200,9.61326708984375,-0.5361036034762859,-0.42984979889094826,0.02720364874601364
1733902480367294200,9.623294189453125,-0.4465490047574043,-0.4760869416698813,-0.046725510817766186
1733902480377321200,9.6333212890625,-0.3619225100904703,-0.5218722490280866,-0.05781184523850679
1733902480387347200,9.64334716796875,-0.34353052883148194,-0.5490735596865415,-0.03958148428201675
1733902480397374200,9.653374267578124,-0.3422977721661329,-0.5299506338045,-0.017405600570142267
1733902480407400200,9.663400146484374,-0.2575011816293001,-0.4886401337727904,0.005609656575322151
1733902480417427200,9.67342724609375,-0.2173205624103546,-0.46152708591967817,0.06553396392315626
1733902480427454200,9.6834541015625,-0.08188742509186267,-0.4129895572438836,0.15859569398015735
1733902480437480200,9.693480224609376,0.09923077408075331,-0.39473084697574373,0.29217794273495673
1733902480447507200,9.703507080078126,0.17462708358764648,-0.4098132652953267,0.3992448172688484
1733902480457533400,9.713533447265625,0.17972177637815476,-0.39237434697747225,0.41707156586050986
1733902480467560200,9.723560302734375,0.17597031489014625,-0.31027240235209463,0.3579112286224961
1733902480477587200,9.733587158203125,0.17609364900887012,-0.2109051424100995,0.2566305362746119
1733902480487613200,9.74361328125,0.17798048566877842,-0.16323562874048947,0.11493600047379732
1733902480497640200,9.75364013671875,0.21002339113950727,-0.11314502540379762,-0.02476853055357933
1733902480507666400,9.76366650390625,0.1410591605067253,-0.07286532972455025,-0.10448679491281508
1733902480517693200,9.773693115234375,0.04807867899239063,0.01483048938512802,-0.16796324178427458
1733902480527719200,9.78371923828125,0.07453004806637764,0.09944090970009564,-0.23830460598915815
1733902480537746200,9.79374609375,0.08384966507554054,0.15361615200191736,-0.2366881107032299
1733902480547773200,9.803773193359374,0.12349077059030532,0.20981471682488917,-0.18443623767942188
1733902480557799400,9.81379931640625,0.14030045109391212,0.22186814271211622,-0.10479483794867991
1733902480567826200,9.823826171875,0.05752689081728458,0.24003917469680308,-0.02496492990851402
1733902480577852200,9.83385205078125,-0.036064416071772576,0.24363661466687916,0.03274666982591152
1733902480587879200,9.843879150390626,-0.030152561679482458,0.2187868355706334,0.11523352211564779
1733902480597906400,9.853906494140626,-0.003081599402427673,0.1425192961871624,0.1788163519710302
1733902480607932400,9.863932373046875,0.0031108254969120022,0.08625146552026271,0.24537965894192457
1733902480617959200,9.873959228515625,0.03906242884397507,0.0025187048226594923,0.2994762830495834
1733902480627985200,9.883985107421875,-0.08514613462686538,-0.07298369540721178,0.29888036298304793
1733902480638012200,9.89401220703125,-0.20183423946499823,-0.06140402451157569,0.25665274810642
1733902480648039400,9.904039306640625,-0.1844517275094986,0.016954349671304225,0.2285331535592675
1733902480658065400,9.9140654296875,-0.09892799174189568,0.09575023848861455,0.21314123089909554
1733902480668092200,9.924092041015625,-0.035817747834324835,0.1327986971616745,0.1801183744803071
1733902480678118100,9.9341181640625,-0.050239656418561936,0.16737024432718753,0.1480976808413863
1733902480688145200,9.944145263671874,0.00405073669552803,0.2809773342847824,0.10973521696031092
1733902480698171100,9.954171142578126,0.10278817430138587,0.4134823091968894,0.07350947284698486
1733902480708198400,9.964198486328126,0.16970891640782354,0.5513894354134797,0.021610358783602714
1733902480718225200,9.97422509765625,0.20570552794039249,0.6629188423141836,-0.02591653154492378
1733902480728251100,9.984251220703126,0.23582652543783186,0.7380866037622094,-0.06299976927042007
1733902480738278100,9.994278076171875,0.26073183411359785,0.8088733736470342,-0.07431874340325594
1733902480748304100,10.00430419921875,0.30589316435456276,0.826593154732883,-0.08230448146015405
1733902480758331400,10.014331298828125,0.33799978271126746,0.760405695337057,-0.09242723154574632
1733902480768358100,10.024358154296875,0.31066695462763305,0.5850768932208419,-0.10121113424301147
1733902480778384100,10.034384033203125,0.21644611766338348,0.3279512669056654,-0.07694149312227964
1733902480788411100,10.0444111328125,0.010264204382896422,0.10376461811810732,-0.06867050838321447
1733902480798437400,10.054437255859375,-0.1900239746838808,-0.004335983377695083,-0.13692717526853085
1733902480808464400,10.06446435546875,-0.20139000282883643,-0.03478431313335895,-0.20044541545510292
1733902480818490400,10.074490478515624,-0.17661095088124273,-0.06734452047646046,-0.2167088602527976
1733902480828517000,10.08451708984375,-0.1602308939665556,-0.13209142567515372,-0.16643004086762667
1733902480838544100,10.094544189453124,-0.11775661085247993,-0.17946809387803075,-0.041074937710165974
1733902480848570400,10.1045703125,-0.1648398490667343,-0.22523381975293158,0.09587561843395233
1733902480858597400,10.114597412109376,-0.18219605753719806,-0.24729835204482076,0.22646423833072185
1733902480868623400,10.124623291015626,-0.1896276688426733,-0.2461860068887472,0.31180092709362506
1733902480878650000,10.134650146484375,-0.1682557949900627,-0.2603039640903473,0.32864187951833007
1733902480888677400,10.144677490234375,-0.12916589361727238,-0.3157908735126257,0.2954842908039689
1733902480898703400,10.154703369140625,-0.08080021437704563,-0.4044733655720949,0.24117051681429147
1733902480908730400,10.16473046875,-0.15248890153765676,-0.5072185775145888,0.18315116630494593
1733902480918756400,10.17475634765625,-0.21055998223423958,-0.5513496879249811,0.09972031116336584
1733902480928783000,10.184783203125,-0.289447056466341,-0.5807938090741634,0.03115677028596401
1733902480938810400,10.194810302734375,-0.23349194501042364,-0.5465569006904959,-0.025417057590186594
1733902480948836400,10.20483642578125,-0.19030279162526129,-0.4571355729624629,-0.07406418412029743
1733902480958863400,10.21486328125,-0.25027006133198737,-0.3455900917097926,-0.10929741006493568
1733902480968889300,10.224889404296874,-0.37276714470982547,-0.2374853985607624,-0.1340983815833926
1733902480978916000,10.234916015625,-0.24519874941706657,-0.11937953587919473,-0.09869710559546947
1733902480988942000,10.244942138671876,-0.04082593138515949,-0.08739245224893093,-0.022042904981970785
1733902480998969300,10.25496923828125,-0.03313829949200153,-0.11257891595363616,0.04198825316280126
1733902481008996400,10.264996337890626,-0.014085223975777625,-0.12726532069295643,0.09956249025315046
1733902481019022300,10.275022216796875,-0.051452539339661596,-0.12374942152649164,0.13847089757919312
1733902481029049000,10.285049072265625,-0.09137713797092437,-0.09310995311290025,0.17453297556340694
1733902481039075000,10.295074951171875,-0.06935878290832043,-0.06029723231345415,0.216295895537734
1733902481049102300,10.305102294921875,-0.04172375700771808,-0.08529606449156998,0.281265211315453
1733902481059129300,10.31512939453125,0.0498053566545248,-0.11942775893509387,0.3119461807832122
1733902481069154600,10.325154541015625,0.24971184292733667,-0.17109101841598748,0.33231004663705827
1733902481079181600,10.335181640625,0.4124941749423742,-0.1932543349072337,0.3285670607164502
1733902481089207600,10.34520751953125,0.45719081028103825,-0.14102321241050958,0.2611708100527525
1733902481099234600,10.355234619140624,0.48940264257788657,-0.003071370269358158,0.14905541995763777
1733902481109261600,10.365261474609374,0.6240823311805724,0.2134083574026823,0.043834173290431495
1733902481119287800,10.375287841796874,0.7105331186652183,0.44675592550635335,-0.042274961149692536
1733902481129314600,10.385314453125,0.6614204204499721,0.625495120587945,-0.10283230570405721
1733902481139340500,10.395340576171876,0.6421767907977104,0.7331181676998734,-0.14009382260590791
1733902481149367600,10.405367431640625,0.6178659408837557,0.7644543862059712,-0.1258317807585001
1733902481159393500,10.4153935546875,0.5178080683290958,0.751791303987801,-0.06461538777351379
1733902481169420800,10.4254208984375,0.3573416120409965,0.7537079512640833,0.018846154767274855
1733902481179447600,10.435447509765625,0.24414076479673386,0.6962003496691584,0.17756489060521125
1733902481189473500,10.4454736328125,0.22623744383752345,0.5505933165997267,0.3711927349999547
1733902481199500500,10.45550048828125,0.2509709030777216,0.35831308742165563,0.4693059032276273
1733902481209526500,10.465526611328125,0.15855799231827258,0.1691232254743576,0.5223188237518072
1733902481219553800,10.4755537109375,-0.009601941081881523,0.04888736502677202,0.4943599727243185
1733902481229579800,10.485579833984374,-0.11138239964544773,0.005733282954990863,0.39023470460027454
1733902481239606500,10.4956064453125,-0.04381926798224449,-0.023011165492236613,0.2801306543275714
1733902481249633500,10.505633544921874,-0.04845861822068691,-0.14364362404197453,0.19006635252088308
1733902481259659500,10.515659423828126,-0.1625438470840454,-0.2299696161031723,0.08627893804907798
1733902481269686800,10.525686767578126,-0.37363925136923787,-0.32716479270309207,-0.046131052055954934
1733902481279712800,10.535712646484376,-0.5476408965349197,-0.3189563518062234,-0.15029051471054553
1733902481289739500,10.545739501953125,-0.5582043761253357,-0.2597843241304159,-0.2102875950336456
1733902481299766500,10.5557666015625,-0.5079460150063038,-0.24738661485016344,-0.1907455669566989
1733902481309792500,10.56579248046875,-0.4088134406030178,-0.28999621478170157,-0.1638514225512743
1733902481319819800,10.57581982421875,-0.30925884139537807,-0.3449576390251517,-0.09729571436494588
1733902481329845800,10.585845703125,-0.28762802434563634,-0.4140612781286239,-0.024496727874875068
1733902481339872500,10.59587255859375,-0.32798750726282594,-0.4119137447059154,0.024197160406410692
1733902481349899500,10.6058994140625,-0.3266834389269352,-0.3523687920644879,0.021348492977023122
1733902481359925500,10.615925537109375,-0.2399380524098873,-0.29349457829147574,-0.006365151117742061
1733902481369952800,10.625952880859375,-0.06797054342031479,-0.267094939404726,-0.0642179128885269
1733902481379978800,10.635978759765624,-0.038591888722777364,-0.2758285732194781,-0.08866086474955082
1733902481390005500,10.646005615234374,-0.10890636492073535,-0.21282734264433384,-0.12038228318095207
1733902481400031500,10.656031494140626,-0.1255646542549133,-0.16598375840485094,-0.20667320392876862
1733902481410058500,10.66605859375,-0.20446224988102912,-0.08324117778837681,-0.23757220006138086
1733902481420085800,10.676085693359376,-0.26024142024815083,-0.028234745359420773,-0.18875176279097794
1733902481430111700,10.68611181640625,-0.2393582066953182,0.013882687141001224,-0.07394932556897402
1733902481440138500,10.696138427734375,-0.12772154002785682,-0.036571488811075685,0.0157660166695714
1733902481450164500,10.70616455078125,-0.045566988432407377,-0.0606195961356163,0.04013181164115667
1733902481460191700,10.716191650390625,0.010289923346042633,-0.002615443195402622,-0.026209961533546447
1733902481470218800,10.72621875,0.11481062052845954,0.11709054815918206,-0.17380056963562965
1733902481480244700,10.73624462890625,0.2116600524306297,0.25140228023231026,-0.28797639939188957
1733902481490271500,10.746271484375,0.25203473291695117,0.3877598389193415,-0.31305998724400996
1733902481500297500,10.75629736328125,0.32083295933306216,0.5347200401633978,-0.28214696258604527
1733902481510324700,10.76632470703125,0.4260276102542877,0.5805757824093103,-0.21321838778853416
1733902481520350700,10.776350830078124,0.4433335498422384,0.6276672039300203,-0.09826689748466014
1733902481530377700,10.786377685546874,0.48034839850664135,0.7295499538242817,0.06413724886775016
1733902481540404500,10.796404541015624,0.520416789522767,0.7792559417575597,0.2142035994336009
1733902481550430500,10.806430419921876,0.4893430213451385,0.7493485870108008,0.36005759300142526
1733902481560457700,10.816457763671876,0.4427081114202738,0.7165355739504099,0.43499446830302474
1733902481570483700,10.826483642578125,0.3467138350427151,0.6495777147039771,0.4495943638026714
1733902481580510700,10.8365107421875,0.23272037611603735,0.5264359036818146,0.43807694448828693
1733902481590537500,10.846537353515625,0.1798889496386051,0.4338540660962462,0.43614363833814856
1733902481600563500,10.8565634765625,0.24831074395775793,0.3579214577555656,0.4564347312167287
1733902481610590700,10.8665908203125,0.45368835511803624,0.23813334107547998,0.5034329214960337
1733902481620616700,10.87661669921875,0.624047844389081,0.06839198370277881,0.6042965574756264
1733902481630643700,10.886643798828125,0.2402168693512678,0.05345306550711393,0.7009267936691641
1733902481640669700,10.896669677734375,-0.004210311171412468,0.20149872390031814,0.6751850341692567
1733902481650696400,10.906696533203124,0.12193944949507712,0.27259178325533867,0.5021522340357303
1733902481660723700,10.9167236328125,0.2216553767442703,0.22619418921768664,0.3089434918358922
1733902481670749700,10.926749755859374,0.05891980648040771,0.1117974101871252,0.16164222206920384
1733902481680776700,10.936776611328124,-0.1397170982480049,-0.01179360590726137,0.00013064064234495163
1733902481690802700,10.946802734375,-0.1806909136712551,-0.12819617180228232,-0.14630378316193818
1733902481700829400,10.956829345703126,-0.14711188467442987,-0.18024229312092066,-0.1786871726334095
1733902481710856700,10.966856689453126,-0.18827917684316633,-0.16289602152258156,-0.11916852347701787
1733902481720882700,10.976882568359375,-0.4239882133811712,-0.10368395409733057,-0.05092705416083335
1733902481730909700,10.98690966796875,-0.511916087681055,-0.03605623276531696,-0.029787527759373187
1733902481740935700,10.996935791015625,-0.3739677526712417,-0.047203941984474654,-0.05292524224072694
1733902481750962700,11.006962646484375,-0.2554968560695648,-0.13073445810824633,-0.136350544424355
1733902481760988700,11.01698876953125,-0.24919571009874342,-0.20404110185950994,-0.19668898553103206
1733902481771015700,11.027015625,-0.32432313953638076,-0.2552361593067646,-0.24343115522265432
1733902481781042700,11.037042724609375,-0.43707975014448164,-0.25434417890310285,-0.25586276677250863
1733902481791068700,11.047068603515624,-0.35758535766899585,-0.24369185198545454,-0.2826572501957416
1733902481801095700,11.057095703125,-0.1809516104340553,-0.3023553456172347,-0.29704291842281816
1733902481811121700,11.06712158203125,-0.06271569163203239,-0.38441958858072756,-0.25375205822885033
1733902481821148700,11.077148681640624,-0.08466974928677082,-0.5090957695633173,-0.1796776449754834
1733902481831175700,11.08717578125,-0.29275661940574643,-0.594599339325726,-0.16728607317507266
1733902481841201700,11.09720166015625,-0.35869653378129,-0.6222372878357768,-0.21523352700322865
1733902481851228700,11.107228759765626,-0.4056067535161972,-0.6650882953077555,-0.2823594362929463
1733902481861254700,11.117254638671875,-0.4786217208445072,-0.7266147771552205,-0.30876930431276556
1733902481871281700,11.12728173828125,-0.5708236192017794,-0.7789072744503617,-0.2997273352012038
1733902481881307600,11.1373076171875,-0.6118026953220367,-0.7632862192094325,-0.21400223164260387
1733902481891334700,11.147334716796875,-0.491098925101757,-0.7158356089875102,-0.1223591362118721
1733902481901361700,11.157361572265625,-0.26572131296396256,-0.7078019401356578,-0.012514029136300087
1733902481911387600,11.1673876953125,-0.04071428770422935,-0.7181848024621605,0.0700964495331049
1733902481921414700,11.17741455078125,0.041377135527133936,-0.6976788977891206,0.12715630736052988
1733902481931440600,11.187440673828124,0.057330491462349885,-0.6233911340460181,0.2002887635886669
1733902481941467600,11.197467529296874,-0.09855389773249626,-0.5689540259376168,0.22691198209822178
1733902481951494700,11.20749462890625,-0.2729986104905605,-0.47255993658751244,0.17829115905314682
1733902481961520600,11.217520751953124,-0.21029168668687342,-0.371783394369483,0.04483224441707134
1733902481971547600,11.227547607421876,-0.18545125994086264,-0.3377300258591771,-0.09694909288436174
1733902481981573600,11.23757373046875,-0.16738251928687095,-0.3640834875166416,-0.2322489592120051
1733902481991600600,11.2476005859375,-0.12113514737486838,-0.3956374404266476,-0.2938005755007267
1733902482001626600,11.257626708984375,-0.09895955592393875,-0.3290983911141753,-0.2514361825019121
1733902482011653600,11.267653564453125,-0.07387187641859054,-0.12909984264373778,-0.21084376761168241
1733902482021680600,11.2776806640625,0.017887538868188856,0.10621318031400441,-0.15942600732445716
1733902482031706600,11.28770654296875,0.12850304579436778,0.24055004682838915,-0.12519757450819013
1733902482041733400,11.2977333984375,0.24201427416205404,0.16509674643725156,-0.28004502187073227
1733902482051759600,11.307759521484375,0.24227029474973677,-0.20293226383477447,-1.3428256443083286
1733902482061786600,11.31778662109375,-0.2811766562491655,-0.8274313591226935,-3.9072032538622614
1733902482071812600,11.3278125,-3.270062119144201,-3.058591159544885,-13.122456802231072
1733902482081839600,11.337839599609374,3.681799338239431,-2.3106094769731165,-4.500293357668816
1733902482091866600,11.34786669921875,3.725047528335452,0.4513324396416545,5.775180899521708
1733902482101892600,11.357892578125,-2.5982448078423737,0.5490691757723689,3.147689831189811
1733902482111919600,11.367919677734376,-3.8977456896871328,1.318956400682032,3.0226269889771937
1733902482121945600,11.377945556640626,-2.3369629386305806,2.1288944809511303,3.8613723537966607
1733902482131972600,11.38797265625,-0.007411153039336204,2.300541087423265,4.367904118090868
1733902482141998600,11.39799853515625,1.635358391830325,1.917626934969425,4.1286683687314385
1733902482152025600,11.408025634765625,2.4142156896591187,1.297894907952845,3.3490453472271557
1733902482162052600,11.418052490234375,2.7801100259900093,0.749031191624701,2.345032263317704
1733902482172078600,11.42807861328125,2.523796592840552,0.5475137630239129,1.4250687509700655
1733902482182105600,11.438105712890625,1.4190087202787398,0.5868593927234411,0.8165224270954727
1733902482192131600,11.448131591796875,0.3631026597857475,0.5818462407365441,0.4334913702636957
1733902482202158600,11.45815869140625,-0.3935392991036176,0.418578171031177,0.22125205664038658
1733902482212185600,11.468185546875,-0.9080202688366175,0.18179039934575555,0.053610886417329306
1733902482222211600,11.478211669921874,-0.6941565688818693,0.010702888061106204,-0.07519757206439971
1733902482232238600,11.488238525390624,-0.05019990893006324,-0.19008096556812523,-0.31525399015694855
1733902482242264600,11.4982646484375,0.4530786987870931,-0.18068769880086183,-0.34289076962321996
1733902482252291600,11.50829150390625,0.7815133652955293,-0.10083879379928111,-0.35031595118790865
1733902482262317600,11.518317626953126,1.0594213751375674,0.08884615818858146,-0.2101180836856365
1733902482272344600,11.528344482421875,1.0876210491836071,0.36155952199697494,0.02425736616104841
1733902482282371600,11.53837158203125,0.9094657914698123,0.5941352289453149,0.3631885845035314
1733902482292397600,11.5483974609375,0.5807318497538566,0.7210387305885553,0.6591703034356237
1733902482302424600,11.558424560546875,0.28549276588261124,0.7478530877560376,0.8712973888561129
1733902482312450600,11.568450439453125,-0.08150982395112515,0.7357479316815734,0.8040104437857866
1733902482322477600,11.5784775390625,-0.32703181397318837,0.6076046591103077,0.5338809589907527
1733902482332504600,11.588504638671875,-0.25795886226892467,0.4853066054359078,0.26482144151479003
1733902482342530800,11.59853076171875,-0.27284078958034513,0.2356613980039954,-0.003235328659415245
1733902482352557600,11.6085576171875,-0.3266016058623791,-0.0625233839303255,-0.3243795458987355
1733902482362583600,11.61858349609375,-0.2877168716728687,-0.34180063629895446,-0.6021729894503951
1733902482372610600,11.628610595703124,-0.3256774767547846,-0.551480328567326,-0.7851715955421328
1733902482382636500,11.638636474609376,-4.549118763375282,-2.3053464418783784,-2.008962571886182
1733902482392663800,11.648663818359376,-13.093297343242167,-6.50428369410038,-5.386065262079239
1733902482402690600,11.658690673828126,4.766366845071316,0.6935650327295064,0.08779840270131826
1733902482412716500,11.668716552734375,4.183584492528438,1.3341934250414371,1.5725851247921585
1733902482422743600,11.67874365234375,-0.10053718050420284,-0.06760112558603286,0.31577596820443865
1733902482432769500,11.68876953125,-1.633552803713083,-0.5612573339551686,-0.6137935768783093
1733902482442796800,11.698796875,0.287999780267477,-0.0748909903332591,-0.3538917638480663
1733902482452822800,11.70882275390625,0.9764327108055353,0.24613486122339961,0.08313099541217088
1733902482462849500,11.718849609375,0.101109427434206,0.2031456143245101,-0.17654285408109424
1733902482472876500,11.72887646484375,0.27398528344035145,0.34243308898359537,-0.13576689931750296
1733902482482902500,11.738902587890625,0.35973347561359403,0.3160407566204667,0.13529635919630525
1733902482492929800,11.7489296875,0.480572854912281,0.14833353542387484,0.4915510527834296
1733902482502955800,11.758955810546874,0.5159866981208324,-0.21550094576776027,0.479750432613492
1733902482512982500,11.768982421875,0.4362450528860092,-0.5396069354221225,0.19392390473186968
1733902482523009500,11.779009521484374,0.17682020971775053,-0.7283546065598726,-0.056765843316912645
1733902482533035500,11.789035400390626,-0.16416355724036694,-0.7088707384109497,-0.14515432086586952
1733902482543062800,11.799062744140626,0.06739771196842194,-0.3963365286067128,0.09825725287348032
1733902482553088800,11.8090888671875,-0.16119243247509002,-0.09913900414407252,0.23429624713063238
1733902482563115500,11.819115478515625,-0.642300709438324,0.009683189624547959,0.22081220391839743
1733902482573141500,11.8291416015625,-0.8486550566762685,0.22574060023128986,0.5621504834026098
1733902482583168500,11.83916845703125,-1.035260747349262,0.6902361805677414,1.174730300576985
1733902482593195800,11.84919580078125,-0.49389761590957637,1.3144848082259297,0.46779345283806323
1733902482603221800,11.8592216796875,0.09425649279952049,1.9563402581147848,-0.8931988395407795
1733902482613248500,11.86924853515625,0.42320144691765305,1.7995958910897374,-0.29366467416137454
1733902482623274500,11.8792744140625,0.6965794121146202,1.6769596915021538,0.5885504145503043
1733902482633301500,11.889301513671874,1.0609329487442969,1.3490527021296321,1.173213758534193
1733902482643328800,11.899328857421875,1.4081862974911927,0.7072264783352613,0.13956570707857607
1733902482653354800,11.909354736328124,1.180354862460494,0.19334902745336294,-1.0999942085444927
1733902482663381500,11.919381591796874,0.8504431091368198,-0.08990341215655206,-1.430670224238932
1733902482673407500,11.929407470703126,0.8783364937126636,-0.710325759524852,-1.5717048348262905
1733902482683434800,11.939434814453126,1.023183356064558,-1.1358647094793617,-1.2582011954680083
1733902482693460700,11.949460693359375,1.5889321562200784,-1.068114969202876,-0.7441589094132185
1733902482705367600,11.961367431640625,1.9050842642605303,-0.7524762175120413,-0.3236182061374187
1733902482715394600,11.97139453125,1.2538479686945676,-0.1577209569722414,1.590506858190894
1733902482725420800,11.9814208984375,1.1217185490965842,0.035947219432890413,2.6302798222675916
1733902482735447600,11.991447509765624,1.2733049488365649,0.17875585395544766,3.1548131071984766
1733902482745473500,12.0014736328125,1.0904676707863807,0.38086803357899185,3.339623438887298
1733902482755500500,12.01150048828125,0.1531675314515829,0.5226078698262572,2.813932800614834
1733902482765526500,12.021526611328126,-0.9915800110548734,0.5279387094601988,1.9027423773095011
1733902482775553800,12.0315537109375,-1.3607856638908384,0.5668932940155267,1.1363026625052093
1733902482785580500,12.04158056640625,-1.584408541315794,0.6028863984167575,0.5216635747134685
1733902482795606500,12.0516064453125,-2.2104256399512288,0.44082302832603454,-0.13612842610627413
1733902482805633500,12.061633544921875,-2.60313725605905,0.14220306984484196,-0.9725321962356567
1733902482815659500,12.071659423828125,-2.0811405038684607,-0.15309709656387566,-1.9787597413241862
1733902482825686800,12.081686767578125,-1.0397048672765492,-0.453552746039629,-2.4843030791029332
1733902482835712800,12.091712646484375,0.010633037695288658,-0.6735907507151365,-2.005964851374924
1733902482845739500,12.101739501953125,0.5012643452852964,-0.5813482280865311,-1.0778042963072656
1733902482855766500,12.1117666015625,0.375951619964838,-0.3312789500236511,-0.23513562056422233
1733902482865792500,12.12179248046875,0.040213936966657635,-0.24960487542152404,0.4203267682641744
1733902482875819800,12.13181982421875,-0.05881342349648475,-0.0901668853983283,0.46218642661124465
1733902482885845800,12.141845703125,0.02925415153503418,0.04886719902157783,0.2266974625647068
1733902482895872500,12.15187255859375,0.03189619047641754,0.12328852601647376,-0.05799596963375806
1733902482905899500,12.1618994140625,-0.013069909453392028,0.09273264423310756,-0.3019765754327178
1733902482915925500,12.171925537109376,-0.10417816735506057,0.06586012713760137,-0.5375102554038167
1733902482925952800,12.181952880859376,-0.17949790449440478,-0.011498714613914489,-0.7344236973404884
1733902482935978800,12.191978759765625,-0.18168109375238417,-0.06424830802679062,-0.7710358104228973
1733902482946005500,12.202005615234375,0.0769932233095169,0.05257774397730827,-0.8275207909718155
1733902482956031500,12.212031494140625,0.2756874111831188,0.40704409284293647,-1.1008397194579242
1733902482966058800,12.222058837890625,0.33759880069494247,0.2906047020688653,-1.6533151965424417
1733902482976085800,12.232085693359375,0.1680418599784374,-0.5710661957859993,-1.711346529750526
1733902482986111700,12.24211181640625,-0.38269934065937994,-0.3783823542430997,-0.6741814100846648
1733902482996138500,12.252138427734375,-0.9799503635376692,-0.05600479581654071,0.4750222350478172
1733902483006164500,12.26216455078125,-1.0891788000196219,0.20372370647341012,1.2048989366084337
1733902483016191700,12.272191650390624,-0.7338929514646529,0.5979746609777212,1.5428385135650633
1733902483026217700,12.2822177734375,0.2498714174032211,0.8280082822278142,1.007786172707379
1733902483036244700,12.29224462890625,0.8272703233420848,0.5677949190303683,-0.08061872033029795
1733902483055670500,12.31167041015625,0.5464367814421653,-0.14295797986537218,-0.9171060770899057
1733902483065697000,12.321697021484376,0.058683075115084644,-0.1208773732215166,-0.41759208260327574
1733902483075723800,12.331723876953125,-0.25789690294861795,0.0038449849903583523,0.2733580914527178
1733902483085750800,12.341750732421875,-0.27799861073493953,0.027395079664885996,0.7297361240461469
1733902483095776800,12.35177685546875,-0.19914953042566774,0.000049099838733673096,0.8325915183648467
1733902483105804000,12.361803955078125,0.08939210163354873,0.06260141760259866,0.5462886051431298
1733902483115830000,12.371830078125,0.5043897838294505,0.11127280179113148,0.09305851518660783
1733902483125856800,12.381856689453125,0.6161901166260242,0.1220560616120696,-0.20593495278209448
1733902483135883800,12.3918837890625,0.49049686755537986,0.1449827636912465,-0.21613193714767692
1733902483145909800,12.40190966796875,0.3451028927147388,0.19924276166707275,-0.0648112026065588
1733902483155937000,12.41193701171875,0.125731242993474,0.19305676650851963,0.10357610980868338
1733902483165963000,12.421962890625,-0.009788403564691543,0.12269348273277282,0.22043255695104597
1733902483175989800,12.43198974609375,-0.059385085904598234,-0.010516425578296185,0.2550143332496285
1733902483186015700,12.442015625,-0.014314941078424452,-0.11272270833849907,0.24210312148928642
1733902483196042800,12.452042724609376,0.05389058014154434,-0.16230331632643938,0.21940262938141822
1733902483206070000,12.462070068359376,0.05826864909529686,-0.19662059646993874,0.2294809558033943
1733902483216096000,12.472095947265625,-0.026533786660432813,-0.2217518228560686,0.25560762296766043
1733902483226122800,12.482122802734375,-0.09806114577949046,-0.23462679425925015,0.2963134351044893
1733902483236148700,12.492148681640625,-0.08024959475696086,-0.23197715653330087,0.3169192930206656
1733902483246175700,12.50217578125,-0.07114800441265105,-0.20710399656146763,0.3325555458307266
1733902483256202000,12.512201904296875,-0.051233343631029125,-0.15564561200290916,0.3412386185020208
1733902483266229000,12.52222900390625,-0.012450316250324249,-0.009731704941391944,0.29186493126302954
1733902483276255700,12.532255859375,-0.004867313775420189,0.14573738145083187,0.22229367464780805
1733902483286281700,12.54228173828125,0.10361585729718208,0.252851894518733,0.13731062162816524
1733902483296308700,12.552308837890624,0.19051205046176908,0.31248072605133054,0.06693418610990047
1733902483306335000,12.5623349609375,0.1939145523816347,0.38083120869994164,0.025244915893673895
1733902483316362000,12.572362060546874,0.20018997938930988,0.37402708164304493,0.00010638298392295837
1733902483326388700,12.582388671875,0.10977788705825806,0.3547746841624379,-0.019157704934477805
1733902483336414700,12.592414794921876,0.0376058002948761,0.3287897635564208,-0.01034019222855568
1733902483346442000,12.60244189453125,0.053210196661949156,0.2654053788825869,0.011716449017822742
1733902483356468000,12.612468017578125,0.17241759084463118,0.18143384099304674,0.03353811246454715
1733902483366495000,12.622494873046875,0.16869301736354828,0.1146665358826518,0.06349164444059133
1733902483376521700,12.632521728515625,0.10097148026823997,0.08533288937062025,0.10502104791998862
1733902483386547700,12.642547607421875,0.09760404966175555,0.04621609999090433,0.11286854654997587
1733902483396575000,12.652574951171875,0.1684346586883068,-0.026387363927066323,0.12207330500781535
1733902483406601000,12.66260107421875,0.18206570915579795,-0.13962094439715148,0.11794891855418681
1733902483416628000,12.6726279296875,0.09766483993828295,-0.22212094842940566,0.1237418227419257
1733902483426654000,12.682654052734375,-0.04358312113881111,-0.2514671621620655,0.09317571182548999
1733902483436680700,12.6926806640625,-0.1279927581846714,-0.2381274958565831,0.07430646844357251
1733902483446708000,12.7027080078125,-0.212235806491971,-0.20058219357728957,0.02474719550460577
1733902483456734000,12.71273388671875,-0.21562427988648414,-0.10849515377134084,-0.07464753696620464
1733902483466761000,12.722760986328124,-0.04668927046060562,-0.03526479012668132,-0.2021750157266855
1733902483476787000,12.732786865234376,0.14088029680848121,-0.005517594377696514,-0.30638883891701696
1733902483486813700,12.742813720703126,0.09215572112798691,-0.008776303912699223,-0.33627193600535393
1733902483496841000,12.752841064453126,-0.046508068674802776,-0.02503156540393829,-0.2844558240503073
1733902483506867000,12.762866943359375,-0.18437807775139808,-0.06471358745098113,-0.17858897295594214
1733902483516894000,12.77289404296875,-0.2728285146206617,-0.12410802570581435,-0.027384850531816482
1733902483526920000,12.782919921875,-0.3428033836007118,-0.16592910560816526,0.10255962624251842
1733902483536946700,12.79294677734375,-0.3391676574468612,-0.2033811766460538,0.1189122106283903
1733902483546972700,12.80297265625,-0.28537176985144613,-0.21356325570344922,0.1543272228807211
1733902483557000000,12.813,-0.16908113989830015,-0.22887217625528572,0.1623094538062811
1733902483567027000,12.82302685546875,-0.20433365506529808,-0.19919073921889066,0.11295476352870464
1733902483577053000,12.833052978515624,-0.294131999412179,-0.15853022752851248,0.10741115792691706
1733902483587079700,12.84307958984375,-0.3635971653044224,-0.10485241335481404,0.07761515460014343
1733902483597106000,12.85310595703125,-0.30169512814283367,-0.0691878102555871,0.04903203419446945
1733902483607133000,12.8631328125,-0.09939093307852745,-0.04499123437106609,0.009181085321307183
1733902483617159000,12.873158935546876,0.05531739807426929,-0.05735094972848892,-0.0211404031842947
1733902483627186000,12.88318603515625,0.04995148712694645,-0.07046615962833165,0.019104513442516326
1733902483637212700,12.893212646484375,-0.019390929168462752,-0.07737520836442709,0.05956862577795982
1733902483647239000,12.903239013671875,-0.09361644133031367,-0.06275573138147592,0.06251461610198021
1733902483657266000,12.913265869140625,-0.04268880264759063,0.017008417946100234,0.053912207451462746
1733902483667292000,12.9232919921875,0.048508887103199956,0.05316694204211235,0.033517654198408124
1733902483677319000,12.93331884765625,0.17124153280258178,0.07168225741982459,0.025132687690854073
1733902483687346000,12.943345947265625,0.2901052281141281,0.026725509840250013,0.039806525209546084
1733902483697372000,12.953371826171875,0.25641104830503464,-0.0011029928058385848,-0.009247136294841765
1733902483707399000,12.96339892578125,0.1167909806907177,0.06591682576090097,0.05372282235920429
1733902483717425000,12.9734248046875,0.07564063965678215,0.12457388965189456,0.19625088637471197
1733902483727452000,12.983451904296874,0.14618541747927666,0.1682414742037654,0.2591191382199526
1733902483737479000,12.99347900390625,0.25571546725630756,0.20279519345164299,0.2614969732671976
1733902483747505000,13.0035048828125,0.30346739851236343,0.228498666767776,0.25042028345763684
1733902483757532000,13.013531982421876,0.331588746625185,0.2933376341640949,0.2510270171791315
1733902483767558000,13.023557861328126,0.38154490992724893,0.29431758511215445,0.21962767030894756
1733902483777585000,13.0335849609375,0.3375263199806213,0.27271014893800016,0.17558219235539435
1733902483787611000,13.04361083984375,0.21585808864235878,0.25962942582964893,0.16950024209320544
1733902483797638000,13.053637939453125,0.16467501389384268,0.2578469263270497,0.15253741685450076
1733902483807665000,13.063664794921875,0.16221885291337965,0.2717866043522954,0.1278968965947628
1733902483817691000,13.07369091796875,0.16737901215553283,0.29958851125240327,0.1069698439002037
1733902483827718000,13.0837177734375,0.14340192424058915,0.2717842662647366,0.10218319414556026
1733902483837743900,13.093743896484375,0.21572306408584116,0.2793020945489406,0.12816110048890114
1733902483847771000,13.10377099609375,0.2371153962045908,0.22829729897677897,0.16815291913747787
1733902483857796900,13.113796875,0.19990414818525312,0.1729766860321164,0.17836042489707468
1733902483867823900,13.123823974609374,0.2306482460170984,0.12859276990443466,0.1957224785864353
1733902483877851000,13.133850830078124,0.17733400445878506,0.14240034598261117,0.19903087248206136
1733902483887876900,13.143876953125,0.07589607572257519,0.16068360617011784,0.1953308489203453
1733902483897903900,13.15390380859375,0.11279460453093051,0.1639978452846408,0.1562140595406294
1733902483907929900,13.163929931640626,0.2103536460071802,0.1313014443412423,0.07623276033103465
1733902483917956900,13.173956787109375,0.14975100100636482,0.10461626651138066,0.034197453156113625
1733902483927983900,13.18398388671875,0.06341770242154599,0.09037760553956031,0.028351065215468405
1733902483938009900,13.194009765625,0.11460194621384143,0.08250029629319906,0.03531038283407688
1733902483948036900,13.204036865234375,0.23725685050189493,0.07088555408418178,0.03919979148805141
1733902483958062800,13.214062744140625,0.33214053528904913,0.03583177635967731,0.06577507920265198
1733902483968089900,13.22408984375,0.33535949733555315,0.0021519173368811607,0.08373919043838977
1733902483978115800,13.23411572265625,0.23826631980538368,0.013408055366575716,0.13409750480055807
1733902483988142800,13.244142822265625,0.18749533298909662,-0.008902852901816367,0.19835750326514243
1733902483998169900,13.254169921875,0.16836276249587534,0.0016018822386860846,0.23081308118999003
1733902484008195800,13.26419580078125,0.20758944199085233,-0.021511866845190523,0.27869652987122534
1733902484018222800,13.274222900390624,0.32269758416116234,-0.07192308043837548,0.24636253249943255
1733902484028248800,13.284248779296876,0.2849398081749677,-0.0678895871385932,0.1922889970064163
1733902484038275800,13.29427587890625,0.27743980780839916,-0.025751111850142477,0.12592413521707058
1733902484048302800,13.304302734375,0.17404489978551863,-0.007632979096472263,0.0879471635222435
1733902484058328800,13.314328857421875,0.09426993680298328,0.0125613754093647,0.0957376712679863
1733902484068356900,13.32435693359375,0.049801265001296995,0.01957359225898981,0.07999474321305751
1733902484078382800,13.3343828125,0.013387304839491843,-0.004623568147420883,0.0619137275993824
1733902484088409900,13.344409912109375,-0.07285889998376369,-0.0012353870138525963,0.10941022278964518
1733902484098435800,13.354435791015625,-0.09503975213170052,-0.022627719132602215,0.12497779427766799
1733902484108462800,13.364462890625,-0.08835749788880348,-0.018205518776178358,0.00015665186643600462
1733902484118489900,13.37448974609375,-0.13047054647505282,0.12570406272560358,-0.10744564471840858
1733902484128515800,13.384515869140625,-0.13567045320570467,0.19405133050382137,-0.007124152791500091
1733902484138542800,13.39454296875,-0.1012228246808052,0.1958116181746125,0.06915010859370231
1733902484148568800,13.40456884765625,-0.1923153004914522,0.20752192971259353,0.11572598180770874
1733902484158595800,13.414595947265624,-0.24711188956201074,0.21408990992605684,0.1943675568461418
1733902484168621800,13.424621826171874,-0.2629734755605459,0.17107377502024174,0.24779578017294404
1733902484178648800,13.43464892578125,-0.19066227258741855,0.14982815789580345,0.27446049973666664
1733902484188675800,13.44467578125,-0.11194821683466434,0.12981822004616259,0.2973299186706543
1733902484198701800,13.454701904296876,-0.09413023607134818,0.11956249123066663,0.27749007669091225
1733902484208728800,13.464728759765626,-0.08307751165926457,0.10795300971865654,0.24902152257561683
1733902484218754800,13.4747548828125,-0.09680442371666431,0.10279285047650337,0.22642156823277473
1733902484228781800,13.48478173828125,-0.08036649913489818,0.09115735774040222,0.18674305331707
1733902484238807800,13.494807861328125,-0.06840718127191066,0.10136953967511653,0.14041326381862163
1733902484248834800,13.504834716796875,0.002864157259464264,0.10245938073843718,0.11191606813073157
1733902484258861800,13.51486181640625,0.05219955831468105,0.09738543847501277,0.1239361762702465
1733902484268887800,13.5248876953125,0.10445815334022045,0.07715805848240852,0.17653847016692162
1733902484278914800,13.534914794921875,0.12496785740554332,0.012880524361133575,0.2410889760106802
1733902484288940800,13.54494091796875,0.08977262538373469,-0.06444675320833922,0.26150048039853574
1733902484298967800,13.5549677734375,0.03876373815834522,-0.10713906298726797,0.21983166844844818
1733902484308994800,13.564994873046874,0.03993921167850494,-0.11043284383565187,0.13093641042113302
1733902484319020800,13.575020751953126,0.11099076997935771,-0.0922737945497036,0.0073906947731971736
1733902484329047800,13.5850478515625,0.12685352502167224,-0.11048545080572367,-0.08720014454722404
1733902484339073800,13.59507373046875,0.1901151600986719,-0.09558248070627451,-0.14980769962966442
1733902484349100800,13.605100830078126,0.2630611538439989,-0.2373342996522784,-0.29022914675474165
1733902484359126800,13.615126708984375,-0.07908288906514645,-0.07138795064836741,-0.12059212653934955
1733902484369154000,13.625154052734375,0.04922784902751445,0.002825578814744949,-0.111928343090415
1733902484379180800,13.635180908203125,0.07343757665455342,-0.05734510450959205,-0.25182664312422276
1733902484389206800,13.645206787109375,-0.17332886047065257,-0.09372896179407834,-0.2333329550564289
1733902484399233800,13.65523388671875,-0.07055237660706043,0.18045768943727014,-0.04558218600153923
1733902484409259800,13.665259765625,-0.12858721694648265,0.11110095235556364,-0.16851181557774542
1733902484419287000,13.675287109375,-0.17769933063983917,0.027168577432632443,-0.14249942244291305
1733902484429313000,13.68531298828125,-0.12959434816241264,0.0027209493964910503,-0.13973288033902645
1733902484439339800,13.69533984375,-0.09283376652002334,-0.00256020587682724,-0.1594382822841406
1733902484449366800,13.70536669921875,0.01848608928322792,-0.07430588392168283,-0.14682605347037314
1733902484459392800,13.715392822265626,-0.26828327240645883,-0.21999621136039493,-0.1569055489361286
1733902484469420000,13.725419921875,-0.15908347749710083,0.2169917688474059,0.10787994448244571
1733902484479446000,13.735446044921876,-0.023932079729437828,0.1504603183194995,-0.011760580420494078
1733902484489472800,13.74547265625,-0.052580666586756704,0.04765870001465082,0.014869067829847335
1733902484499498800,13.755498779296875,-0.0697697017967701,-0.043596857403218746,0.03548983105421066
1733902484509525800,13.76552587890625,0.04663549444675445,-0.409333372823894,-0.123980015411973
1733902484519553000,13.775552978515625,-0.45528293083310123,-0.02091506999582052,0.030298107630014417
1733902484529579000,13.7855791015625,-0.11541209355294704,0.22386837661862372,-0.011781623208522796
1733902484539605800,13.795605712890625,-0.13944120391607284,0.02638093418627977,-0.1641214716643095
1733902484549631700,13.8056318359375,-0.020822423276305197,-0.15440145716071127,-0.14778583841323853
1733902484559658800,13.81565869140625,0.020814824491739273,-0.26503946817964313,-0.106098321762681
1733902484569685000,13.82568505859375,-0.007032382854819297,-0.29022563962340353,-0.024603695380687712
1733902484579712000,13.8357119140625,-0.08234569025337696,-0.23607260915338993,0.012638532298803328
1733902484589738800,13.84573876953125,0.08698796310126782,-0.5865963578730822,-0.03919686887860298
1733902484599764700,13.8557646484375,-0.32620646906495093,-0.20179069258421659,0.06193243229985237
1733902484609791700,13.865791748046876,0.10660042606592178,0.19192045595496893,0.0885439603716135
1733902484619818000,13.87581787109375,0.13240414488613605,0.06689297731667757,-0.03001344546973705
1733902484629845000,13.885844970703126,0.2769137381076813,0.03636661388874054,0.047938393738865846
1733902484639871000,13.89587109375,0.31594869442284107,0.044563948869705196,0.053526423004269595
1733902484649897700,13.905897705078125,0.2863110965281725,0.08168985669314861,0.12183072842359542
1733902484659925000,13.915925048828125,0.2428711832523346,0.07454436885267496,0.09361936393976211
1733902484669951000,13.925950927734375,0.1947907506942749,0.1575616747573018,0.03510638469457626
1733902484679978000,13.93597802734375,0.14549977330267427,0.1836424569532275,-0.005219780474901199
1733902484690004000,13.94600390625,0.1263449909776449,0.1845402825757861,-0.04285246877670288
1733902484700030700,13.95603076171875,0.18787410317361353,0.23423574911504982,-0.06618307548165321
1733902484710058000,13.96605810546875,0.25489713661074637,0.27205928381383415,-0.0802086782246828
1733902484720084000,13.976083984375,0.3517003912836313,0.24548341157734394,-0.11188742655813694
1733902484730111000,13.986111083984374,0.4052186309814453,0.22721710252463817,-0.11269289772212504
1733902484740137000,13.996136962890626,0.3944382937699556,0.20584844354242085,-0.06556348227858542
1733902484750163700,14.006163818359376,0.37096623276770113,0.23315613718479872,-0.018671382722258566
1733902484760189700,14.016189697265625,0.3601788812935352,0.2953454668551683,0.01200841770172119
1733902484770217000,14.026217041015625,0.3754565299242735,0.25631606349796054,-0.02502864279448986
1733902484780244000,14.036243896484375,0.3089005294770002,0.3053647565662861,-0.023495441877841947
1733902484790270000,14.04627001953125,0.27270459598004815,0.31515286787003277,-0.020449498310685158
1733902484800296700,14.056296630859375,0.33299335272610187,0.2896402409508824,-0.051690439748764035
1733902484810322700,14.06632275390625,0.4116840276032686,0.31433190687596796,-0.03191723326444626
1733902484820350000,14.076349853515625,0.42708325678706166,0.20456980190873145,-0.046749476215243335
1733902484830376000,14.0863759765625,0.40205286042690275,0.1568055956929922,-0.01452419991493225
1733902484840403000,14.09640283203125,0.2904226235002279,0.09310995311290025,0.025953940945863722
1733902484850429700,14.1064296875,0.2221083812087774,0.10486790318489074,0.0631768794029951
1733902484860455700,14.11645556640625,0.2553933956950903,0.0964344213604927,0.06778875711262226
1733902484870483000,14.12648291015625,0.2380032849550247,0.07955547501295805,0.09657529113590717
1733902484880509000,14.136509033203126,0.15614508595764637,0.11237287198752165,0.16835516371130943
1733902484890536000,14.146535888671876,0.08943360268771648,0.0733577894166112,0.15559212825000285
1733902484900562000,14.15656201171875,0.11629413708448409,0.03693184655606747,0.10502163244187832
1733902484910589000,14.1665888671875,0.061821957662701606,-0.0063064066678285595,0.07781798369586468
1733902484920616000,14.176615966796875,-0.053228901362419125,0.014860884523391724,0.05615092628896236
1733902484930642000,14.186641845703125,-0.10608253967165947,0.049510173100233076,0.020251345390081405
1733902484940669000,14.1966689453125,-0.07967500973939895,0.06505377919077873,-0.03176934922635555
1733902484950695000,14.20669482421875,-0.10783142916560172,0.07020283251702784,-0.06226911690831184
1733902484960722000,14.216721923828125,-0.09519465043246746,-0.0052110126465559,-0.07564823844134808
1733902484970748000,14.226747802734375,-0.04389467130601406,-0.05710691183954477,-0.07813245647251606
1733902484980775000,14.23677490234375,-0.10050152466893196,-0.1382183841228485,-0.03864332664906978
1733902484990802000,14.246802001953125,-0.2276899807333946,-0.11019523568749427,0.06612403877079487
1733902485000828000,14.256827880859374,-0.30557050827145577,-0.20238719717264175,0.1529489202648401
1733902485010855000,14.26685498046875,-0.30239596988856793,-0.25375059692412616,0.22661212236881254
1733902485020881000,14.276880859375,-0.2635883925884962,-0.2993237228363752,0.21735797181129454
1733902485030908000,14.286907958984376,-0.2964887916713953,-0.35419191583842036,0.19208675243258475
1733902485040934000,14.296933837890625,-0.39050153884291644,-0.3406979357540607,0.21270108591616152
1733902485050961000,14.3069609375,-0.41255847235023974,-0.2874611433461308,0.17141688936948776
1733902485060988000,14.31698779296875,-0.42223581675589084,-0.24972791727930305,0.05232406147718429
1733902485071012400,14.327012451171875,-0.40576340538263317,-0.19563480030298233,0.017778233274817465
1733902485081039000,14.3370390625,-0.324742241731286,-0.22853286129832268,0.025793197426199913
1733902485091065000,14.347065185546874,-0.27643033850491044,-0.1984416744172573,-0.00519055438041687
1733902485101092000,14.357092041015624,-0.2452840896129608,-0.14204437215179205,0.04112812920212745
1733902485111119400,14.367119384765624,-0.17627952696979046,-0.15010229866206645,0.01993862617909908
1733902485121145300,14.377145263671874,-0.12286124051511287,-0.10991963361650704,0.020555296772718428
1733902485131172000,14.387172119140626,0.026547230663895607,-0.11555267106741667,-0.05499708007872104
1733902485141198000,14.397197998046876,0.055091188102960584,-0.13366262051463126,-0.09351239643394947
1733902485151225000,14.40722509765625,-0.0752460873812437,-0.0882759570851922,-0.10035305610895157
1733902485161251000,14.4172509765625,-0.1371902101188898,-0.056904082743823525,-0.1542214244186878
1733902485171278300,14.4272783203125,-0.09111702573001385,-0.0640402182340622,-0.20200842698812482
1733902485181305000,14.43730517578125,-0.03311258052885532,-0.06369505805820226,-0.17172434788346289
1733902485191331000,14.4473310546875,-0.0231663560539484,-0.0609071809053421,-0.15915362012386322
1733902485201358000,14.457358154296875,-0.02851122421324253,-0.021133973443508147,-0.10130465774536132
1733902485211384000,14.467384033203125,0.052718613752722736,-0.04922375737428665,-0.1287988138705492
1733902485221411300,14.477411376953125,0.012528057661652565,-0.06363602134734392,-0.10639175175130366
1733902485231437300,14.487437255859374,-0.033491935235261915,0.0409670934215188,-0.09174421771764754
1733902485241464000,14.497464111328124,0.09102350222766399,0.060929684998095035,-0.0695166038185358
1733902485251491000,14.507490966796874,0.1522866569638252,0.015555588789284229,0.009907646030187607
1733902485261517000,14.51751708984375,0.08346329610645771,-0.019674422284960746,0.10463292538523673
1733902485271544300,14.52754443359375,0.07822071927785873,-0.07129939558207989,0.16332067667543887
1733902485281570300,14.5375703125,0.38516193138062954,-0.3495665941253304,0.1773188068896532
1733902485291597000,14.54759716796875,-0.06791033766567707,-0.15367022027671337,0.18016484397053717
1733902485301624000,14.5576240234375,0.17092998263537884,0.6294149243801832,0.09733458507061005
1733902485311650300,14.567650390625,0.033409517648816105,0.16339344965070485,-0.12031272507607936
1733902485321677300,14.57767724609375,0.03055120560824871,-0.032386896602809426,0.019679682981967924
1733902485331703300,14.587703369140625,0.09902034620046615,-0.042565468528866765,0.07044424005746841
1733902485341730000,14.59772998046875,0.1004512557864189,-0.0591775806337595,0.14190204107165336
1733902485351756000,14.607756103515625,-0.03569967441260814,-0.005665186154842377,0.21200082869231698
1733902485361783300,14.617783203125,-0.07850245882868766,0.04587123207598924,0.3392605964273214
1733902485371810300,14.627810302734375,0.13582359794080257,0.03495528578609228,0.3070107702076435
1733902485381836300,14.637836181640624,0.3374135072559118,0.007235796472430229,0.3150707425445318
1733902485391863000,14.647863037109374,0.29333471155464647,0.08608750713020563,0.2862456300765276
1733902485401889000,14.657888916015626,0.1159147823780775,0.1955462452366948,0.1556651934862137
1733902485411916300,14.667916259765626,-0.022963526958227155,0.26130846495777366,-0.000024549919366836548
1733902485421943300,14.677943359375,-0.17602292186021803,0.2453103930979967,-0.1437432850241661
1733902485431969300,14.68796923828125,-0.2359124501556158,0.24428543396443128,-0.18814122967720032
1733902485441996000,14.69799609375,-0.08732172510027884,0.19772095892727373,-0.25210078389048574
1733902485452022000,14.70802197265625,0.05179156203567981,0.09084288496375083,-0.18197452374100684
1733902485462049300,14.71804931640625,0.09989595999121666,0.09007160833030939,-0.012668927437067032
1733902485472075300,14.7280751953125,0.1454027426689863,0.11673691241592168,0.09847732536494731
1733902485482102300,14.738102294921875,0.16263035632371903,0.059603697091341015,0.16902561031877994
1733902485492129000,14.74812890625,0.034274025523662564,0.09805909995287657,0.1488064136326313
1733902485502155000,14.758155029296875,-0.03458148403763771,0.26489246092438695,0.005067804783582687
1733902485512182300,14.768182373046875,-0.0523848517537117,0.2697653276577592,-0.12509762126505375
1733902485522208300,14.778208251953124,-0.05005436297953129,0.2973997690364718,-0.30652503251731394
1733902485532235300,14.7882353515625,0.07370704124569892,0.29869974571913477,-0.37448622358739375
1733902485542262000,14.798261962890624,0.17499767046570777,0.30104747788906094,-0.31041502569317814
1733902485552288000,14.8082880859375,0.23764964921176432,0.3057569707542658,-0.1790653582960367
1733902485562315300,14.818315185546876,0.23802900391817092,0.3122416565984487,-0.028446926805377006
1733902485572341200,14.82834130859375,0.22483342225849628,0.27462650395333765,0.04241875353455543
1733902485582368300,14.8383681640625,0.20717150883972643,0.26475392923653124,0.04793021043241024
1733902485592395000,14.84839501953125,0.15356968251168726,0.283626387488842,-0.031052725389599797
1733902485602421000,14.8584208984375,0.06865794116258621,0.2933525394722819,-0.15766951904594897
1733902485612448300,14.8684482421875,0.14859773931801318,0.31917554751485583,-0.26336861235797404
1733902485622474200,14.87847412109375,0.21613632106184957,0.3114657037898898,-0.31919454447627066
1733902485632501200,14.888501220703125,0.18111469204127786,0.3313400325611234,-0.2742588396847248
1733902485642527000,14.89852685546875,0.19728373655378817,0.31735417730659243,-0.2337111407190561
1733902485652554200,14.90855419921875,0.20254326451718807,0.17096242360025643,-0.13507599444389343
1733902485662581200,14.918581298828125,0.10610358245968818,0.06197334883213043,0.014258242455124854
1733902485672607200,14.928607177734374,0.005226210215687752,0.029339199469983576,0.13846914401352406
1733902485682634200,14.93863427734375,0.062032385542988774,-0.0038218963757157324,0.14732640420794485
1733902485692660000,14.948659912109376,0.11274492017030716,-0.051510114745795726,0.11250468167364597
1733902485702687200,14.958687255859376,0.11984686112999915,-0.061898237769305704,0.047426937085390086
1733902485712714200,14.96871435546875,0.10627426285147666,-0.07499795783907175,-0.018823942935466766
1733902485722740200,14.978740234375,0.11942834345698355,-0.09690671504735945,-0.060356561285257335
1733902485732767200,14.988767333984375,0.2460164955407381,-0.57738721550107,-0.18702128573656082
1733902485742793000,14.99879296875,-0.24811960529983043,0.3293605491816997,0.11999357612431048
1733902485752820200,15.0088203125,0.22208558485507965,0.2418026772379875,0.13025427337586878
1733902485762847200,15.01884716796875,0.23471768741309643,-0.062387482590973375,0.16999767022132872
1733902485772873200,15.028873291015625,0.32143910853266716,0.06040741468966007,0.3193009274601936
1733902485782900000,15.03889990234375,0.43487493357658386,-0.0019222002342343329,0.24984277583062647
1733902485792926000,15.048926025390625,0.402196068289876,-0.2650228093057871,0.2084574569970369
1733902485802953200,15.058953125,-0.16176643297076224,-0.26560002467185256,0.024780805513262748
1733902485812979200,15.068979248046874,0.20565818166732786,0.6510279135122895,0.2803536494284868
1733902485823006200,15.079006103515624,0.261283622777462,0.03501403023600578,-0.11238602373003959
1733902485833033000,15.089032958984374,0.14617197347581384,0.16933482239842415,-0.010146130961179733
1733902485843059000,15.099058837890626,0.1299362934678793,0.15388152493983506,-0.05774784009158611
1733902485853086200,15.109086181640626,0.10342004246413707,0.13198445816934107,-0.050904842329025264
1733902485863112200,15.1191123046875,0.06721241852939129,0.1340969202786684,-0.010893149936199187
1733902485873139200,15.12913916015625,0.07953121735453605,0.09271773892492055,-0.0032259763091802597
1733902485883166000,15.139166015625,0.11665829422175883,0.042379590567946435,-0.021255553996562957
1733902485893192000,15.14919189453125,0.07886427787840367,-0.033039807553589345,-0.05801905824840069
1733902485903219200,15.15921923828125,0.009016834670305252,-0.06756517748981714,-0.12593056495785712
1733902485913245200,15.1692451171875,0.003211363261938095,-0.03207271608710289,-0.23388591276407242
1733902485923272200,15.179272216796875,-0.014903554621338843,-0.016573533660173414,-0.26431904495060443
1733902485933299000,15.189298828125,-0.06512625990509986,0.023148235875368118,-0.22462007176876067
1733902485943325000,15.199324951171874,-0.141578215944767,0.057367316341400146,-0.11355915916264056
1733902485953352200,15.209352294921874,-0.1821241613447666,0.06957680957317351,0.008364508241415023
1733902485963378200,15.219378173828124,-0.18971651616990565,0.0477577764749527,0.11238836181759834
1733902485973405200,15.2294052734375,-0.19299276136159896,0.05451923343390226,0.1978969000160694
1733902485983431200,15.23943115234375,-0.15158230808675288,0.037655484655499456,0.23883272151648996
1733902485993458200,15.249458251953126,-0.053358665221929544,0.01766746637672186,0.2631535083025694
1733902486003485200,15.259485107421876,0.006048047992587089,-0.33572482351660726,0.05823766943514347
1733902486013511200,15.26951123046875,-0.22063012534976004,0.37946751913130283,0.30638416274189945
1733902486023538200,15.2795380859375,-0.04239303457140922,-0.07153057398945092,-0.05628478180170059
1733902486033564200,15.289564208984375,-0.23743337611258028,0.026425065588951108,-0.05969079085290432
1733902486043591200,15.299591064453125,-0.0012619827598333358,-0.0680915394514799,-0.16539280677437782
1733902486053618200,15.3096181640625,-0.2944178306162357,0.16757073533535002,-0.08904723371863364
1733902486063645000,15.31964501953125,-0.00035538930892944334,0.310762231695652,0.040219782185554505
1733902486073672000,15.329671875,-0.03518237254023552,0.06388385862857103,-0.05678279445171356
1733902486083698000,15.339697998046875,-0.00805354259610176,0.11885726557075976,0.058467386537790295
1733902486093725000,15.349724853515625,0.035386955201625825,-0.17401275108158587,-0.09922726694941521
1733902486103751000,15.3597509765625,-0.017220014870166778,0.397956823284924,0.22890403269827364
1733902486113778000,15.36977783203125,0.3157277451485395,-0.06601444091647864,-0.051202948492765424
1733902486123805000,15.379804931640624,-0.08900397909879684,0.11667846022695302,-0.06887713687121867
1733902486133831000,15.389830810546876,0.08972411006689071,0.22380057207942008,0.025104046118259428
1733902486143858000,15.39985791015625,-0.20735914036631584,0.021706804895401,-0.21811083600521086
1733902486153884000,15.4098837890625,0.016231588354706762,0.23656010040938852,-0.05441138914525508
1733902486163911000,15.419910888671875,-0.1265764616459608,0.03545271391421556,-0.22820202190876004
1733902486173938000,15.42993798828125,0.1020160208851099,0.21105244192630052,-0.06010346330702304
1733902486183963600,15.439963623046875,0.07555354589521884,-0.17761340592205524,-0.2443739890307188
1733902486193991000,15.449990966796875,0.20007015240192413,0.0460538951665163,-0.0960205798625946
1733902486204017000,15.460016845703125,0.08853110089004039,0.034172026453912256,-0.08454173899292945
1733902486214044000,15.4700439453125,0.03317804698050022,0.0976151555776596,-0.004186345773935318
1733902486224071000,15.48007080078125,0.020751111605763435,0.14997078123688698,0.014982465076446532
1733902486234096600,15.4900966796875,0.017083236747980117,0.21043898620307444,0.05082008665502071
1733902486244124000,15.5001240234375,0.06913198841512203,0.1904182346984744,0.04009995519816875
1733902486254150000,15.51014990234375,0.06419570105671882,0.19434476049244404,-0.018156418937444685
1733902486264177000,15.520177001953124,-0.03950725000202655,0.2205190661907196,-0.0494569816082716
1733902486274203000,15.530202880859376,-0.058462125840783113,0.22542145127952098,-0.0651285979926586
1733902486284229600,15.540229736328126,0.01400222186744213,0.12780132726579904,-0.12245733588933944
1733902486294257000,15.5502568359375,0.027644378250837324,0.04841682490557432,-0.11663491334617138
1733902486304283000,15.560282958984375,-0.016716741523146627,0.04008563441187143,-0.1357698219269514
1733902486314310000,15.570309814453125,-0.03909340850412845,0.011301438476145266,-0.3042874827235937
1733902486324335900,15.5803359375,-0.057113633841276164,-0.06034516310840845,-0.34892741943895816
1733902486334363000,15.59036279296875,-0.06477963842451571,-0.19580986460894345,-0.26800328642129895
1733902486344390000,15.600389892578125,-0.09574000935554504,-0.2105520911887288,-0.15629238547384738
1733902486354415900,15.610415771484375,-0.1374953305453062,-0.28012100971639153,-0.10339899967610836
1733902486364443000,15.62044287109375,-0.1583569167882204,-0.29733167223632334,-0.05262392120659351
1733902486374468900,15.63046875,-0.1312123047530651,-0.3001958294957876,-0.053881227791309355
1733902486384495900,15.640495849609374,-0.09100245943963527,-0.2633823486223817,-0.0754594378709793
1733902486394521900,15.65052197265625,-0.06277881999611855,-0.17583149094134568,-0.19252806645929813
1733902486404548900,15.660548828125,-0.1273784256786108,-0.17836539333313703,-0.22957915548086166
1733902486414575900,15.670575927734374,-0.23180501483678817,-0.17974895664602517,-0.2744382879048586
1733902486424601900,15.680601806640626,-0.2610866389006376,-0.1243000411465764,-0.3330056276857853
1733902486434628900,15.69062890625,-0.2738116804391146,-0.09592501053363084,-0.35692134080231186
1733902486444654800,15.70065478515625,-0.2500947047650814,-0.0656976300522685,-0.2531084996283054
1733902486454681900,15.710681884765625,-0.212205995875597,-0.03542874851673841,-0.062245736032724375
1733902486464708900,15.720708984375,-0.13780863427817822,-0.0932426395818591,0.04047229564189911
1733902486474734800,15.73073486328125,-0.08726151934564114,-0.15073971978276968,0.11040332548022269
1733902486484761900,15.740761962890625,-0.10761340250074863,-0.1395759362116456,0.1868868457019329
1733902486494787800,15.750787841796875,-0.22519699487388134,-0.12264087576270102,0.24560733021795747
1733902486504814800,15.76081494140625,-0.35124914038479327,-0.06917758112251758,0.25464111602306366
1733902486514840800,15.7708408203125,-0.36604923463165756,-0.03324585151970386,0.2500906131118536
1733902486524867800,15.780867919921874,-0.3164642427295446,0.029668285293877123,0.26891689413487907
1733902486534894800,15.790894775390624,-0.21451193473041055,0.06462590916752815,0.30026304951310157
1733902486544920800,15.8009208984375,-0.11917173834741115,0.06862929958999156,0.27341128294467926
1733902486554947800,15.81094775390625,-0.024622400081157684,0.07275602413117885,0.20502865159213543
1733902486564973800,15.820973876953126,0.07928864077031612,0.026605682852864264,0.16700667171180247
1733902486575000800,15.831000732421876,0.11426409256160258,-0.03794160812050104,0.15464228017926215
1733902486585027000,15.841027099609375,0.06986030268967151,-0.10500029739290476,0.11943009702265261
1733902486595053800,15.8510537109375,0.06162555830776691,-0.14550532626062632,0.06085282036960125
1733902486605080800,15.861080810546875,0.06311258199512958,-0.22357816150039433,0.047156887972354886
1733902486615106800,15.87110693359375,0.01707914509475231,-0.31005729829669,0.08811024512946605
1733902486625133800,15.8811337890625,-0.056979778328537935,-0.3205322228208184,0.10930442432761192
1733902486635160000,15.89116015625,-0.135612001016736,-0.291198284047842,0.056820788374543185
1733902486645186800,15.901186767578125,-0.193473822876811,-0.2550046886384487,0.0034030864417552947
1733902486655213800,15.9112138671875,-0.12813479700386524,-0.1829781478255987,-0.03194353674948215
1733902486665239800,15.92123974609375,-0.006909633257985114,-0.12144611302018164,-0.07357084764540195
1733902486675267000,15.93126708984375,0.06963935341536999,-0.09432692768722772,-0.11093407135605811
1733902486685293000,15.94129296875,0.026077275064587593,-0.06671148326992989,-0.1178103868663311
1733902486695319800,15.95131982421875,-0.07160685409605502,-0.00028436989933252336,-0.09515899459719657
1733902486708480000,15.96447998046875,-0.12352058120667933,0.009750994163751601,-0.11707447380721568
1733902486718506800,15.9745068359375,-0.12205050865411758,-0.00011427402943372726,-0.11236322737634181
1733902486728534000,15.984533935546875,-0.11548223617970943,-0.019537644162774086,-0.04697510166466236
1733902486738560000,15.99456005859375,-0.09903495924770832,-0.052316170431673525,-0.008496025666594504
1733902486748587000,16.0045869140625,-0.11656009454429149,-0.07749211274236441,0.008327683362364769
1733902486758613000,16.014613037109374,-0.16617022088766098,-0.09885171163529156,0.04317103320658207
1733902486768639700,16.0246396484375,-0.25809505586922166,-0.06383651235550641,0.06912205154299736
1733902486778667000,16.0346669921875,-0.2686526902407408,0.0005988426759839057,0.05361176320016384
1733902486788693000,16.04469287109375,-0.2774608505964279,0.05156652110815048,0.09948153397142886
1733902486798720000,16.054719970703125,-0.33955402641594407,0.051686932617425914,0.0759866766154766
1733902486808746000,16.06474609375,-0.2611673029214144,0.0409603714197874,0.019154197803139685
1733902486818772700,16.074772705078125,-0.12140753457546233,0.002918517795205116,0.012473112604022025
1733902486828798700,16.084798828125,0.013327099084854126,-0.01790565904676914,0.10189736294150352
1733902486838826000,16.094825927734377,0.077974051040411,-0.03126373779177666,0.15632102704644202
1733902486848853000,16.10485302734375,0.12349953841865062,-0.04994768773466348,0.13718787203133107
1733902486858879000,16.11487890625,0.20928046381771565,-0.04269406334459781,0.0785311004012823
1733902486868905700,16.12490576171875,0.31525720502734184,-0.0244888368293643,0.05490180301070213
1733902486878931700,16.134931640625,0.34489188031256196,0.00452390716522932,0.13651625638008116
1733902486888959000,16.144958984375,0.335785029271245,0.03123480395823717,0.1452063433140516
1733902486898985000,16.15498486328125,0.32766602022349833,0.05489303518235683,0.15303309141695498
1733902486909012000,16.165011962890624,0.3201291949778795,0.08415537002384663,0.20494740304946898
1733902486919038700,16.175038818359376,0.35011282983124253,0.15155015938282013,0.22516484616994856
1733902486929064700,16.185064697265624,0.39969197651445865,0.18873744200468062,0.28338790255784985
1733902486939092000,16.195092041015624,0.44260406652390955,0.21224165171086787,0.2673649885177612
1733902486949118000,16.205117919921875,0.49972354558408255,0.20574995160400866,0.17927227904498577
1733902486959144700,16.215144775390623,0.4885287823528051,0.1792266863375902,0.14107085094451904
1733902486969170700,16.225170654296875,0.40830198394954204,0.17759031730741262,0.09268412891626357
1733902486979198000,16.235197998046875,0.27204291720092294,0.15422288572341203,0.0448427658110857
1733902486989225000,16.245224853515627,0.1886597005933523,0.10299714087694883,0.05849953524172306
1733902486999251000,16.2552509765625,0.147555536788702,0.06357610785365105,-0.0031669395983219143
1733902487009277700,16.265277587890626,0.08090951997041702,0.06301847397089004,-0.08099895181953906
1733902487019303700,16.2753037109375,-0.010008183795213699,0.0717255120396614,-0.03563771509230137
1733902487029331000,16.2853310546875,-0.03759060272574424,0.06511135459691286,-0.02127835035026073
1733902487048756700,16.3047568359375,-0.052930795198678965,0.049126726740598675,0.09533727377355099
1733902487058783700,16.31478369140625,-0.05252805961668491,0.09506605561673641,0.0891103620827198
1733902487068809500,16.3248095703125,-0.03238192816674709,0.16980799286812542,0.07052958025336264
1733902487078836700,16.334836669921874,-0.05291910476088524,0.23561317494809625,0.0804442405462265
1733902487088862700,16.34486279296875,-0.022652561312913894,0.2917144168764353,0.06573182458281517
1733902487098889500,16.354889404296873,0.010637129348516464,0.33113603442162276,0.07757949876487255
1733902487108916500,16.36491650390625,-0.0418406613856554,0.37696664222627874,0.07509352716803551
1733902487118942500,16.3749423828125,-0.064601943770051,0.4571238825246691,0.03505085511505603
1733902487128969700,16.3849697265625,-0.0806663588643074,0.5064630829721689,0.04125847758352756
1733902487138995700,16.39499560546875,-0.027862989437580105,0.5045496505662799,0.054791328373551364
1733902487149022500,16.4050224609375,0.05946574992537498,0.4628150799036026,0.051496963003277774
1733902487159048400,16.41504833984375,0.020196400332450865,0.3871943139910698,0.12765841166377068
1733902487169075700,16.42507568359375,-0.006819032365083694,0.34713585984706874,0.14769640656411648
1733902487179102700,16.435102783203124,0.027091420543193814,0.30131694248020646,0.12047872929275036
1733902487189128700,16.445128662109376,-0.04351648564338684,0.29318273586332794,0.12907587724626063
1733902487199155500,16.455155517578124,0.09790215582549572,0.2223877826720476,0.10835925243198871
1733902487209181400,16.465181396484375,0.2567600078731775,0.13205313949137926,0.038382045364379884
1733902487219208700,16.475208740234375,0.3076245181918144,0.08379004384279251,0.0275146143913269
1733902487229235700,16.485235595703124,0.25393676714599134,0.07305997551381588,-0.027752514800429343
1733902487239261700,16.49526171875,0.16614859357774256,0.028920097275078296,-0.09123568367362021
1733902487249288400,16.505288330078123,0.06423311045765877,-0.02129325565844774,-0.13344108671844004
1733902487259314400,16.515314453125,0.05116086291670799,-0.054763855844736094,-0.1493856748253107
1733902487269341700,16.525341796875,0.15222352859973906,-0.07294307113587856,-0.13785130437612533
1733902487279367700,16.53536767578125,0.2165279507279396,-0.06871405526399613,-0.09144611155390739
1733902487289394700,16.545394775390626,0.24321371307969092,0.004935995097458362,-0.03359247300028801
1733902487299421400,16.55542138671875,0.34055998858809466,0.05597849233150482,0.05337152470350265
1733902487309447400,16.565447509765626,0.41170273230373855,0.07117284659296273,0.15788871475458144
1733902487319474700,16.575474609375,0.4044786262691021,0.10031184731572866,0.23893851997852325
1733902487329500700,16.585500732421874,0.29995559099912644,0.1810913111656904,0.2507487847596407
1733902487339527700,16.595527587890626,0.24019699560701846,0.314768252466619,0.20175182187855242
1733902487349554400,16.605554443359374,0.32590485576987266,0.40790976976156235,0.1962637458562851
1733902487359580400,16.615580322265625,0.3859469442784786,0.4547141910344362,0.21684359254837035
1733902487369607700,16.625607666015625,0.319449396020174,0.4132949699312448,0.2999900777906179
1733902487379633700,16.635633544921873,0.2444908934086561,0.2996191986516118,0.3462789507567882
1733902487389660700,16.64566064453125,0.175454182061553,0.2263727606549859,0.39239305167794225
1733902487399686700,16.655686767578125,0.14557576114833354,0.21357962231636046,0.41850130640268324
1733902487409713400,16.66571337890625,0.07101473342180252,0.16130933685302734,0.37267011407613754
1733902487419740700,16.67574072265625,-0.0018494272589683531,0.1538514220625162,0.26355390579700466
1733902487429766700,16.6857666015625,-0.09048632661104201,0.22972645499706268,0.10783961247205734
1733902487439793700,16.695793701171876,-0.14972878917455673,0.18285948988199233,0.01713409015238285
1733902487449819600,16.705819580078124,-0.11657938376665114,0.05758358944058418,-0.012896890974044799
1733902487459846400,16.715846435546876,-0.05883388176262378,-0.06267565188258886,0.0011117606341838836
1733902487469873700,16.725873779296876,-0.08118190717101097,-0.2196191947415471,0.037034722408652306
1733902487479899600,16.735899658203124,-0.21318623908460138,-0.3199544229328632,0.09212474146783352
1733902487489926700,16.7459267578125,-0.2796586529016495,-0.3277595437258482,0.11692834333479404
1733902487499952600,16.75595263671875,-0.28933073661029335,-0.3731418232411146,0.0832236421316862
1733902487509979600,16.765979736328124,-0.2824275330930948,-0.34614217263460156,0.031177813073992727
1733902487520005600,16.776005615234375,-0.22599252916574478,-0.28274931239336726,-0.00734334850013256
1733902487530032600,16.78603271484375,-0.09977554848194121,-0.24427111317813396,-0.05370528670251369
1733902487540059600,16.7960595703125,0.027017770785093306,-0.16758768647015093,-0.11663900499939918
1733902487550085600,16.806085693359375,0.021864041283726692,-0.11135901876986026,-0.14987024347186087
1733902487560112600,16.816112548828126,-0.011359598404169082,-0.0473000958353281,-0.18338555958271024
1733902487570138600,16.826138671875,-0.007263269001245499,0.006666764412820339,-0.1882072806507349
1733902487580165600,16.83616552734375,0.007446224352717399,0.030730946089327332,-0.18614099577069282
1733902487590191600,16.846191650390626,0.003848492121696472,0.030765140619874,-0.1480477042198181
1733902487600218600,16.856218505859374,-0.007422258955240249,-0.0035050855115056037,-0.0829731745019555
1733902487610245600,16.86624560546875,0.03032031946182251,-0.020257775130867958,-0.01457125392705202
1733902487620271600,16.876271728515626,0.04473755187094211,-0.05361965424567461,-0.03912380364239216
1733902487630298600,16.886298583984374,-0.03247954332232475,0.0011366028144955635,-0.1009507297411561
1733902487640324600,16.89632470703125,-0.07238543725311755,0.04608750517517328,-0.11051906081438063
1733902487650351600,16.9063515625,-0.0283773687005043,0.06725070471316576,-0.13548925141990184
1733902487660378600,16.916378662109373,0.010681553012132644,0.048910161380469795,-0.09561112227886914
1733902487670404600,16.926404541015625,-0.0008685995280742645,0.03175648974478244,-0.0459492657482624
1733902487680431600,16.936431640625,-0.06355974124073982,0.012410861022770404,-0.009426876775920391
1733902487690457600,16.94645751953125,-0.11687632088661193,-0.05773731869757175,0.012680910135805606
1733902487700484600,16.956484619140625,-0.14178162956237791,-0.13124708380550146,0.07057751104831696
1733902487710510800,16.9665107421875,-0.1468149475544691,-0.2010515646547079,0.07537789706736803
1733902487720537600,16.97653759765625,-0.13228607146441937,-0.283777486397326,0.05997106909900903
1733902487730564600,16.986564697265624,-0.17665712811052797,-0.34597938328832384,0.039058629451692105
1733902487740590600,16.996590576171876,-0.20597265444397925,-0.29284985064715147,-0.018907529565691947
1733902487750617600,17.00661767578125,-0.2572825704425573,-0.2244137355417013,-0.09512830719798802
1733902487760643800,17.016643798828124,-0.2633569219201803,-0.10545651672780514,-0.13670797955989836
1733902487770670600,17.026670654296876,-0.11400865649580955,-0.057877603951096535,-0.10976590435951948
1733902487780696600,17.036696533203123,0.007907412123680114,-0.04146247572302818,-0.0028425299495458602
1733902487790723600,17.0467236328125,0.04679565344452858,-0.06090192020833492,0.09091799602657556
1733902487800750800,17.056750732421875,-0.011928338202834128,-0.10709376254081726,0.14151742566823958
1733902487810776800,17.06677685546875,-0.17083704365491867,-0.08143822001963853,0.17813947562277316
1733902487820803600,17.076803466796875,-0.18976035531163216,-0.06512947477549313,0.15154782129526137
1733902487830829600,17.08682958984375,-0.037922611159086225,-0.09535890108346938,0.12120587452352047
1733902487840856600,17.096856689453126,0.094408468490839,-0.10523293710500001,0.0815054400369525
1733902487850883800,17.1068837890625,0.021637831312417984,-0.15802520061582326,0.012932839070260525
1733902487860909800,17.116909912109374,-0.1697194378018379,-0.13549948055297137,-0.008282090654969215
1733902487870936600,17.1269365234375,-0.1870043346017599,-0.08704787659496069,-0.046292672358453274
1733902487880962600,17.136962646484374,0.021387655943632126,-0.08181786698698996,-0.01025602107644081
1733902487890989600,17.146989501953126,0.08592004160881042,-0.0638175153940916,0.03129997814893722
1733902487901015600,17.157015625,0.07447101135551928,-0.0030111645147204396,0.06201777249574661
1733902487911042800,17.167042724609374,0.10698971764445304,0.06085661976188421,0.10856032796204089
1733902487921069600,17.177069580078125,0.13571136973798273,0.10238573098033665,0.14271657232493162
1733902487931095600,17.187095458984373,0.11599661544263362,0.13439239609390496,0.16555998003482816
1733902487941122600,17.19712255859375,0.08360825753509998,0.17298370029479265,0.15671820967048405
1733902487951148500,17.2071484375,0.18064590548574924,0.18559768267422913,0.15516484274864195
1733902487961175800,17.21717578125,0.2490004797875881,0.1479585646316409,0.11460399204045534
1733902487971201500,17.227201416015625,0.21486907760500906,0.09565379237681627,0.078688336789608
1733902487981228500,17.237228515625,0.11346037496328354,0.04584346728622913,0.06837386352419852
1733902487991255600,17.247255615234376,0.05165419939160347,0.020944588351249693,0.07141396187245845
1733902488001281500,17.257281494140624,-0.06820435217618942,0.09440145422816276,0.05537058956623077
1733902488011308500,17.26730859375,-0.0831412245452404,0.201890645827353,0.0855289964646101
1733902488021334500,17.27733447265625,0.06830255185365676,0.19351240132153033,0.12116203538179397
1733902488031361500,17.287361572265624,0.12189853296279907,0.17392010436207056,0.12196283037066459
1733902488041387500,17.297387451171875,0.1984580410301685,0.11018705238103865,0.10979600723683833
1733902488051414800,17.307414794921876,0.14471359136104583,0.03342617652267217,0.06326105055510997
1733902488061441500,17.317441650390624,-0.031195348730683324,0.005766016180813312,0.03362637526988983
1733902488071467500,17.327467529296875,-0.10104571454823016,0.04884001875370741,0.0329436537027359
1733902488081494500,17.33749462890625,-0.03890636149942875,0.06689297731667757,0.07005319491326809
1733902488091520500,17.3475205078125,0.10818331134319305,0.003202595433592796,0.12150339616537094
1733902488101547800,17.3575478515625,0.0052472530037164684,-0.048963060611486434,0.10218377866744995
1733902488111573800,17.36757373046875,-0.10092588756084442,0.03301934928745031,0.06866670899093151
1733902488121600500,17.3776005859375,-0.02912029602229595,0.07642419124990701,0.07570844419598578
1733902488131627500,17.38762744140625,0.05913081888258457,0.13090864563137292,0.06287760419547557
1733902488141653800,17.39765380859375,0.14408464580774305,0.19540479093939064,0.008082184168696403
1733902488151680800,17.4076806640625,0.12452771242260932,0.22686171321570872,-0.022335458187758922
1733902488161706800,17.417706787109374,0.1282183836340904,0.24962182655632495,0.05326134232729673
