time,seconds_elapsed,z,y,x
1733902470766807800,0.022807861328125,0.01912553980946541,-0.5238695740699768,-0.4139573872089386
1733902470776834800,0.032834716796875,0.036982033401727676,-0.4895155727863312,-0.4532768428325653
1733902470786860800,0.04286083984375,0.035949062556028366,-0.4157436490058899,-0.4758943021297455
1733902470796887600,0.052887451171875,-0.022960858419537544,-0.24866436421871185,-0.5664045214653015
1733902470806914800,0.062914794921875,-0.12183175981044769,-0.06850620359182358,-0.5904046893119812
1733902470816940800,0.07294091796875,-0.27850818634033203,0.1119123101234436,-0.5558523535728455
1733902470826967800,0.0829677734375,-0.39261332154273987,0.2676056921482086,-0.45429757237434387
1733902470836994600,0.09299462890625,-0.5025044083595276,0.3214572072029114,-0.3152501881122589
1733902470847020500,0.1030205078125,-0.6667640805244446,0.36966678500175476,-0.18817678093910217
1733902470857047800,0.1130478515625,-0.9180170893669128,0.3979226350784302,-0.04647716507315636
1733902470867074800,0.12307470703125,-1.1661443710327148,0.3677341043949127,0.11364380270242691
1733902470877100800,0.133100830078125,-1.3496267795562744,0.37258532643318176,0.2641856372356415
1733902470887127600,0.14312744140625,-1.486720323562622,0.4890860617160797,0.34317895770072937
1733902470897154800,0.15315478515625,-1.55666184425354,0.6453058123588562,0.3279712498188019
1733902470907180800,0.163180908203125,-1.6067521572113037,0.7375385761260986,0.2331138551235199
1733902470917207800,0.173207763671875,-1.6265407800674438,0.8095738887786865,0.061265669763088226
1733902470927234600,0.183234619140625,-1.6412746906280518,0.7573255896568298,-0.12278109043836594
1733902470937261800,0.19326171875,-1.5508004426956177,0.6141812205314636,-0.27419590950012207
1733902470947287800,0.203287841796875,-1.3774229288101196,0.2568224370479584,-0.38023126125335693
1733902470957314800,0.213314697265625,-1.3154010772705078,-0.4678945541381836,-0.5203380584716797
1733902470967341600,0.223341552734375,-1.36228346824646,-1.2417742013931274,-0.6625699400901794
1733902470977367600,0.233367431640625,-1.5577325820922852,-1.5010018348693848,-0.7213495969772339
1733902470987394800,0.243394775390625,-1.7586323022842407,-1.1030784845352173,-0.686309814453125
1733902470997421800,0.253421875,-1.9296159744262695,-0.6414749622344971,-0.6164734959602356
1733902471007447800,0.26344775390625,-2.1368398666381836,-0.19550122320652008,-0.5930694341659546
1733902471017474600,0.273474609375,-2.324784278869629,0.20439691841602325,-0.5748773813247681
1733902471027501800,0.283501708984375,-2.4426610469818115,0.27843406796455383,-0.5546597838401794
1733902471037527800,0.29352783203125,-2.507694721221924,0.15210753679275513,-0.5542688369750977
1733902471047554300,0.30355419921875,-2.5463571548461914,0.12308787554502487,-0.5900574922561646
1733902471057581300,0.313581298828125,-2.5747430324554443,0.012672684155404568,-0.6645359396934509
1733902471067607000,0.32360693359375,-2.392144203186035,-0.10115396976470947,-0.7716267704963684
1733902471077634300,0.33363427734375,-1.9704645872116089,-0.4839010536670685,-0.8330784440040588
1733902471087661300,0.343661376953125,-1.748612880706787,-1.0991060733795166,-0.8985269665718079
1733902471097687300,0.353687255859375,-1.8057854175567627,-1.582787275314331,-1.0109658241271973
1733902471107714300,0.36371435546875,-1.928482174873352,-1.7852632999420166,-1.0678467750549316
1733902471117741300,0.3737412109375,-2.0618393421173096,-1.8273268938064575,-1.066096544265747
1733902471127767300,0.383767333984375,-2.212362766265869,-1.9817461967468262,-1.1291781663894653
1733902471137794300,0.393794189453125,-2.3391828536987305,-2.327760934829712,-1.1853556632995605
1733902471147821300,0.4038212890625,-2.274231195449829,-2.777223825454712,-1.136025309562683
1733902471157847000,0.413846923828125,-2.1152420043945312,-2.935429573059082,-1.0085312128067017
1733902471167874300,0.423874267578125,-0.6870965361595154,-1.7515829801559448,-0.2588064670562744
1733902471177901300,0.4339013671875,-0.14918754994869232,-1.6736104488372803,0.2330373078584671
1733902471187927300,0.44392724609375,-0.29357290267944336,-2.217288017272949,0.22953005135059357
1733902471197954300,0.453954345703125,-0.5987064242362976,-1.7943456172943115,0.11450891941785812
1733902471207981300,0.463981201171875,-0.9191088676452637,-1.0131306648254395,0.2415757030248642
1733902471218007300,0.47400732421875,-1.3332197666168213,-0.5741721987724304,0.4364061951637268
1733902471228034300,0.484034423828125,-1.1826918125152588,-0.04059284180402756,0.7653362154960632
1733902471238061300,0.494061279296875,-0.890224814414978,-0.4046698808670044,0.8455202579498291
1733902471248087000,0.504087158203125,-0.9970510005950928,-1.0413706302642822,0.17333586513996124
1733902471258114300,0.5141142578125,-0.9564505815505981,-0.9249451756477356,-0.6524797081947327
1733902471268141300,0.524141357421875,-0.7378303408622742,-0.3844742178916931,-1.1822772026062012
1733902471278167300,0.534167236328125,-0.6367535591125488,-0.019273627549409866,-1.4451786279678345
1733902471288194300,0.5441943359375,-0.7084988951683044,0.2222314178943634,-1.4301670789718628
1733902471298221300,0.55422119140625,-0.8209860324859619,0.2350715845823288,-1.3029645681381226
1733902471308247300,0.564247314453125,-0.9340980052947998,0.14645200967788696,-1.2113929986953735
1733902471318274300,0.5742744140625,-1.2777386903762817,-0.11393561959266663,-1.0987156629562378
1733902471328301300,0.58430126953125,-1.611316442489624,-0.12379556149244308,-0.9553759694099426
1733902471338327300,0.594327392578125,-1.8566588163375854,-0.07616253197193146,-0.778499186038971
1733902471348354300,0.604354248046875,-1.9360982179641724,-0.021079186350107193,-0.5095421671867371
1733902471358381300,0.61438134765625,-1.8119161128997803,-0.0454937145113945,-0.19494564831256866
1733902471368407300,0.6244072265625,-1.619866967201233,-0.2327864021062851,0.08442050963640213
1733902471378434300,0.634434326171875,-1.616045355796814,-0.587643563747406,0.18765714764595032
1733902471388461300,0.64446142578125,-1.7269351482391357,-0.8577826023101807,0.14091083407402039
1733902471398487300,0.6544873046875,-1.8298319578170776,-1.015150785446167,0.08787692338228226
1733902471408514300,0.664514404296875,-1.89961838722229,-0.9579099416732788,0.08395973592996597
1733902471418541300,0.674541259765625,-1.9289294481277466,-0.8658103942871094,0.15614178776741028
1733902471428567300,0.6845673828125,-1.9954525232315063,-0.8920806050300598,0.19405360519886017
1733902471438594300,0.69459423828125,-2.061387062072754,-0.9003382921218872,0.20411716401576996
1733902471448621300,0.704621337890625,-2.0773940086364746,-0.8024533987045288,0.3113803565502167
1733902471458647300,0.714647216796875,-2.032243251800537,-0.7136785387992859,0.5626839399337769
1733902471468674300,0.72467431640625,-2.050412654876709,-0.8533726930618286,0.77341228723526
1733902471478701300,0.734701416015625,-2.1134254932403564,-1.2153148651123047,0.7850276827812195
1733902471488727300,0.744727294921875,-2.2561469078063965,-1.4880620241165161,0.694307804107666
1733902471498754300,0.75475439453125,-2.3222665786743164,-1.4649244546890259,0.7013918161392212
1733902471508781300,0.76478125,-2.3736143112182617,-1.3901153802871704,0.7653487324714661
1733902471518807300,0.774807373046875,-2.4922118186950684,-1.3899513483047485,0.647153913974762
1733902471528834300,0.784834228515625,-2.4856038093566895,-1.266156554222107,0.5553416013717651
1733902471538861300,0.794861328125,-2.3497536182403564,-1.0115594863891602,0.5797169804573059
1733902471548887300,0.80488720703125,-2.170832633972168,-0.6025494337081909,0.6386502385139465
1733902471558914300,0.814914306640625,-2.1116373538970947,-0.3987659215927124,0.5654170513153076
1733902471568941300,0.82494140625,-2.123469352722168,-0.4500172734260559,0.41284969449043274
1733902471578967300,0.83496728515625,-2.108268976211548,-0.5278175473213196,0.2736678421497345
1733902471588994300,0.844994384765625,-2.0083298683166504,-0.42526933550834656,0.223502978682518
1733902471599021300,0.855021240234375,-1.864869236946106,-0.45412760972976685,0.1643078327178955
1733902471609047300,0.86504736328125,-1.7457807064056396,-0.44948169589042664,0.11703573167324066
1733902471619074300,0.87507421875,-1.659683108329773,-0.40076637268066406,0.07166958600282669
1733902471629101300,0.885101318359375,-1.5893210172653198,-0.23846201598644257,0.030308661982417107
1733902471639127300,0.895127197265625,-1.5335736274719238,-0.008160642348229885,0.035176653414964676
1733902471649154300,0.905154296875,-1.556990623474121,0.3421362638473511,0.04728955030441284
1733902471659181300,0.915181396484375,-1.6222689151763916,0.7697315812110901,0.029808295890688896
1733902471669207300,0.925207275390625,-1.696432113647461,1.1715279817581177,0.005926888901740313
1733902471679234300,0.935234375,-1.7767118215560913,1.5001580715179443,0.0003901766613125801
1733902471689261300,0.94526123046875,-1.8175052404403687,1.6682385206222534,-0.01444674376398325
1733902471699287300,0.955287353515625,-1.8063279390335083,1.8488032817840576,-0.02350468747317791
1733902471709314300,0.965314208984375,-1.7224011421203613,1.8913320302963257,-0.03828246518969536
1733902471719341300,0.97534130859375,-1.6172728538513184,1.7426117658615112,-0.0835796371102333
1733902471729367300,0.9853671875,-1.5159995555877686,1.3315708637237549,-0.1391737312078476
1733902471739394300,0.995394287109375,-1.3863033056259155,0.825735330581665,-0.23311753571033478
1733902471749421300,1.00542138671875,-1.2890522480010986,0.6404345035552979,-0.34533342719078064
1733902471759447300,1.015447265625,-1.2879173755645752,0.6990067362785339,-0.385162353515625
1733902471769474300,1.025474365234375,-1.3598295450210571,0.7500529885292053,-0.3143806457519531
1733902471779501300,1.035501220703125,-1.4858052730560303,0.7249407172203064,-0.3067125976085663
1733902471789527300,1.04552734375,-1.6323341131210327,0.714236855506897,-0.27035847306251526
1733902471799554300,1.05555419921875,-1.7955869436264038,0.932032585144043,-0.16496706008911133
1733902471809580300,1.065580322265625,-1.8590070009231567,1.349564790725708,-0.0322735533118248
1733902471819607300,1.075607177734375,-1.81610906124115,1.8601335287094116,0.142685204744339
1733902471829634300,1.08563427734375,-1.7295899391174316,2.262454032897949,0.3715411126613617
1733902471839660300,1.095660400390625,-1.7280426025390625,2.5475876331329346,0.5715879797935486
1733902471849687300,1.105687255859375,-1.9436018466949463,2.613217353820801,0.6566003561019897
1733902471859714300,1.11571435546875,-2.1657772064208984,2.4571402072906494,0.9070269465446472
1733902471869740300,1.125740234375,-2.279170036315918,2.1672651767730713,1.2796696424484253
1733902471879767300,1.135767333984375,-2.3775088787078857,1.8175548315048218,1.5089603662490845
1733902471889794300,1.145794189453125,-2.451490879058838,1.5102508068084717,1.621856451034546
1733902471899820300,1.1558203125,-2.461085081100464,1.4602317810058594,1.631691813468933
1733902471909847300,1.165847412109375,-2.4430341720581055,1.7420456409454346,1.5274007320404053
1733902471919874300,1.175874267578125,-2.4910268783569336,2.118576765060425,1.4245978593826294
1733902471929900300,1.185900390625,-2.5922205448150635,2.7140185832977295,1.236199975013733
1733902471939927300,1.19592724609375,-2.742156505584717,3.2175636291503906,1.043269157409668
1733902471949954300,1.205954345703125,-2.8771841526031494,3.5296730995178223,0.9343158602714539
1733902471959980300,1.215980224609375,-2.94626522064209,3.729001522064209,0.9549788236618042
1733902471970007300,1.22600732421875,-2.9191627502441406,3.8982596397399902,1.0385174751281738
1733902471980034300,1.236034423828125,-2.812884569168091,4.060082912445068,1.1367274522781372
1733902471990060300,1.246060302734375,-2.6641459465026855,4.185606956481934,1.2344982624053955
1733902472000087300,1.25608740234375,-2.498499631881714,4.441474914550781,1.3106708526611328
1733902472010113300,1.26611328125,-2.303413152694702,4.879116058349609,1.3309528827667236
1733902472020140300,1.276140380859375,-2.0742685794830322,5.492926120758057,1.252770185470581
1733902472030167300,1.286167236328125,-1.804284930229187,6.212972164154053,1.1025913953781128
1733902472040193300,1.296193359375,-1.5285532474517822,6.6441826820373535,0.9248890280723572
1733902472050220800,1.306220703125,-1.209350347518921,6.729672431945801,0.8025289177894592
1733902472060247600,1.31624755859375,-0.827444314956665,6.506036758422852,0.791496217250824
1733902472070273500,1.3262734375,-0.37694424390792847,5.976127624511719,0.9280911684036255
1733902472080300500,1.336300537109375,0.14194552600383759,5.279165267944336,1.1630223989486694
1733902472090327800,1.346327880859375,0.7592315077781677,4.65467643737793,1.435136318206787
1733902472100353800,1.356353759765625,1.5045709609985352,4.305875301361084,1.6729778051376343
1733902472110380500,1.366380615234375,2.2782649993896484,4.135698318481445,1.8586221933364868
1733902472120407600,1.376407470703125,2.848233699798584,3.914451837539673,2.028722047805786
1733902472130433500,1.38643359375,3.1155002117156982,3.523880958557129,2.238229751586914
1733902472140460800,1.396460693359375,3.128596067428589,3.0208487510681152,2.432201623916626
1733902472150487600,1.406487548828125,3.0025858879089355,2.4870853424072266,2.5713233947753906
1733902472160513500,1.416513427734375,2.8738436698913574,1.9914038181304932,2.5314629077911377
1733902472170540500,1.42654052734375,2.845653533935547,1.5883806943893433,2.298170804977417
1733902472180566500,1.43656640625,2.9298505783081055,1.3625646829605103,1.9542193412780762
1733902472190593800,1.44659375,3.092139959335327,1.448913335800171,1.568915843963623
1733902472200620500,1.45662060546875,3.2567226886749268,1.8111045360565186,1.2090836763381958
1733902472210646500,1.466646484375,3.2475478649139404,2.2132973670959473,0.8729411959648132
1733902472220673500,1.476673583984375,3.0456321239471436,2.548644542694092,0.5657338500022888
1733902472230700800,1.48670068359375,2.816901922225952,2.7461230754852295,0.3203277885913849
1733902472240726800,1.496726806640625,2.6404435634613037,2.7620761394500732,0.10966268181800842
1733902472250753500,1.50675341796875,2.506894588470459,2.6609549522399902,-0.04801361262798309
1733902472260780500,1.516780517578125,2.466183662414551,2.4693000316619873,-0.18439197540283203
1733902472270806500,1.526806640625,2.5702571868896484,2.296633720397949,-0.3376471996307373
1733902472280833800,1.536833740234375,2.7622601985931396,2.1516380310058594,-0.49142077565193176
1733902472290859800,1.54685986328125,2.957019567489624,2.064443349838257,-0.629883348941803
1733902472300886500,1.556886474609375,3.001746654510498,2.04254412651062,-0.7120056748390198
1733902472310913500,1.56691357421875,2.847546100616455,2.066216230392456,-0.7229669094085693
1733902472320939500,1.576939453125,2.541022777557373,2.0886824131011963,-0.6862810850143433
1733902472330966800,1.586966796875,2.1062564849853516,2.061126470565796,-0.640678346157074
1733902472340993500,1.59699365234375,1.5841145515441895,2.017286777496338,-0.6259313225746155
1733902472351019500,1.60701953125,1.0622726678848267,1.9894074201583862,-0.6281889081001282
1733902472361046500,1.617046630859375,0.6369142532348633,1.9208768606185913,-0.633583128452301
1733902472371073800,1.62707373046875,0.33130863308906555,1.802940011024475,-0.6267313957214355
1733902472381099800,1.637099853515625,0.1538984626531601,1.6822288036346436,-0.5899102687835693
1733902472391126500,1.64712646484375,0.07386177033185959,1.5812815427780151,-0.5238263010978699
1733902472401153500,1.657153564453125,0.11858636885881424,1.5231727361679077,-0.44865670800209045
1733902472411179500,1.667179443359375,0.2790575623512268,1.2488698959350586,-0.4360116124153137
1733902472421206800,1.677206787109375,0.49924105405807495,0.7766761779785156,-0.5081270933151245
1733902472431232800,1.687232666015625,0.6884526610374451,0.2881234586238861,-0.5697874426841736
1733902472441259500,1.697259521484375,0.7742834091186523,-0.056261904537677765,-0.570960283279419
1733902472451286500,1.70728662109375,0.7832496166229248,-0.12538334727287292,-0.5062522292137146
1733902472461312800,1.717312744140625,0.8612538576126099,0.18242934346199036,-0.3989172875881195
1733902472471339800,1.72733984375,0.9599685668945312,0.7801088094711304,-0.24376708269119263
1733902472481366500,1.737366455078125,0.9975612163543701,1.314136266708374,-0.2855086624622345
1733902472491392500,1.747392578125,1.0412646532058716,1.7623658180236816,-0.4130462110042572
1733902472501419500,1.75741943359375,1.1438608169555664,2.033748149871826,-0.5709096193313599
1733902472511446800,1.76744677734375,1.3361881971359253,2.1728622913360596,-0.6744800806045532
1733902472521472800,1.77747265625,1.5600186586380005,2.1673290729522705,-0.6690517663955688
1733902472531499500,1.78749951171875,1.7383686304092407,1.9395768642425537,-0.6108784675598145
1733902472541525500,1.797525390625,1.8744583129882812,1.688861608505249,-0.5380769371986389
1733902472551552800,1.807552734375,1.9531574249267578,1.4198970794677734,-0.49564436078071594
1733902472561579800,1.817579833984375,1.9441255331039429,1.2143911123275757,-0.47687917947769165
1733902472571605800,1.827605712890625,1.845070719718933,1.1308270692825317,-0.45608755946159363
1733902472581632500,1.837632568359375,1.6643108129501343,1.2370270490646362,-0.433422714471817
1733902472591659500,1.847659423828125,1.424994707107544,1.4024609327316284,-0.4180232286453247
1733902472601685800,1.857685791015625,1.1693024635314941,1.4746735095977783,-0.4134068787097931
1733902472611712800,1.867712646484375,0.9221863746643066,1.4334657192230225,-0.3895703852176666
1733902472621739500,1.877739501953125,0.6836995482444763,1.3324120044708252,-0.34636354446411133
1733902472631765500,1.887765625,0.4446019232273102,1.2509602308273315,-0.2895623743534088
1733902472641792800,1.897792724609375,0.20437735319137573,1.235685110092163,-0.2352309674024582
1733902472651818800,1.90781884765625,-0.010083124972879887,1.203600287437439,-0.24028930068016052
1733902472661845800,1.917845703125,-0.24941661953926086,1.2042514085769653,-0.2671068012714386
1733902472671872500,1.92787255859375,-0.48561209440231323,1.4146429300308228,-0.24393804371356964
1733902472681898500,1.9378984375,-0.7477616667747498,1.7167223691940308,-0.19678597152233124
1733902472691925800,1.94792578125,-1.039485216140747,1.8793466091156006,-0.148751363158226
1733902472701952800,1.957952880859375,-1.2885544300079346,1.9467374086380005,-0.0960463359951973
1733902472711978800,1.967978759765625,-1.4186514616012573,2.043893337249756,-0.01610756106674671
1733902472722005500,1.978005615234375,-1.4453397989273071,2.0932693481445312,0.07601837068796158
1733902472732032800,1.98803271484375,-1.4125162363052368,2.137099266052246,0.22524012625217438
1733902472742058800,1.998058837890625,-1.38715660572052,2.2554144859313965,0.4248347282409668
1733902472752085800,2.008085693359375,-1.3746461868286133,2.4000637531280518,0.6362197995185852
1733902472762111700,2.01811181640625,-1.3496454954147339,2.4607725143432617,0.8291895389556885
1733902472772138500,2.028138427734375,-1.2715767621994019,2.3990869522094727,0.9472562670707703
1733902472782165800,2.038165771484375,-1.1409196853637695,2.2853503227233887,0.9638980627059937
1733902472792191700,2.048191650390625,-0.9586739540100098,2.182262420654297,0.8809589147567749
1733902472802218800,2.05821875,-0.7597270607948303,1.943226933479309,0.7216712236404419
1733902472812245500,2.06824560546875,-0.6348275542259216,1.5230909585952759,0.5352922081947327
1733902472822271500,2.078271484375,-0.6315563917160034,1.0996637344360352,0.3955632746219635
1733902472832298800,2.088298828125,-0.7318925261497498,0.8552225232124329,0.31843695044517517
1733902472842325800,2.09832568359375,-0.939897358417511,0.7918965220451355,0.2801409661769867
1733902472852351700,2.108351806640625,-1.1988186836242676,0.750565767288208,0.2991865575313568
1733902472862378500,2.11837841796875,-1.4254391193389893,0.5709587335586548,0.4288606643676758
1733902472872404500,2.128404541015625,-1.5493077039718628,0.12256057560443878,0.7754431366920471
1733902472882431700,2.138431640625,-1.458426594734192,-0.49218568205833435,1.2371195554733276
1733902472892458800,2.148458740234375,-1.3832552433013916,-1.0512334108352661,1.72911536693573
1733902472902484700,2.158484619140625,-1.200927972793579,-1.639182448387146,1.9311436414718628
1733902472912511500,2.168511474609375,-1.006081223487854,-2.149225950241089,1.8817188739776611
1733902472922538800,2.178538818359375,-0.8367286920547485,-2.524754524230957,1.7417478561401367
1733902472932564700,2.188564697265625,-0.7021381258964539,-2.717013359069824,1.4141862392425537
1733902472942591700,2.198591796875,-0.6104683876037598,-2.5010299682617188,0.8356839418411255
1733902472952617700,2.20861767578125,-0.594100832939148,-1.5765031576156616,-0.1701841503381729
1733902472962644500,2.21864453125,-0.619504988193512,-1.1580864191055298,-0.721359372138977
1733902472972671700,2.228671630859375,-0.5862618088722229,-1.1694895029067993,-0.7596011757850647
1733902472982697700,2.23869775390625,-0.3921447992324829,-1.1849910020828247,-0.4867214858531952
1733902472992724700,2.248724853515625,-0.07983545958995819,-0.9639333486557007,-0.3019881546497345
1733902473002751500,2.25875146484375,0.19228419661521912,-0.8637359142303467,-0.115008145570755
1733902473012777500,2.268777587890625,0.09591835737228394,-0.7466431856155396,-0.11567948758602142
1733902473022804700,2.2788046875,-0.20462335646152496,-0.566764235496521,-0.1667488068342209
1733902473032830700,2.288830810546875,-0.3913862109184265,-0.4300611615180969,-0.14413009583950043
1733902473042857700,2.298857666015625,-0.5153030753135681,-0.1667935848236084,-0.16362416744232178
1733902473052885000,2.308885009765625,-0.5412166714668274,0.06958909332752228,-0.28744035959243774
1733902473062911000,2.318910888671875,-0.4477647542953491,0.0803661122918129,-0.29739418625831604
1733902473072938200,2.328938232421875,-0.23494961857795715,0.09879794716835022,-0.32807907462120056
1733902473082965200,2.33896533203125,-0.08126391470432281,0.1927286982536316,-0.32507848739624023
1733902473092991200,2.3489912109375,-0.032845448702573776,0.4700324237346649,-0.36227092146873474
1733902473103018000,2.35901806640625,0.021389827132225037,0.6662525534629822,-0.4412171542644501
1733902473113045200,2.369045166015625,0.17257525026798248,0.8328858017921448,-0.545261561870575
1733902473123071200,2.3790712890625,0.3351273834705353,0.9409201145172119,-0.6176763772964478
1733902473133098200,2.38909814453125,0.36492112278938293,0.8730456233024597,-0.6520488262176514
1733902473143124200,2.399124267578125,0.21244902908802032,0.6340218782424927,-0.6597853302955627
1733902473153151000,2.40915087890625,-0.08673564344644547,0.3516121208667755,-0.6650693416595459
1733902473163178200,2.41917822265625,-0.3056360185146332,0.0009707189165055752,-0.6552899479866028
1733902473173204200,2.429204345703125,-0.4282955229282379,-0.3664594292640686,-0.6430622935295105
1733902473183231200,2.439231201171875,-0.6711627244949341,-1.0035728216171265,-0.9338712692260742
1733902473193258000,2.449258056640625,-0.705068826675415,-1.355507493019104,-1.042785882949829
1733902473203284000,2.459283935546875,-0.30363330245018005,-1.3115298748016357,-0.7040393352508545
1733902473213311200,2.469311279296875,-0.06389126181602478,-1.0843322277069092,-0.5614966154098511
1733902473223337200,2.479337158203125,-0.10156290978193283,-0.4282661974430084,-0.5829071998596191
1733902473233364200,2.4893642578125,-0.29146549105644226,0.47359293699264526,-0.5802310705184937
1733902473243391000,2.499390869140625,-0.44688889384269714,1.0938154458999634,-0.566234827041626
1733902473253417000,2.5094169921875,-0.5050137639045715,1.4436551332473755,-0.49846330285072327
1733902473263444200,2.5194443359375,-0.5675240159034729,1.4812898635864258,-0.43360280990600586
1733902473273471200,2.52947119140625,-0.5698074102401733,1.0744770765304565,-0.3281487822532654
1733902473283497200,2.539497314453125,-0.529125452041626,0.7360989451408386,-0.16336330771446228
1733902473293524000,2.54952392578125,-0.3849039673805237,0.35698115825653076,0.08360963314771652
1733902473303550000,2.559550048828125,-0.1799902468919754,0.059767596423625946,0.21893896162509918
1733902473313577200,2.5695771484375,0.06968677043914795,0.09025450050830841,0.28743845224380493
1733902473323604200,2.579604248046875,0.28003546595573425,0.3972107172012329,0.35153836011886597
1733902473333630200,2.589630126953125,0.44887587428092957,0.7756421566009521,0.3252900242805481
1733902473343657000,2.599656982421875,0.6120834350585938,1.060006856918335,0.225046768784523
1733902473353684200,2.609684326171875,0.810287594795227,1.0231897830963135,0.2056654691696167
1733902473363710200,2.619710205078125,0.9771276712417603,0.8930278420448303,0.28440049290657043
1733902473373737200,2.6297373046875,1.1184817552566528,0.8037287592887878,0.3536560833454132
1733902473383763200,2.63976318359375,1.1929330825805664,0.5077021718025208,0.41892752051353455
1733902473393790000,2.6497900390625,1.2921967506408691,0.24759441614151,0.45510175824165344
1733902473403817200,2.659817138671875,1.419148564338684,0.14758579432964325,0.5229569673538208
1733902473413843200,2.66984326171875,1.5873078107833862,-0.09811516106128693,0.6427463889122009
1733902473423870200,2.6798701171875,1.627759337425232,-0.62739497423172,0.7838500142097473
1733902473433897000,2.68989697265625,1.5578891038894653,-0.6866914629936218,0.9020163416862488
1733902473443923000,2.6999228515625,1.4859448671340942,-0.43945902585983276,0.8688360452651978
1733902473453950200,2.7099501953125,1.4172312021255493,-0.3872687816619873,0.7404478192329407
1733902473463976200,2.71997607421875,1.419805884361267,-0.4429139494895935,0.6227476000785828
1733902473474003200,2.730003173828125,1.4871193170547485,-0.22710441052913666,0.5039870142936707
1733902473484030000,2.740030029296875,1.5478812456130981,0.1129668727517128,0.3943856358528137
1733902473494056200,2.75005615234375,1.5869356393814087,0.35249441862106323,0.35733792185783386
1733902473504083200,2.760083251953125,1.7216905355453491,0.2169318050146103,0.4000025689601898
1733902473514110200,2.770110107421875,1.9509971141815186,0.08189301192760468,0.484087735414505
1733902473524136200,2.78013623046875,2.059399366378784,-0.43476131558418274,0.5894842147827148
1733902473534163000,2.790162841796875,1.9402214288711548,-1.0838207006454468,0.7216053009033203
1733902473544189200,2.800189208984375,1.6243047714233398,-1.6587995290756226,0.847072958946228
1733902473554216200,2.81021630859375,1.2408345937728882,-1.8710907697677612,0.9040200114250183
1733902473564243200,2.8202431640625,0.9073541760444641,-1.640828251838684,0.9265210628509521
1733902473574269200,2.830269287109375,0.719066321849823,-1.2707910537719727,1.0185078382492065
1733902473584296200,2.840296142578125,0.6926237940788269,-0.7427533864974976,1.2527400255203247
1733902473594323200,2.8503232421875,0.805889904499054,-0.11162786930799484,1.578392505645752
1733902473604349200,2.86034912109375,1.0428969860076904,0.2675202488899231,1.9032163619995117
1733902473614376200,2.870376220703125,1.436230182647705,0.1698204129934311,2.2688283920288086
1733902473624402000,2.88040185546875,1.7917176485061646,-0.2093774974346161,2.3245201110839844
1733902473634429200,2.89042919921875,1.3664554357528687,-1.6813462972640991,2.4167282581329346
1733902473644456200,2.900456298828125,0.29839256405830383,-1.2001789808273315,2.720536947250366
1733902473654482200,2.910482177734375,-0.926493763923645,0.13715428113937378,2.741405487060547
1733902473664509200,2.92050927734375,-1.7270392179489136,1.218226671218872,2.492044448852539
1733902473674536200,2.9305361328125,-1.9501811265945435,1.9520750045776367,2.159698486328125
1733902473684562200,2.940562255859375,-1.7538139820098877,1.7607653141021729,1.691598892211914
1733902473694589200,2.950589111328125,-1.4379212856292725,1.3109275102615356,1.0962047576904297
1733902473704615200,2.960615234375,-1.1501262187957764,1.5458300113677979,0.5527476668357849
1733902473714642000,2.970641845703125,-0.9751871824264526,2.096844434738159,0.041594669222831726
1733902473724669200,2.980669189453125,-0.7361966967582703,2.4560024738311768,-0.4132775068283081
1733902473734695200,2.990695068359375,-0.40293535590171814,2.4045026302337646,-0.8041518926620483
1733902473744722200,3.00072216796875,-0.0009730200981721282,1.7973880767822266,-1.0948505401611328
1733902473754748200,3.010748046875,0.4130505919456482,0.8053045868873596,-1.2150987386703491
1733902473764775000,3.02077490234375,0.776111364364624,0.0484464168548584,-1.1238713264465332
1733902473774802200,3.03080224609375,1.0500421524047852,-0.22817383706569672,-0.8908328413963318
1733902473784828200,3.040828125,1.2208850383758545,-0.10884638130664825,-0.6203246712684631
1733902473794855200,3.050855224609375,1.240887999534607,0.252333402633667,-0.35977354645729065
1733902473804882200,3.060882080078125,1.1111921072006226,0.5310515761375427,-0.11292994022369385
1733902473814908000,3.070907958984375,0.8471775650978088,0.5757550597190857,0.1386709362268448
1733902473824935200,3.08093505859375,0.48911720514297485,0.47137755155563354,0.4105919301509857
1733902473834961200,3.090961181640625,0.1274031698703766,0.2519051134586334,0.6790663599967957
1733902473844988200,3.10098828125,-0.11184217035770416,-0.06633757799863815,0.851253867149353
1733902473855015000,3.111014892578125,-0.16312175989151,-0.38931018114089966,0.7821424603462219
1733902473865041000,3.121041015625,-0.12741489708423615,-0.5655161738395691,0.559184193611145
1733902473875068200,3.131068115234375,-0.07650827616453171,-0.7346700429916382,0.282556414604187
1733902473885095200,3.14109521484375,-0.07956238836050034,-0.5967822074890137,0.04012484848499298
1733902473895121200,3.15112109375,-0.026103070005774498,-0.08389151096343994,-0.17089882493019104
1733902473905148000,3.16114794921875,0.3292185366153717,0.1261320263147354,-0.23610340058803558
1733902473915174000,3.171173828125,0.570024311542511,0.1069156676530838,-0.18258103728294373
1733902473925201200,3.181201171875,0.5767847895622253,0.10555532574653625,-0.07072348147630692
1733902473935228200,3.191228271484375,0.32756301760673523,0.30590689182281494,-0.04491296783089638
1733902473945254100,3.201254150390625,-0.006375543773174286,0.4874069094657898,-0.1352442055940628
1733902473955281000,3.211281005859375,-0.31000328063964844,0.610652506351471,-0.26805949211120605
1733902473965307000,3.221306884765625,-0.5730721354484558,0.7587199807167053,-0.47676289081573486
1733902473975334100,3.231334228515625,-0.7708409428596497,0.9150543808937073,-0.7166619300842285
1733902473985361200,3.241361083984375,-0.8929431438446045,1.0111345052719116,-0.9539639949798584
1733902473995387100,3.25138720703125,-0.9537126421928406,0.9175136685371399,-1.185178279876709
1733902474005414000,3.261413818359375,-0.9450874924659729,0.500210702419281,-1.3659470081329346
1733902474015441200,3.271441162109375,-0.9117968082427979,0.0035913835745304823,-1.503036379814148
1733902474025467100,3.281467041015625,-0.9172251224517822,-0.24798892438411713,-1.593065619468689
1733902474035494100,3.291494140625,-0.9306901097297668,-0.16410475969314575,-1.6263761520385742
1733902474045520100,3.30152001953125,-0.8300383687019348,-0.12377570569515228,-1.514679193496704
1733902474055547000,3.311546875,-0.6307522058486938,-0.016415279358625412,-1.2337268590927124
1733902474065574000,3.321573974609375,-0.43910470604896545,0.29940155148506165,-0.9364267587661743
1733902474075600000,3.331599853515625,-0.10602997988462448,0.5121234655380249,-0.5175574421882629
1733902474085627000,3.341626953125,0.11586327105760574,0.8005517721176147,-0.17618919909000397
1733902474095654000,3.35165380859375,0.1898815631866455,0.5154470801353455,0.15702152252197266
1733902474105680000,3.361679931640625,0.13941146433353424,-0.02387072704732418,0.4324296712875366
1733902474115707000,3.371706787109375,0.0402773879468441,-0.1325025111436844,0.5342247486114502
1733902474125732900,3.38173291015625,-0.08677510172128677,-0.14558155834674835,0.5555918216705322
1733902474135760000,3.391759765625,-0.24062414467334747,-0.2251836657524109,0.6068679690361023
1733902474145787000,3.401786865234375,-0.37428924441337585,-0.2610894739627838,0.6647000908851624
1733902474155812900,3.411812744140625,-0.46314164996147156,-0.31885313987731934,0.7130738496780396
1733902474165840000,3.42183984375,-0.5234540104866028,-0.38368967175483704,0.7231613993644714
1733902474175865900,3.431865966796875,-0.5521208047866821,-0.40687796473503113,0.6828988194465637
1733902474185892900,3.441892822265625,-0.5924232602119446,-0.3263130784034729,0.5441670417785645
1733902474195920000,3.451919921875,-0.6715328693389893,-0.1741962879896164,0.3706618845462799
1733902474205945900,3.46194580078125,-0.8536525964736938,-0.028030823916196823,0.20986926555633545
1733902474215972900,3.471972900390625,-1.063647747039795,0.0393393412232399,0.06592786312103271
1733902474226000000,3.481999755859375,-1.211147427558899,0.10675939917564392,0.02280542626976967
1733902474236025900,3.49202587890625,-1.3286389112472534,0.20981813967227936,-0.04280024394392967
1733902474246052900,3.502052978515625,-1.4013471603393555,0.24007751047611237,-0.11691229045391083
1733902474256078800,3.512078857421875,-1.446123719215393,0.21936365962028503,-0.2240501493215561
1733902474266105900,3.52210595703125,-1.4744781255722046,0.2106953263282776,-0.3916495442390442
1733902474276132900,3.5321328125,-1.4271224737167358,0.19907191395759583,-0.6092943549156189
1733902474286158800,3.542158935546875,-1.334314227104187,0.13533955812454224,-0.8672398924827576
1733902474296185900,3.552185791015625,-1.3093069791793823,0.06554801762104034,-1.0746766328811646
1733902474306211800,3.5622119140625,-1.3869924545288086,0.10088790208101273,-1.1037076711654663
1733902474316238800,3.57223876953125,-1.4507089853286743,0.34023240208625793,-1.045438528060913
1733902474326265900,3.582265869140625,-1.4848377704620361,0.38084614276885986,-1.0486072301864624
1733902474336291800,3.592291748046875,-1.5324658155441284,0.10959713160991669,-1.1942288875579834
1733902474346318800,3.60231884765625,-1.662348985671997,-0.20392349362373352,-1.3889940977096558
1733902474356345900,3.612345947265625,-1.7117136716842651,-0.05721885710954666,-1.4847018718719482
1733902474366371800,3.622371826171875,-1.6662194728851318,0.41270071268081665,-1.37956702709198
1733902474376398800,3.63239892578125,-1.592145323753357,0.43683159351348877,-1.197473406791687
1733902474386425000,3.642425048828125,-1.3945246934890747,0.1325846016407013,-0.9967727661132812
1733902474396451800,3.652451904296875,-1.130847454071045,-0.30133944749832153,-0.8105104565620422
1733902474406478800,3.662478759765625,-0.8855002522468567,-0.7113938331604004,-0.6710332632064819
1733902474416504800,3.6725048828125,-0.7032581567764282,-0.9878213405609131,-0.5574113726615906
1733902474426531800,3.68253173828125,-0.46665361523628235,-1.1265329122543335,-0.41887667775154114
1733902474436558000,3.69255810546875,-0.2570360004901886,-1.365860104560852,-0.26777416467666626
1733902474446584800,3.702584716796875,-0.05092943087220192,-1.7086329460144043,-0.05148608610033989
1733902474456611800,3.71261181640625,0.13465842604637146,-2.0240681171417236,0.21863779425621033
1733902474466637800,3.722637939453125,0.2964814305305481,-1.9054430723190308,0.45255282521247864
1733902474476665000,3.7326650390625,0.29396024346351624,-1.3396986722946167,0.5444533824920654
1733902474486691800,3.74269189453125,0.24978238344192505,-0.7499935626983643,0.5055368542671204
1733902474496717800,3.7527177734375,0.240082249045372,-0.2856837511062622,0.34497156739234924
1733902474506744800,3.762744873046875,0.25509288907051086,-0.05465318262577057,0.0974494069814682
1733902474516770800,3.772770751953125,0.316597044467926,-0.05394907295703888,-0.14240440726280212
1733902474526798000,3.782798095703125,0.5008099675178528,-0.22955577075481415,-0.2464573085308075
1733902474536824800,3.792824951171875,0.6407102942466736,-0.2340046614408493,-0.3235255777835846
1733902474546850800,3.802850830078125,0.7250182032585144,-0.052958711981773376,-0.3327385187149048
1733902474556877800,3.8128779296875,0.7468384504318237,0.23113910853862762,-0.27857866883277893
1733902474566903800,3.82290380859375,0.7406511306762695,0.38977375626564026,-0.20973995327949524
1733902474576931000,3.83293115234375,0.7685150504112244,0.34987547993659973,-0.12263651937246323
1733902474586957800,3.842957763671875,0.7703933715820312,0.3718065917491913,-0.007720847148448229
1733902474596983800,3.85298388671875,0.7310332655906677,0.47524359822273254,0.139041930437088
1733902474607010800,3.8630107421875,0.6992175579071045,0.46444714069366455,0.3486934304237366
1733902474617038000,3.8730380859375,0.6893057823181152,0.37591540813446045,0.5974812507629395
1733902474627064000,3.88306396484375,0.7135003209114075,0.2502879798412323,0.806585967540741
1733902474637090800,3.8930908203125,0.8030252456665039,0.15410026907920837,0.9117335677146912
1733902474647116800,3.90311669921875,0.9378901124000549,0.08302715420722961,0.890448808670044
1733902474657143800,3.913143798828125,1.0568245649337769,-0.14895646274089813,0.874211311340332
1733902474667171000,3.923171142578125,1.1249644756317139,-0.2717260718345642,0.881905198097229
1733902474677197000,3.933197021484375,1.1331121921539307,-0.18431642651557922,0.885157585144043
1733902474687223800,3.943223876953125,1.088098406791687,0.03372802212834358,0.8440114855766296
1733902474701636900,3.957636962890625,0.9535144567489624,0.24806202948093414,0.72586590051651
1733902474711663900,3.967663818359375,0.8324167728424072,0.25365519523620605,0.5964051485061646
1733902474721691000,3.97769091796875,0.6762495040893555,0.21383243799209595,0.4221186935901642
1733902474731716900,3.987716796875,0.4792320430278778,0.17682941257953644,0.19411908090114594
1733902474741743900,3.997743896484375,0.260914146900177,0.13864459097385406,-0.06334742158651352
1733902474751771000,4.00777099609375,0.06638459116220474,0.05876626446843147,-0.3133295476436615
1733902474761796900,4.017796875,-0.047822583466768265,0.006037355400621891,-0.4895317852497101
1733902474771823900,4.027823974609375,-0.07216627150774002,0.003577127121388912,-0.5546430945396423
1733902474781849900,4.037849853515625,-0.0466659739613533,0.010113056749105453,-0.5099523663520813
1733902474791876900,4.047876953125,-0.015759188681840897,0.05253561586141586,-0.3949402868747711
1733902474801903900,4.05790380859375,0.007739831693470478,0.1187225803732872,-0.26196718215942383
1733902474811929900,4.067929931640625,0.012689849361777306,0.12036042660474777,-0.14959163963794708
1733902474821956900,4.077956787109375,0.0052156876772642136,0.08896815031766891,-0.08430131524801254
1733902474831982800,4.08798291015625,-0.009094009175896645,0.06124517321586609,-0.06443972885608673
1733902474842010000,4.098010009765625,-0.015606182627379894,0.03460181877017021,-0.057628944516181946
1733902474852036900,4.108036865234375,-0.014234920963644981,0.02845018357038498,-0.05289836972951889
1733902474862062800,4.118062744140625,-0.003554671537131071,0.0431550107896328,-0.0424899123609066
1733902474872089900,4.12808984375,0.008463108912110329,0.06989447772502899,-0.02575833536684513
1733902474882116900,4.138116943359375,0.017673155292868614,0.0678359642624855,-0.0007238679099828005
1733902474892143000,4.14814306640625,0.01603131741285324,0.05686827003955841,0.02142937108874321
1733902474902169900,4.158169921875,0.01791960746049881,0.041107892990112305,0.03649091348052025
1733902474912195800,4.16819580078125,0.014810368418693542,0.04112040996551514,0.03359845653176308
1733902474922222800,4.178222900390625,0.008727810345590115,0.052031733095645905,0.006515650078654289
1733902474932250000,4.18825,0.0034739263355731964,0.0612177774310112,-0.02940719574689865
1733902474942276000,4.198276123046875,0.0008500013500452042,0.0712493285536766,-0.06617438793182373
1733902474952302800,4.208302734375,0.01954113133251667,0.08712229877710342,-0.09121476113796234
1733902474962328800,4.218328857421875,0.04199303686618805,0.0985151007771492,-0.10117754340171814
1733902474972355800,4.22835595703125,0.06602566689252853,0.09135572612285614,-0.09655828773975372
1733902474982383000,4.238383056640625,0.0932304859161377,0.07781576365232468,-0.07884350419044495
1733902474992409000,4.2484091796875,0.11817578226327896,0.06267942488193512,-0.05375998467206955
1733902475002435800,4.258435791015625,0.14776234328746796,0.05386481434106827,-0.017161734402179718
1733902475012461800,4.2684619140625,0.176113560795784,0.07121104747056961,0.020510807633399963
1733902475022488800,4.27848876953125,0.20253275334835052,0.09339233487844467,0.0481564961373806
1733902475032516000,4.28851611328125,0.2136831432580948,0.11358734965324402,0.05429854616522789
1733902475051942000,4.30794189453125,0.15722216665744781,0.21641218662261963,-0.01867254450917244
1733902475061969000,4.317968994140625,0.10429268330335617,0.23647481203079224,-0.09427087754011154
1733902475071995000,4.327994873046875,0.05471181496977806,0.21386350691318512,-0.17259632050991058
1733902475082022000,4.33802197265625,0.025934867560863495,0.16429109871387482,-0.23700936138629913
1733902475092049000,4.348048828125,0.018251650035381317,0.10783528536558151,-0.27093347907066345
1733902475102075000,4.358074951171875,0.03548027575016022,0.08188685774803162,-0.2688293755054474
1733902475112102000,4.368101806640625,0.07619734853506088,0.09290701895952225,-0.2424422651529312
1733902475122129000,4.37812890625,0.14300647377967834,0.10363928973674774,-0.19510430097579956
1733902475132155000,4.38815478515625,0.23442639410495758,0.1142360121011734,-0.13631609082221985
1733902475142182000,4.398181884765625,0.32018187642097473,0.1416301727294922,-0.08112319558858871
1733902475152208000,4.408207763671875,0.387071430683136,0.17593914270401,-0.03878426179289818
1733902475162235000,4.41823486328125,0.42497894167900085,0.21810346841812134,-0.012174672447144985
1733902475172262000,4.428261962890625,0.44739264249801636,0.23101367056369781,0.0006401918362826109
1733902475182288000,4.438287841796875,0.4666731655597687,0.22915835678577423,-0.001330059370957315
1733902475192315000,4.44831494140625,0.5005000829696655,0.22575697302818298,-0.018832355737686157
1733902475202340900,4.4583408203125,0.5645485520362854,0.18667177855968475,-0.040246784687042236
1733902475212368000,4.468367919921875,0.655880868434906,0.08690311014652252,-0.05476394295692444
1733902475222395000,4.478394775390625,0.7445473670959473,-0.03545834869146347,-0.05132107436656952
1733902475232420900,4.4884208984375,0.8077825307846069,-0.09802079945802689,-0.026856211945414543
1733902475242448000,4.49844775390625,0.8271331191062927,-0.10920240730047226,0.011210517957806587
1733902475252475000,4.508474853515625,0.8011147975921631,-0.07839123159646988,0.04305233806371689
1733902475262500900,4.5185009765625,0.7295817136764526,-0.03558845445513725,0.046358413994312286
1733902475272528000,4.52852783203125,0.6329129338264465,-0.027186978608369827,0.016509702429175377
1733902475282553900,4.538553955078125,0.5360894799232483,-0.026683907955884933,-0.046021051704883575
1733902475292580900,4.548580810546875,0.4542976915836334,-0.022764001041650772,-0.12989279627799988
1733902475302608000,4.55860791015625,0.39653459191322327,-0.036509010940790176,-0.20559225976467133
1733902475312633900,4.5686337890625,0.37237998843193054,-0.028374649584293365,-0.26358872652053833
1733902475322660900,4.578660888671875,0.37899547815322876,0.014674576930701733,-0.300830602645874
1733902475332688000,4.58868798828125,0.40851473808288574,0.03556308150291443,-0.3271098732948303
1733902475342713900,4.5987138671875,0.4374113082885742,0.0510917492210865,-0.3467367887496948
1733902475352740900,4.608740966796875,0.45798981189727783,0.0745888203382492,-0.36109572649002075
1733902475362767000,4.61876708984375,0.4747902750968933,0.0781344622373581,-0.37103644013404846
1733902475372793900,4.6287939453125,0.4867902100086212,0.03629221394658089,-0.36468374729156494
1733902475382820900,4.63882080078125,0.48588261008262634,0.00047429371625185013,-0.34210437536239624
1733902475392846800,4.648846923828125,0.46224838495254517,-0.004291432909667492,-0.3278844356536865
1733902475402873900,4.658873779296875,0.4297882616519928,0.005031312815845013,-0.336792528629303
1733902475412900000,4.668900146484375,0.39227017760276794,0.0077069909311831,-0.3771383464336395
1733902475422926800,4.6789267578125,0.3438684344291687,0.03921706601977348,-0.4535285234451294
1733902475432953900,4.688953857421875,0.2793442904949188,0.09172980487346649,-0.559891939163208
1733902475442979800,4.698979736328125,0.20066797733306885,0.16118139028549194,-0.6717371940612793
1733902475453007000,4.709007080078125,0.12866994738578796,0.224087655544281,-0.768825888633728
1733902475463033900,4.719033935546875,0.07947711646556854,0.2366122156381607,-0.8290099501609802
1733902475473059800,4.729059814453125,0.056919872760772705,0.2244679480791092,-0.8392157554626465
1733902475483086800,4.7390869140625,0.05061986669898033,0.2264067381620407,-0.80665123462677
1733902475493112800,4.74911279296875,0.05677390098571777,0.2266046106815338,-0.7471112608909607
1733902475503140000,4.75914013671875,0.08156552910804749,0.19914022088050842,-0.6768770217895508
1733902475513166800,4.769166748046875,0.11540152877569199,0.16270259022712708,-0.6064825057983398
1733902475523192800,4.77919287109375,0.1507771611213684,0.13357381522655487,-0.5426717400550842
1733902475533219800,4.7892197265625,0.18093693256378174,0.11089594662189484,-0.4837173521518707
1733902475543245800,4.799245849609375,0.2138931155204773,0.08643142879009247,-0.41955891251564026
1733902475553273000,4.809273193359375,0.24010607600212097,0.06714561581611633,-0.3450862765312195
1733902475563299800,4.8192998046875,0.26600316166877747,0.053117431700229645,-0.26111215353012085
1733902475573325800,4.829325927734375,0.2924598157405853,0.04940631613135338,-0.16647884249687195
1733902475583352800,4.839352783203125,0.31838831305503845,0.030891768634319305,-0.08229383826255798
1733902475593380000,4.849380126953125,0.33824700117111206,0.006138753145933151,-0.011264404281973839
1733902475603406000,4.859406005859375,0.3476894497871399,-0.026764195412397385,0.03251419961452484
1733902475613432800,4.869432861328125,0.3508772552013397,-0.06950260698795319,0.059549812227487564
1733902475623458800,4.879458740234375,0.35249069333076477,-0.1049162968993187,0.06380992382764816
1733902475633485800,4.88948583984375,0.34455421566963196,-0.1126575767993927,0.05980239808559418
1733902475643513000,4.89951318359375,0.32240530848503113,-0.10098405927419662,0.04849515110254288
1733902475653538800,4.909538818359375,0.286774605512619,-0.08745786547660828,0.03907794505357742
1733902475663565800,4.91956591796875,0.23635047674179077,-0.07923129945993423,0.031839437782764435
1733902475673591800,4.929591796875,0.18028295040130615,-0.08924585580825806,0.033758509904146194
1733902475683618800,4.939618896484375,0.12147951871156693,-0.09673330187797546,0.03170676529407501
1733902475693646000,4.94964599609375,0.06530066579580307,-0.0739118754863739,0.01075434498488903
1733902475703671800,4.959671875,0.0205574631690979,-0.03887787461280823,-0.02715393155813217
1733902475713698800,4.96969873046875,-0.009204159490764141,-0.018308954313397408,-0.07285750657320023
1733902475723724800,4.979724853515625,-0.02940474823117256,-0.0015409071929752827,-0.10996183753013611
1733902475733751800,4.989751708984375,-0.045361343771219254,0.023083744570612907,-0.12813152372837067
1733902475743779000,4.999779052734375,-0.057726189494132996,0.052563901990652084,-0.13894771039485931
1733902475753804800,5.0098046875,-0.06343547254800797,0.07380074262619019,-0.14448575675487518
1733902475763831800,5.019831787109375,-0.058281246572732925,0.0687335804104805,-0.1487785130739212
1733902475773858800,5.02985888671875,-0.04187510907649994,0.04520774632692337,-0.14810873568058014
1733902475783884800,5.039884765625,-0.014028133824467659,0.018418658524751663,-0.1445472240447998
1733902475793911800,5.049911865234375,0.01978362537920475,-0.006725577637553215,-0.12891048192977905
1733902475803937800,5.059937744140625,0.05706702172756195,-0.021278517320752144,-0.10496237874031067
1733902475813964800,5.06996484375,0.09702269732952118,-0.041201360523700714,-0.07530248910188675
1733902475823991800,5.07999169921875,0.12839528918266296,-0.06563255190849304,-0.0442548431456089
1733902475834017800,5.090017822265625,0.15001004934310913,-0.10197857767343521,-0.01388255599886179
1733902475844044800,5.100044921875,0.16008219122886658,-0.13410751521587372,0.01898057572543621
1733902475854070800,5.11007080078125,0.16854357719421387,-0.13629423081874847,0.05512846261262894
1733902475864097800,5.120097900390625,0.17846445739269257,-0.10397682338953018,0.09218625724315643
1733902475874124800,5.130124755859375,0.20480550825595856,-0.07943366467952728,0.12414206564426422
1733902475884151000,5.140151123046875,0.23203198611736298,-0.09092368185520172,0.14377596974372864
1733902475894177800,5.150177734375,0.25166401267051697,-0.13361307978630066,0.16139811277389526
1733902475904204800,5.160204833984375,0.25842124223709106,-0.1844451129436493,0.18057632446289062
1733902475914230800,5.170230712890625,0.2570047080516815,-0.21649253368377686,0.19433341920375824
1733902475924257800,5.1802578125,0.2532387375831604,-0.22925519943237305,0.20999333262443542
1733902475934284000,5.190283935546875,0.2578686475753784,-0.2196321189403534,0.2182009369134903
1733902475944310800,5.200310791015625,0.27558133006095886,-0.20425957441329956,0.2239142209291458
1733902475954337800,5.210337890625,0.30744683742523193,-0.21845874190330505,0.23121659457683563
1733902475964363800,5.22036376953125,0.3286074101924896,-0.2525247633457184,0.24227064847946167
1733902475974391000,5.23039111328125,0.3286457657814026,-0.28806063532829285,0.2660830318927765
1733902475984417000,5.2404169921875,0.30734893679618835,-0.3146059513092041,0.30323857069015503
1733902475994443800,5.25044384765625,0.2770237922668457,-0.32065320014953613,0.34696152806282043
1733902476004470800,5.260470703125,0.25161123275756836,-0.3171044588088989,0.37672141194343567
1733902476014496800,5.270496826171875,0.2255367636680603,-0.308096319437027,0.391716867685318
1733902476024524000,5.28052392578125,0.1961972862482071,-0.28586041927337646,0.3816348910331726
1733902476034550000,5.290550048828125,0.15624427795410156,-0.2474621683359146,0.34827399253845215
1733902476044576800,5.30057666015625,0.10823094844818115,-0.20009252429008484,0.310327410697937
1733902476054603800,5.310603759765625,0.05380711704492569,-0.15703266859054565,0.27575692534446716
1733902476064629500,5.32062939453125,-0.0012973548145964742,-0.12493894249200821,0.2460416555404663
1733902476074656800,5.33065673828125,-0.059213120490312576,-0.09150508791208267,0.2203429490327835
1733902476084683800,5.340683837890625,-0.1128554567694664,-0.05832827463746071,0.19041381776332855
1733902476094709800,5.350709716796875,-0.15948979556560516,-0.023210767656564713,0.14582131803035736
1733902476104736500,5.360736572265625,-0.1835920512676239,0.02027084492146969,0.09624768793582916
1733902476114762500,5.370762451171875,-0.19493737816810608,0.0533696748316288,0.057993773370981216
1733902476124789800,5.380789794921875,-0.197072833776474,0.0811409279704094,0.04979240521788597
1733902476134816800,5.390816650390625,-0.19357344508171082,0.09542745351791382,0.08421988785266876
1733902476144842800,5.4008427734375,-0.18054620921611786,0.07134588807821274,0.14717261493206024
1733902476154869500,5.410869384765625,-0.1643507182598114,0.045919883996248245,0.2198401540517807
1733902476164895700,5.420895751953125,-0.15218132734298706,0.06466183811426163,0.2671992778778076
1733902476174922800,5.4309228515625,-0.14409010112285614,0.060208771377801895,0.2726854085922241
1733902476184949800,5.44094970703125,-0.1403931975364685,0.039834558963775635,0.25607964396476746
1733902476194975500,5.4509755859375,-0.13552066683769226,0.0006839635316282511,0.25314778089523315
1733902476205002500,5.46100244140625,-0.11861231178045273,-0.05221984162926674,0.2795714735984802
1733902476215028700,5.47102880859375,-0.07970406115055084,-0.10636377334594727,0.3325103223323822
1733902476225055700,5.4810556640625,-0.04540758952498436,-0.18498149514198303,0.4022116959095001
1733902476235082800,5.491082763671875,-0.03248033672571182,-0.26318657398223877,0.4712677299976349
1733902476245108500,5.5011083984375,-0.0388728491961956,-0.3491332232952118,0.5207451581954956
1733902476255135700,5.5111357421875,-0.05281423032283783,-0.40888550877571106,0.5368977785110474
1733902476265161700,5.52116162109375,-0.05358994007110596,-0.4529474079608917,0.5188655853271484
1733902476275188700,5.531188720703125,-0.03832603245973587,-0.5123425722122192,0.4788568913936615
1733902476285215700,5.5412158203125,-0.02429530955851078,-0.5609622001647949,0.4245151877403259
1733902476295241500,5.551241455078125,-0.015579581260681152,-0.6137415170669556,0.3689059913158417
1733902476305268700,5.561268798828125,-0.020881975069642067,-0.6427522897720337,0.31396743655204773
1733902476315295700,5.571295654296875,-0.048978060483932495,-0.6271613240242004,0.249805748462677
1733902476325321700,5.58132177734375,-0.09867876023054123,-0.5863956212997437,0.16135214269161224
1733902476335348500,5.591348388671875,-0.15107271075248718,-0.5155001282691956,0.04655073210597038
1733902476345374500,5.60137451171875,-0.1800062656402588,-0.44715777039527893,-0.08006558567285538
1733902476355401700,5.611401611328125,-0.18236103653907776,-0.3946056365966797,-0.20025458931922913
1733902476365428700,5.6214287109375,-0.18515607714653015,-0.37435054779052734,-0.2828569710254669
1733902476375454700,5.631454833984375,-0.19927562773227692,-0.35225802659988403,-0.3306141197681427
1733902476385481500,5.6414814453125,-0.23680756986141205,-0.3285372257232666,-0.35127055644989014
1733902476395507500,5.651507568359375,-0.29183194041252136,-0.2869175970554352,-0.35669276118278503
1733902476405534700,5.66153466796875,-0.34923937916755676,-0.22003093361854553,-0.3577727973461151
1733902476415561700,5.671561767578125,-0.3894435465335846,-0.15047156810760498,-0.3650541305541992
1733902476425587700,5.681587646484375,-0.4066500961780548,-0.09228581935167313,-0.3772580623626709
1733902476435614500,5.691614501953125,-0.38404330611228943,-0.030726589262485504,-0.3704025447368622
1733902476445640400,5.701640380859375,-0.31310567259788513,-0.0046084909699857235,-0.3226235508918762
1733902476455667700,5.711667724609375,-0.21873627603054047,-0.00023345008958131075,-0.24274389445781708
1733902476465694700,5.72169482421875,-0.1391814947128296,-0.003970286808907986,-0.1586993783712387
1733902476475720700,5.731720703125,-0.09081263840198517,-0.031917501240968704,-0.09420747309923172
1733902476485747500,5.74174755859375,-0.07208885997533798,-0.047359514981508255,-0.04395844787359238
1733902476495773400,5.7517734375,-0.06785736232995987,-0.036771852523088455,-0.00836370512843132
1733902476505800700,5.76180078125,-0.07451116293668747,-0.02003260888159275,0.017145419493317604
1733902476515827700,5.77182763671875,-0.09020330756902695,-0.004810248035937548,0.03196191415190697
1733902476525853700,5.781853759765625,-0.11852075904607773,0.008025826886296272,0.031244883313775063
1733902476535880400,5.79188037109375,-0.1487998366355896,0.03188508749008179,0.014189733192324638
1733902476545906400,5.801906494140625,-0.1781533658504486,0.05697919800877571,-0.002941812388598919
1733902476555933700,5.81193359375,-0.2005625218153,0.07843601703643799,-0.0065043228678405285
1733902476565960700,5.821960693359375,-0.21301670372486115,0.09332343935966492,0.007547552697360516
1733902476575986700,5.831986572265625,-0.22601452469825745,0.11133040487766266,0.035440970212221146
1733902476586013400,5.842013427734375,-0.23684431612491608,0.1362241953611374,0.07240515947341919
1733902476596039700,5.852039794921875,-0.2399546205997467,0.13661327958106995,0.10876982659101486
1733902476606066700,5.862066650390625,-0.23726439476013184,0.1447729915380478,0.14375042915344238
1733902476616093700,5.87209375,-0.22358107566833496,0.1542453169822693,0.18313460052013397
1733902476626119700,5.88211962890625,-0.19721777737140656,0.1648305058479309,0.2242845892906189
1733902476636146400,5.892146484375,-0.17052918672561646,0.18795554339885712,0.2726268172264099
1733902476646173700,5.902173583984375,-0.1461065709590912,0.18465398252010345,0.32579779624938965
1733902476656199700,5.91219970703125,-0.13108260929584503,0.17308254539966583,0.3879290521144867
1733902476666226700,5.922226806640625,-0.12481493502855301,0.1825806051492691,0.45413756370544434
1733902476676252700,5.932252685546875,-0.11210259795188904,0.18964783847332,0.5091137886047363
1733902476686279700,5.94227978515625,-0.09767847508192062,0.19928133487701416,0.5426204204559326
1733902476696306700,5.952306640625,-0.08360712975263596,0.21727526187896729,0.5465730428695679
1733902476706332700,5.962332763671875,-0.07105028629302979,0.24640555679798126,0.5132688283920288
1733902476716359700,5.972359619140625,-0.05303533375263214,0.2786838412284851,0.4633271396160126
1733902476726385700,5.9823857421875,-0.01836722530424595,0.2863970994949341,0.4123000502586365
1733902476736412700,5.99241259765625,0.02043662779033184,0.2842833697795868,0.3746080696582794
1733902476746439700,6.002439697265625,0.059503842145204544,0.29132261872291565,0.3516456186771393
1733902476756465700,6.012465576171875,0.09360215812921524,0.2945338785648346,0.3535287380218506
1733902476766492700,6.02249267578125,0.12621693313121796,0.2880619466304779,0.37678369879722595
1733902476776518700,6.0325185546875,0.14881518483161926,0.2752199172973633,0.41570472717285156
1733902476786545700,6.042545654296875,0.16979871690273285,0.2844471335411072,0.4569683372974396
1733902476796572700,6.05257275390625,0.18948666751384735,0.29732802510261536,0.48791879415512085
1733902476806598700,6.0625986328125,0.20013082027435303,0.2849038541316986,0.48999541997909546
1733902476816625700,6.072625732421875,0.18549221754074097,0.2958371937274933,0.46434518694877625
1733902476826651600,6.082651611328125,0.14826375246047974,0.3199425935745239,0.4181117117404938
1733902476836678700,6.0926787109375,0.09972870349884033,0.33598652482032776,0.36016717553138733
1733902476846705700,6.10270556640625,0.06134967878460884,0.33299338817596436,0.31013813614845276
1733902476856731600,6.112731689453125,0.036166295409202576,0.33441391587257385,0.2856844663619995
1733902476866758700,6.122758544921875,0.03200583532452583,0.34414687752723694,0.283692330121994
1733902476876784600,6.13278466796875,0.04523561894893646,0.3084394931793213,0.2861488163471222
1733902476886811600,6.142811767578125,0.06385982036590576,0.23647211492061615,0.297633558511734
1733902476896838700,6.152838623046875,0.0722903236746788,0.17114292085170746,0.3324032425880432
1733902476906864600,6.16286474609375,0.0667417123913765,0.12706516683101654,0.386881023645401
1733902476916891600,6.1728916015625,0.05019921809434891,0.09397458285093307,0.44665300846099854
1733902476926917600,6.182917724609375,0.04055459797382355,0.09071420133113861,0.5100768208503723
1733902476936944600,6.192944580078125,0.04936007410287857,0.11050015687942505,0.5710064768791199
1733902476946971600,6.2029716796875,0.08610548824071884,0.11091458052396774,0.6140363216400146
1733902476956997600,6.21299755859375,0.13245779275894165,0.08596422523260117,0.6421209573745728
1733902476967024600,6.223024658203125,0.17727121710777283,0.06074362248182297,0.6451051235198975
1733902476977050600,6.233050537109375,0.2086179554462433,0.03782499209046364,0.6192346215248108
1733902476987077600,6.24307763671875,0.22157679498195648,0.042794764041900635,0.563875138759613
1733902476997104600,6.253104736328125,0.21520891785621643,0.039665017277002335,0.49645906686782837
1733902477007130600,6.263130615234375,0.20757994055747986,0.028590979054570198,0.4274778962135315
1733902477017157600,6.27315771484375,0.20794905722141266,0.030198730528354645,0.3594706058502197
1733902477027183900,6.283183837890625,0.2173750400543213,0.04221810773015022,0.2923815846443176
1733902477037210600,6.293210693359375,0.2266487032175064,0.07307775318622589,0.2378256618976593
1733902477047237600,6.303237548828125,0.2310055047273636,0.10038653016090393,0.2008715718984604
1733902477057263400,6.313263427734375,0.21256817877292633,0.1092471331357956,0.1780831664800644
1733902477067290600,6.32329052734375,0.17844949662685394,0.10716939717531204,0.1626945585012436
1733902477077316600,6.333316650390625,0.14203423261642456,0.08538180589675903,0.14409051835536957
1733902477087343400,6.34334326171875,0.10700532048940659,0.04388248175382614,0.12000174075365067
1733902477097370400,6.353370361328125,0.07672757655382156,0.016478557139635086,0.084551602602005
1733902477107396600,6.363396728515625,0.056005530059337616,0.0046971263363957405,0.04190833866596222
1733902477117423600,6.373423583984375,0.03971737250685692,-0.007608009502291679,-0.0007552376482635736
1733902477127449600,6.38344970703125,0.02943596802651882,-0.023352084681391716,-0.036646924912929535
1733902477137476400,6.393476318359375,0.014936123974621296,-0.029344730079174042,-0.0590430423617363
1733902477147503400,6.40350341796875,0.002160279778763652,-0.03306443989276886,-0.0655345767736435
1733902477157529600,6.413529541015625,-0.007748011499643326,-0.036242127418518066,-0.06118989363312721
1733902477167556600,6.423556640625,-0.01644149422645569,-0.06084074825048447,-0.057962507009506226
1733902477177582600,6.43358251953125,-0.03143642097711563,-0.07421568036079407,-0.059884779155254364
1733902477187609300,6.443609375,-0.05301083251833916,-0.05775567516684532,-0.06640409678220749
1733902477197636600,6.45363671875,-0.07038795948028564,-0.030566396191716194,-0.07923068106174469
1733902477207662600,6.46366259765625,-0.08874143660068512,-0.01619209535419941,-0.09108622372150421
1733902477217689600,6.473689697265625,-0.10655505955219269,0.0032471169251948595,-0.10545291751623154
1733902477227715600,6.483715576171875,-0.11783707141876221,0.0035338413435965776,-0.11541135609149933
1733902477237742300,6.493742431640625,-0.12704496085643768,-0.004569092765450478,-0.12652792036533356
1733902477247769600,6.50376953125,-0.1332980990409851,-0.010638547129929066,-0.14113104343414307
1733902477257795600,6.513795654296875,-0.12561248242855072,-0.008072059601545334,-0.15115386247634888
1733902477267822600,6.523822509765625,-0.11454697698354721,-0.0021139367017894983,-0.16918551921844482
1733902477277849300,6.533849365234375,-0.09610512107610703,0.00007012160494923592,-0.1912652552127838
1733902477287875300,6.543875244140625,-0.0803690105676651,-0.010398514568805695,-0.21887168288230896
1733902477297902600,6.553902587890625,-0.07654204964637756,-0.022598188370466232,-0.24044941365718842
1733902477307928600,6.563928466796875,-0.08116180449724197,-0.01775205135345459,-0.2518608868122101
1733902477317955600,6.57395556640625,-0.09646379202604294,0.007043308578431606,-0.2571296989917755
1733902477327981600,6.583981689453125,-0.10932201892137527,0.02541283704340458,-0.2528066337108612
1733902477338008300,6.59400830078125,-0.11426112055778503,0.03462737426161766,-0.24354204535484314
1733902477348035600,6.60403564453125,-0.10561413317918777,0.04321981966495514,-0.22959338128566742
1733902477358061600,6.6140615234375,-0.08603937178850174,0.050533127039670944,-0.2240622490644455
1733902477368088600,6.624088623046875,-0.06995624303817749,0.05884084105491638,-0.22508582472801208
1733902477378114600,6.634114501953125,-0.05020091310143471,0.07373963296413422,-0.2329978048801422
1733902477388141300,6.644141357421875,-0.034630123525857925,0.09381582587957382,-0.2571732699871063
1733902477398168600,6.65416845703125,-0.027639593929052353,0.13329903781414032,-0.30072101950645447
1733902477408194600,6.664194580078125,-0.02885890193283558,0.17922478914260864,-0.359173446893692
1733902477418221600,6.6742216796875,-0.0329471230506897,0.20307712256908417,-0.4100611209869385
1733902477428248300,6.684248291015625,-0.04098062962293625,0.2009304016828537,-0.4423779547214508
1733902477438274300,6.6942744140625,-0.05132860690355301,0.2129412591457367,-0.4503788948059082
1733902477448301600,6.704301513671875,-0.05406765267252922,0.22850435972213745,-0.44734227657318115
1733902477458327600,6.71432763671875,-0.045199595391750336,0.23184503614902496,-0.43999701738357544
1733902477468354600,6.7243544921875,-0.033882759511470795,0.22001314163208008,-0.4278082549571991
1733902477478381300,6.73438134765625,-0.024635465815663338,0.19043341279029846,-0.4078824818134308
1733902477488407300,6.7444072265625,-0.02371399849653244,0.16457690298557281,-0.3805921971797943
1733902477498434600,6.7544345703125,-0.0338747538626194,0.1644352227449417,-0.3540591299533844
1733902477508460500,6.76446044921875,-0.03846205025911331,0.1642858237028122,-0.3357272744178772
1733902477518487600,6.774487548828125,-0.04230499267578125,0.15596716105937958,-0.3319772779941559
1733902477528513500,6.784513427734375,-0.04499772563576698,0.14400146901607513,-0.3339744210243225
1733902477538540500,6.79454052734375,-0.05369720980525017,0.1388474404811859,-0.33809220790863037
1733902477548567600,6.804567626953125,-0.06832747161388397,0.1355956792831421,-0.33921536803245544
1733902477558593500,6.814593505859375,-0.0860966145992279,0.13792835175991058,-0.3357154428958893
1733902477568620500,6.82462060546875,-0.10060067474842072,0.13819290697574615,-0.32658088207244873
1733902477578646500,6.834646484375,-0.11733092367649078,0.14193278551101685,-0.31201741099357605
1733902477588673500,6.844673583984375,-0.12509530782699585,0.14892834424972534,-0.2976568043231964
1733902477598700500,6.854700439453125,-0.13007356226444244,0.1510852426290512,-0.28476178646087646
1733902477608726500,6.8647265625,-0.13195274770259857,0.14141573011875153,-0.2685357332229614
1733902477618753500,6.87475341796875,-0.1290653496980667,0.1339045614004135,-0.2475694715976715
1733902477628779500,6.884779541015625,-0.12451191991567612,0.1279783844947815,-0.21749940514564514
1733902477638806500,6.894806640625,-0.10863309353590012,0.10970669239759445,-0.18070490658283234
1733902477648833500,6.90483349609375,-0.08789463341236115,0.09805408120155334,-0.14307764172554016
1733902477658859500,6.914859619140625,-0.06298182159662247,0.08899347484111786,-0.10389988124370575
1733902477668886500,6.924886474609375,-0.04164138436317444,0.07311917096376419,-0.0713195726275444
1733902477678912500,6.93491259765625,-0.02871013805270195,0.06240234896540642,-0.04590209573507309
1733902477688939500,6.944939453125,-0.01632845029234886,0.05808304622769356,-0.03239739313721657
1733902477698966500,6.954966552734375,-0.00653787050396204,0.0569424107670784,-0.01629272662103176
1733902477708992500,6.964992431640625,0.001258197007700801,0.0559295155107975,0.010954258032143116
1733902477719019500,6.97501953125,0.007932878099381924,0.05275502800941467,0.044495441019535065
1733902477729045500,6.98504541015625,0.015904461964964867,0.04611606150865555,0.07239203155040741
1733902477739072500,6.995072509765625,0.02608812227845192,0.04299084097146988,0.08755180984735489
1733902477749099500,7.005099609375,0.029020896181464195,0.03303922340273857,0.09187808632850647
1733902477759125500,7.01512548828125,0.019951501861214638,0.02604736015200615,0.0927414819598198
1733902477769152500,7.025152587890625,0.006503034848719835,0.03223695978522301,0.08848343044519424
1733902477779178500,7.035178466796875,-0.001386580290272832,0.04447951167821884,0.08015120029449463
1733902477789205500,7.04520556640625,-0.012943344190716743,0.05649568513035774,0.0628833919763565
1733902477799232500,7.055232421875,-0.020170364528894424,0.07099473476409912,0.04129447415471077
1733902477809258500,7.065258544921875,-0.02490503340959549,0.07382319867610931,0.025637514889240265
1733902477819285500,7.075285400390625,-0.032949112355709076,0.07661206275224686,0.01670314185321331
1733902477829311500,7.0853115234375,-0.035141509026288986,0.08187903463840485,0.015351705253124237
1733902477839338500,7.09533837890625,-0.03866593539714813,0.07708214968442917,0.020796004682779312
1733902477849365500,7.105365478515625,-0.03787797689437866,0.07459598034620285,0.027525730431079865
1733902477859391500,7.1153916015625,-0.035699512809515,0.07648656517267227,0.03701643645763397
1733902477869418500,7.12541845703125,-0.03216162696480751,0.0773131400346756,0.044244688004255295
1733902477879444500,7.135444580078125,-0.025137273594737053,0.08306103944778442,0.047976844012737274
1733902477889471500,7.145471435546875,-0.02072778157889843,0.0929502472281456,0.043204668909311295
1733902477899498500,7.15549853515625,-0.019187409430742264,0.09639105200767517,0.0313221774995327
1733902477909524500,7.1655244140625,-0.017115455120801926,0.11083722859621048,0.01180926151573658
1733902477919551500,7.175551513671875,-0.019959978759288788,0.14212830364704132,-0.007919701747596264
1733902477929577500,7.185577392578125,-0.022412581369280815,0.1558578759431839,-0.027843553572893143
1733902477939604500,7.1956044921875,-0.027581509202718735,0.16978193819522858,-0.045663297176361084
1733902477949631500,7.205631591796875,-0.030716005712747574,0.20180363953113556,-0.05892429128289223
1733902477959657500,7.215657470703125,-0.025173701345920563,0.21554821729660034,-0.06315658241510391
1733902477969684500,7.2256845703125,-0.014600628986954689,0.20836536586284637,-0.05112706869840622
1733902477979710500,7.23571044921875,-0.004442800302058458,0.18435430526733398,-0.025292808189988136
1733902477989737500,7.245737548828125,0.006045944523066282,0.16496069729328156,0.0075609758496284485
1733902477999764500,7.255764404296875,0.024118956178426743,0.16298383474349976,0.0366474911570549
1733902478009790500,7.26579052734375,0.045240309089422226,0.16032195091247559,0.0616704560816288
1733902478019817500,7.2758173828125,0.059128161519765854,0.14363831281661987,0.07930164784193039
1733902478029843500,7.285843505859375,0.06436579674482346,0.13658946752548218,0.08848606795072556
1733902478039870500,7.295870361328125,0.05776248499751091,0.12948575615882874,0.09261956065893173
1733902478049897500,7.3058974609375,0.059860218316316605,0.10891804844141006,0.09486734122037888
1733902478059923700,7.315923828125,0.05753501504659653,0.08529873937368393,0.0981249213218689
1733902478069950500,7.325950439453125,0.0530872568488121,0.07872326672077179,0.09859729558229446
1733902478079976400,7.3359765625,0.04094909876585007,0.09146089851856232,0.08583089709281921
1733902478090003700,7.346003662109375,0.028486456722021103,0.10440099239349365,0.06064588576555252
1733902478100030700,7.35603076171875,0.016782930120825768,0.10660449415445328,0.029354805126786232
1733902478110056700,7.366056640625,-0.0010245379526168108,0.10821808874607086,-0.001537464908324182
1733902478120083500,7.37608349609375,-0.01827862672507763,0.12335415929555893,-0.028358425945043564
1733902478130109400,7.386109375,-0.028138229623436928,0.14254972338676453,-0.04257357493042946
1733902478140136700,7.39613671875,-0.03483528271317482,0.18011653423309326,-0.055478453636169434
1733902478150163700,7.406163818359375,-0.029665770009160042,0.2072908729314804,-0.06544480472803116
1733902478160189700,7.416189697265625,-0.024676071479916573,0.194729283452034,-0.06483814120292664
1733902478170216400,7.426216552734375,-0.025561712682247162,0.17297984659671783,-0.05662700906395912
1733902478180242400,7.436242431640625,-0.033528026193380356,0.16450273990631104,-0.049061235040426254
1733902478190269700,7.446269775390625,-0.04164835438132286,0.17399773001670837,-0.05126139149069786
1733902478200295700,7.456295654296875,-0.042216669768095016,0.18532522022724152,-0.06348210573196411
1733902478210322700,7.46632275390625,-0.041990727186203,0.1706937700510025,-0.07710123807191849
1733902478220349400,7.476349365234375,-0.04008523374795914,0.1460251808166504,-0.085599385201931
1733902478230375400,7.48637548828125,-0.03768684342503548,0.15029264986515045,-0.09367993474006653
1733902478240402700,7.496402587890625,-0.030255824327468872,0.17013400793075562,-0.10184651613235474
1733902478250428700,7.5064287109375,-0.01825057901442051,0.18672031164169312,-0.10152383893728256
1733902478260455700,7.51645556640625,-0.0020598918199539185,0.1850651651620865,-0.08388998359441757
1733902478270482400,7.526482421875,0.011600639671087265,0.16304048895835876,-0.053365860134363174
1733902478280508400,7.53650830078125,0.016171157360076904,0.14563752710819244,-0.01982361078262329
1733902478290535700,7.54653564453125,0.01152697205543518,0.15182626247406006,0.006504370365291834
1733902478300561700,7.556561767578125,0.0003033461980521679,0.18324491381645203,0.024867398664355278
1733902478310588700,7.566588623046875,-0.010998984798789024,0.2108694314956665,0.0372716560959816
1733902478320615400,7.576615478515625,-0.0212702639400959,0.2289978414773941,0.04605475813150406
1733902478330641400,7.586641357421875,-0.031381554901599884,0.2388964295387268,0.05495261400938034
1733902478340668700,7.596668701171875,-0.03365962207317352,0.2527685761451721,0.060928210616111755
1733902478350694700,7.606694580078125,-0.030360497534275055,0.2820066213607788,0.05723360925912857
1733902478360721700,7.6167216796875,-0.018870823085308075,0.3159051835536957,0.046905338764190674
1733902478370748400,7.62674853515625,0.004691657610237598,0.3343983590602875,0.03775927796959877
1733902478380774400,7.6367744140625,0.033654600381851196,0.34321582317352295,0.033687837421894073
1733902478390801700,7.6468017578125,0.059903405606746674,0.3637770712375641,0.03569371625781059
1733902478400827600,7.65682763671875,0.08306518197059631,0.3846610486507416,0.0321357324719429
1733902478410854700,7.666854736328125,0.10442810505628586,0.3977682888507843,0.024922039359807968
1733902478420881400,7.67688134765625,0.11222424358129501,0.4124220609664917,0.02145114168524742
1733902478430907600,7.68690771484375,0.11171109229326248,0.4193863272666931,0.021371200680732727
1733902478440934700,7.6969345703125,0.0975518673658371,0.41610053181648254,0.0215632151812315
1733902478450960600,7.706960693359375,0.07625751197338104,0.4113580882549286,0.019578957930207253
1733902478460987600,7.716987548828125,0.055639851838350296,0.3967836797237396,0.014430802315473557
1733902478471014400,7.727014404296875,0.03218641132116318,0.38094308972358704,0.008461372926831245
1733902478481040600,7.73704052734375,0.005942824296653271,0.36906617879867554,0.005160917527973652
1733902478491067600,7.747067626953125,-0.0248784851282835,0.3663429915904999,-0.00015135458670556545
1733902478501093600,7.75709375,-0.05537594109773636,0.37844809889793396,-0.009790932759642601
1733902478511120600,7.76712060546875,-0.08641274273395538,0.38833245635032654,-0.012854916974902153
1733902478521146600,7.777146728515625,-0.12168950587511063,0.3888448476791382,-0.009617311879992485
1733902478531173600,7.787173583984375,-0.15625695884227753,0.38640108704566956,0.0015648039989173412
1733902478541200600,7.79720068359375,-0.18502920866012573,0.3862364888191223,0.01872408390045166
1733902478551226600,7.8072265625,-0.2075394093990326,0.38996562361717224,0.032909706234931946
1733902478561253600,7.817253662109375,-0.21698324382305145,0.38976722955703735,0.0421396903693676
1733902478571279600,7.827279541015625,-0.21425719559192657,0.3653453588485718,0.044225964695215225
1733902478581306600,7.837306640625,-0.2133149653673172,0.33667510747909546,0.0469525083899498
1733902478591333600,7.847333740234375,-0.22310204803943634,0.31286680698394775,0.04859722778201103
1733902478601359600,7.857359619140625,-0.23530012369155884,0.30802199244499207,0.04749308153986931
1733902478611386600,7.86738671875,-0.24409307539463043,0.3235231935977936,0.03695974871516228
1733902478621412600,7.87741259765625,-0.25140559673309326,0.3302663266658783,0.02360639162361622
1733902478631439600,7.887439697265625,-0.26089367270469666,0.3298748731613159,-0.0014877940993756056
1733902478641466600,7.897466552734375,-0.2744062840938568,0.31946057081222534,-0.02697104960680008
1733902478651492600,7.90749267578125,-0.29108333587646484,0.30695199966430664,-0.04988967999815941
1733902478661519600,7.91751953125,-0.3065813481807709,0.3082633316516876,-0.07323574274778366
1733902478671545600,7.927545654296875,-0.3212305009365082,0.31786012649536133,-0.09676216542720795
1733902478681572600,7.937572509765625,-0.3296213150024414,0.3434975743293762,-0.1246957927942276
1733902478691599600,7.947599609375,-0.33568283915519714,0.3669569194316864,-0.15742476284503937
1733902478703505400,7.95950537109375,-0.33300212025642395,0.3552888035774231,-0.19108818471431732
1733902478713532700,7.96953271484375,-0.3287208080291748,0.33120810985565186,-0.2150292694568634
1733902478723558700,7.97955859375,-0.3243716061115265,0.3079456388950348,-0.2256733924150467
1733902478733585700,7.989585693359375,-0.32179850339889526,0.2961529493331909,-0.23156937956809998
1733902478743612400,7.9996123046875,-0.31907781958580017,0.28111860156059265,-0.22530776262283325
1733902478753638400,8.009638427734375,-0.32836413383483887,0.2712218165397644,-0.21178080141544342
1733902478763665700,8.019665771484375,-0.33962342143058777,0.2544447183609009,-0.2002120316028595
1733902478773691600,8.029691650390625,-0.35334983468055725,0.22981469333171844,-0.19504414498806
1733902478783718700,8.03971875,-0.35893556475639343,0.21191932260990143,-0.19745589792728424
1733902478793744600,8.04974462890625,-0.3644063174724579,0.22123843431472778,-0.21074289083480835
1733902478803771600,8.059771728515624,-0.36652645468711853,0.2482231706380844,-0.23049448430538177
1733902478813798700,8.069798583984374,-0.3649998605251312,0.2693685293197632,-0.2511112689971924
1733902478823824600,8.07982470703125,-0.3624078035354614,0.28761622309684753,-0.266865998506546
1733902478833851600,8.0898515625,-0.3504151999950409,0.30216047167778015,-0.26710525155067444
1733902478843877600,8.099877685546875,-0.33680668473243713,0.29458776116371155,-0.2507939338684082
1733902478853904600,8.109904541015625,-0.3227344751358032,0.2753162980079651,-0.22057995200157166
1733902478863931600,8.119931640625,-0.3057751953601837,0.25912243127822876,-0.18815356492996216
1733902478873957600,8.12995751953125,-0.28622305393218994,0.24954357743263245,-0.16347111761569977
1733902478883984600,8.139984619140625,-0.26285460591316223,0.25569918751716614,-0.14963173866271973
1733902478894010600,8.1500107421875,-0.23461221158504486,0.2432982474565506,-0.14028766751289368
1733902478904037600,8.16003759765625,-0.21597407758235931,0.20615221560001373,-0.12904034554958344
1733902478914064600,8.170064697265625,-0.2023855447769165,0.17413221299648285,-0.11261434108018875
1733902478924090600,8.180090576171875,-0.19661952555179596,0.15722566843032837,-0.09253863245248795
1733902478934117600,8.19011767578125,-0.19192861020565033,0.14040488004684448,-0.07385776191949844
1733902478944143600,8.2001435546875,-0.17737390100955963,0.130897656083107,-0.0640682503581047
1733902478954170600,8.210170654296874,-0.1668037623167038,0.10473766177892685,-0.05957496911287308
1733902478964197600,8.22019775390625,-0.16268198192119598,0.08079424500465393,-0.059504128992557526
1733902478974223600,8.2302236328125,-0.1648385375738144,0.07434588670730591,-0.06593256443738937
1733902478984250600,8.240250732421876,-0.16578075289726257,0.08947131037712097,-0.0798419862985611
1733902478994276600,8.250276611328125,-0.16004975140094757,0.1293523609638214,-0.09663281589746475
1733902479004303600,8.2603037109375,-0.14116555452346802,0.1345718801021576,-0.10112343728542328
1733902479014330600,8.27033056640625,-0.125435009598732,0.11294937133789062,-0.09096475690603256
1733902479024356600,8.280356689453125,-0.11772195249795914,0.1057756096124649,-0.07265579700469971
1733902479034383600,8.290383544921875,-0.10854500532150269,0.11389334499835968,-0.06387102603912354
1733902479053809700,8.3098095703125,-0.08976630866527557,0.11616012454032898,-0.07264238595962524
1733902479063836700,8.319836669921875,-0.09121320396661758,0.11144793033599854,-0.07607200741767883
1733902479073862700,8.329862548828125,-0.09443618357181549,0.10198226571083069,-0.06945231556892395
1733902479083889400,8.339889404296875,-0.09493473172187805,0.10022644698619843,-0.06018637865781784
1733902479093916400,8.34991650390625,-0.09364082664251328,0.10228553414344788,-0.05580504983663559
1733902479103942400,8.3599423828125,-0.08599409461021423,0.11391555517911911,-0.06222672760486603
1733902479113969700,8.3699697265625,-0.07284078747034073,0.1221824362874031,-0.07397601753473282
1733902479123995600,8.37999560546875,-0.06232129782438278,0.10982483625411987,-0.07530360668897629
1733902479134022400,8.3900224609375,-0.0535249300301075,0.07898358255624771,-0.06205889582633972
1733902479144049400,8.40004931640625,-0.0438816212117672,0.0471111424267292,-0.038068074733018875
1733902479154075400,8.410075439453125,-0.033631764352321625,0.014351924881339073,-0.006693967618048191
1733902479164102700,8.4201025390625,-0.022071782499551773,-0.0022619389928877354,0.021042853593826294
1733902479174128600,8.430128662109375,-0.005485218949615955,-0.016288477927446365,0.04109099134802818
1733902479184155400,8.4401552734375,0.014443215914070606,-0.03502781316637993,0.05023495480418205
1733902479194182400,8.450182373046875,0.030908485874533653,-0.045092836022377014,0.05096818879246712
1733902479204208400,8.46020849609375,0.042488180100917816,-0.029195627197623253,0.041513700038194656
1733902479214235600,8.470235595703125,0.0630994588136673,-0.007091795094311237,0.0398908331990242
1733902479224261600,8.48026171875,0.07936205714941025,-0.007836148142814636,0.04753224179148674
1733902479234288400,8.490288330078124,0.08691401034593582,-0.013443985022604465,0.05878664553165436
1733902479244315400,8.5003154296875,0.08612624555826187,0.010127387009561062,0.05671976879239082
1733902479254341600,8.510341552734374,0.08728686720132828,0.035229671746492386,0.04163195937871933
1733902479264368600,8.52036865234375,0.09199107438325882,0.04198717698454857,0.021873969584703445
1733902479274394600,8.53039453125,0.09981883317232132,0.04155857488512993,0.012231113389134407
1733902479284421400,8.54042138671875,0.10667114704847336,0.028850771486759186,0.009913098067045212
1733902479294447400,8.550447265625,0.11504559963941574,0.009016809053719044,0.01813470758497715
1733902479304474600,8.560474609375,0.1201024055480957,0.002782349241897464,0.028036074712872505
1733902479314501600,8.570501708984375,0.12778568267822266,0.012213500216603279,0.029564544558525085
1733902479324527600,8.580527587890625,0.1347445249557495,0.01648760586977005,0.02785133384168148
1733902479334554400,8.590554443359375,0.14402762055397034,0.01725122332572937,0.023119376972317696
1733902479344580400,8.600580322265625,0.15716658532619476,-0.0028641659300774336,0.020084969699382782
1733902479354607600,8.610607666015625,0.17505699396133423,-0.044330429285764694,0.026249827817082405
1733902479364634600,8.620634521484375,0.19576652348041534,-0.06273500621318817,0.033053938299417496
1733902479374660600,8.63066064453125,0.21367113292217255,-0.05755869671702385,0.03146032989025116
1733902479384687400,8.640687255859374,0.22479674220085144,-0.05820877477526665,0.021977081894874573
1733902479394713300,8.65071337890625,0.23605073988437653,-0.07765384763479233,0.00863198097795248
1733902479404740600,8.66074072265625,0.24086785316467285,-0.09249377995729446,0.002120019868016243
1733902479414767600,8.670767578125,0.2431548535823822,-0.10389804095029831,0.00018859445117413998
1733902479424793600,8.680793701171876,0.24781592190265656,-0.11751265078783035,0.010382376611232758
1733902479434820400,8.6908203125,0.2541574239730835,-0.1317054182291031,0.0296840388327837
1733902479444846300,8.700846435546875,0.2615263760089874,-0.15551142394542694,0.057824864983558655
1733902479454873600,8.71087353515625,0.26389071345329285,-0.18638023734092712,0.084500752389431
1733902479464900600,8.720900634765625,0.24973493814468384,-0.21996669471263885,0.09736994653940201
1733902479474926600,8.730926513671875,0.22222550213336945,-0.23579183220863342,0.08768778294324875
1733902479484953300,8.740953369140625,0.1989143192768097,-0.23300109803676605,0.05069807171821594
1733902479494979300,8.750979248046875,0.18460187315940857,-0.21288007497787476,-0.00145582458935678
1733902479505006600,8.761006591796875,0.17910456657409668,-0.19648805260658264,-0.04784276336431503
1733902479515033600,8.77103369140625,0.17428040504455566,-0.1971367448568344,-0.06485424935817719
1733902479525059600,8.7810595703125,0.16356651484966278,-0.20905226469039917,-0.055034905672073364
1733902479535086300,8.79108642578125,0.1544530838727951,-0.21438613533973694,-0.031678132712841034
1733902479545112300,8.8011123046875,0.1495259702205658,-0.2049897015094757,-0.013645870611071587
1733902479555139600,8.8111396484375,0.1543901115655899,-0.18614564836025238,-0.007385346572846174
1733902479565166600,8.82116650390625,0.16088156402111053,-0.17335981130599976,-0.018335465341806412
1733902479575192600,8.831192626953126,0.16710402071475983,-0.17631909251213074,-0.04365801811218262
1733902479585219300,8.84121923828125,0.17340266704559326,-0.19050441682338715,-0.0782996192574501
1733902479595245600,8.85124560546875,0.17668448388576508,-0.20823270082473755,-0.10834105312824249
1733902479605272600,8.8612724609375,0.17498353123664856,-0.22992920875549316,-0.11108411103487015
1733902479615299600,8.871299560546875,0.1621633917093277,-0.2501594126224518,-0.09610993415117264
1733902479625325600,8.88132568359375,0.1466912180185318,-0.26710936427116394,-0.06678586453199387
1733902479635352300,8.891352294921875,0.1345580518245697,-0.2750420868396759,-0.03692534565925598
1733902479645378600,8.901378662109375,0.12186089158058167,-0.27097463607788086,-0.0165199413895607
1733902479655405600,8.911405517578125,0.10407207906246185,-0.24221795797348022,-0.008176063187420368
1733902479665432600,8.9214326171875,0.08640466630458832,-0.2013685256242752,-0.011852824129164219
1733902479675458300,8.931458251953124,0.06799212098121643,-0.18702170252799988,-0.0164839718490839
1733902479685485600,8.941485595703124,0.042989570647478104,-0.20490030944347382,-0.01623496599495411
1733902479695511600,8.951511474609376,0.015546982176601887,-0.2583000063896179,-0.00937754474580288
1733902479705538600,8.96153857421875,-0.017787804827094078,-0.3401983380317688,-0.0007254671072587371
1733902479715565600,8.971565673828126,-0.06003400683403015,-0.4239659607410431,0.008944488130509853
1733902479725591300,8.98159130859375,-0.0997886061668396,-0.47379395365715027,0.014868424274027348
1733902479735618600,8.99161865234375,-0.12344393879175186,-0.48320087790489197,0.012432614341378212
1733902479745644500,9.00164453125,-0.12630018591880798,-0.47990360856056213,0.005178696010261774
1733902479755671600,9.011671630859375,-0.10522328317165375,-0.48055028915405273,-0.006414541509002447
1733902479765698600,9.021698486328125,-0.07408719509840012,-0.5064140558242798,-0.018192904070019722
1733902479775724300,9.031724365234375,-0.05240166559815407,-0.5546929240226746,-0.02532886154949665
1733902479785751600,9.04175146484375,-0.04367075860500336,-0.5983434319496155,-0.024630313739180565
1733902479795777500,9.051777587890625,-0.05542377382516861,-0.6377232670783997,-0.012719107791781425
1733902479805804500,9.061804443359375,-0.07449600100517273,-0.6772310137748718,0.015620388090610504
1733902479815830500,9.07183056640625,-0.08943317085504532,-0.70131915807724,0.05819907784461975
1733902479825857300,9.081857177734374,-0.09045661985874176,-0.695349395275116,0.10254230350255966
1733902479835884500,9.091884521484374,-0.06460871547460556,-0.6430832743644714,0.1288222372531891
1733902479845910500,9.10191064453125,-0.009279677644371986,-0.5570785999298096,0.12782356142997742
1733902479855937500,9.1119375,0.06801124662160873,-0.4943605959415436,0.10092838853597641
1733902479865963500,9.121963623046875,0.13320516049861908,-0.46038398146629333,0.06175755336880684
1733902479875990300,9.131990234375,0.1700451821088791,-0.4445793032646179,0.021329903975129128
1733902479886017500,9.142017578125,0.16853970289230347,-0.44235262274742126,-0.008381386287510395
1733902479896043500,9.15204345703125,0.13242065906524658,-0.43965983390808105,-0.028668465092778206
1733902479906070500,9.162070556640625,0.08367174863815308,-0.4401112198829651,-0.04975297674536705
1733902479916096500,9.172096435546875,0.04367401450872421,-0.45399123430252075,-0.0741725042462349
1733902479926123300,9.182123291015625,0.019027257338166237,-0.4556772708892822,-0.10360097140073776
1733902479936150500,9.192150634765625,0.014356765896081924,-0.42130833864212036,-0.14060692489147186
1733902479946176500,9.202176513671875,0.029769811779260635,-0.3927920162677765,-0.17656439542770386
1733902479956203500,9.21220361328125,0.05593071132898331,-0.4092874228954315,-0.1970583200454712
1733902479966229500,9.2222294921875,0.07312541455030441,-0.45005321502685547,-0.1946694701910019
1733902479976256500,9.232256591796874,0.08757811784744263,-0.49553629755973816,-0.1669563502073288
1733902479986283500,9.242283447265624,0.10676539689302444,-0.5141315460205078,-0.1255931854248047
1733902479996309500,9.2523095703125,0.13720263540744781,-0.5195817947387695,-0.08358191698789597
1733902480006336500,9.26233642578125,0.1686263382434845,-0.552871584892273,-0.047543756663799286
1733902480016362500,9.272362548828125,0.18170414865016937,-0.5904247760772705,-0.012589927762746811
1733902480026389500,9.282389404296875,0.1680660992860794,-0.5972831845283508,0.02876497060060501
1733902480036416500,9.29241650390625,0.14801323413848877,-0.590020477771759,0.06379134953022003
1733902480046442500,9.3024423828125,0.12735961377620697,-0.6017990708351135,0.09347760677337646
1733902480056469500,9.312469482421875,0.11082228273153305,-0.6257568001747131,0.11691179871559143
1733902480066496300,9.322496337890625,0.09963088482618332,-0.6499542593955994,0.13317306339740753
1733902480076523300,9.332523193359375,0.10005500167608261,-0.6396923661231995,0.14961743354797363
1733902480086549200,9.34254931640625,0.11275135725736618,-0.6226627826690674,0.15957365930080414
1733902480096576300,9.352576171875,0.12855081260204315,-0.6188784241676331,0.17196285724639893
1733902480106603300,9.362603271484375,0.13258124887943268,-0.6284652352333069,0.18521448969841003
1733902480116629200,9.372629150390624,0.12409612536430359,-0.6361958980560303,0.1840597242116928
1733902480126656300,9.38265625,0.10530326515436172,-0.585637092590332,0.15506695210933685
1733902480136682200,9.39268212890625,0.08832086622714996,-0.5285412669181824,0.08321242034435272
1733902480146709200,9.402709228515626,0.06603207439184189,-0.49672046303749084,-0.02410258911550045
1733902480156736300,9.412736328125,0.03928370773792267,-0.44290924072265625,-0.1399332880973816
1733902480166762200,9.42276220703125,0.016452165320515633,-0.3934519290924072,-0.2227000743150711
1733902480176789200,9.432789306640625,-0.00022135418839752674,-0.3652690351009369,-0.24805976450443268
1733902480186815200,9.442815185546875,-0.00716900872066617,-0.3474985659122467,-0.21908296644687653
1733902480196842200,9.45284228515625,0.0073877982795238495,-0.3501630425453186,-0.1551925539970398
1733902480206869200,9.462869140625,0.037501223385334015,-0.32695892453193665,-0.09277045726776123
1733902480216895200,9.472895263671875,0.0785364881157875,-0.3000628352165222,-0.05399083346128464
1733902480226922200,9.482922119140625,0.1118750050663948,-0.30412548780441284,-0.04353686049580574
1733902480236948200,9.4929482421875,0.1322261542081833,-0.3186328411102295,-0.05316682904958725
1733902480246975200,9.502975341796875,0.13916581869125366,-0.32625266909599304,-0.0669873058795929
1733902480257002200,9.513002197265624,0.13898977637290955,-0.3068792223930359,-0.07426652312278748
1733902480267028200,9.5230283203125,0.14103294909000397,-0.276795893907547,-0.07483750581741333
1733902480277055200,9.53305517578125,0.142784982919693,-0.22769701480865479,-0.07327906787395477
1733902480287081200,9.543081298828126,0.14554162323474884,-0.18547020852565765,-0.07409586012363434
1733902480297108200,9.553108154296876,0.14808455109596252,-0.17560525238513947,-0.07785502821207047
1733902480307134200,9.56313427734375,0.14222081005573273,-0.1812058836221695,-0.08810287714004517
1733902480317161200,9.5731611328125,0.13401739299297333,-0.17786450684070587,-0.10208483785390854
1733902480327188200,9.583188232421875,0.12703484296798706,-0.15097829699516296,-0.12482424080371857
1733902480337214200,9.593214111328125,0.13384701311588287,-0.13879476487636566,-0.15919199585914612
1733902480347241200,9.6032412109375,0.14343678951263428,-0.1714475154876709,-0.18508164584636688
1733902480357267200,9.61326708984375,0.14922383427619934,-0.20610816776752472,-0.19207969307899475
1733902480367294200,9.623294189453125,0.15987035632133484,-0.21212850511074066,-0.15672117471694946
1733902480377321200,9.6333212890625,0.1805514693260193,-0.20962491631507874,-0.08841067552566528
1733902480387347200,9.64334716796875,0.21245133876800537,-0.22847609221935272,0.00029309699311852455
1733902480397374200,9.653374267578124,0.24292625486850739,-0.24572981894016266,0.08109121769666672
1733902480407400200,9.663400146484374,0.2701166272163391,-0.2597244679927826,0.13005051016807556
1733902480417427200,9.67342724609375,0.2885608375072479,-0.26000943779945374,0.15162384510040283
1733902480427454200,9.6834541015625,0.29532286524772644,-0.24054117500782013,0.15341509878635406
1733902480437480200,9.693480224609376,0.2991316318511963,-0.21667587757110596,0.1457148641347885
1733902480447507200,9.703507080078126,0.29854413866996765,-0.19341929256916046,0.12717686593532562
1733902480457533400,9.713533447265625,0.2936600148677826,-0.18184298276901245,0.10957042872905731
1733902480467560200,9.723560302734375,0.2827037572860718,-0.17397440969944,0.09794332832098007
1733902480477587200,9.733587158203125,0.27325913310050964,-0.16157300770282745,0.09328803420066833
1733902480487613200,9.74361328125,0.2533669173717499,-0.14331305027008057,0.09449125081300735
1733902480497640200,9.75364013671875,0.23287604749202728,-0.10668246448040009,0.09718925505876541
1733902480507666400,9.76366650390625,0.21138246357440948,-0.11572709679603577,0.10219652950763702
1733902480517693200,9.773693115234375,0.1887873113155365,-0.13741742074489594,0.10903376340866089
1733902480527719200,9.78371923828125,0.17086024582386017,-0.1473616659641266,0.11071288585662842
1733902480537746200,9.79374609375,0.16362054646015167,-0.14489337801933289,0.11133629083633423
1733902480547773200,9.803773193359374,0.1611938625574112,-0.12524297833442688,0.11289983242750168
1733902480557799400,9.81379931640625,0.16422030329704285,-0.12658748030662537,0.11444560438394547
1733902480567826200,9.823826171875,0.1613137274980545,-0.1398622691631317,0.11019972711801529
1733902480577852200,9.83385205078125,0.15522240102291107,-0.1358480155467987,0.10554781556129456
1733902480587879200,9.843879150390626,0.14006102085113525,-0.13109107315540314,0.08937390893697739
1733902480597906400,9.853906494140626,0.11775893718004227,-0.1118130013346672,0.06679549068212509
1733902480607932400,9.863932373046875,0.10149021446704865,-0.08079089969396591,0.04265180230140686
1733902480617959200,9.873959228515625,0.0884438082575798,-0.05989661440253258,0.018737072125077248
1733902480627985200,9.883985107421875,0.08512258529663086,-0.07099241018295288,0.011872241273522377
1733902480638012200,9.89401220703125,0.08237041532993317,-0.08616068214178085,0.03043499030172825
1733902480648039400,9.904039306640625,0.09145525842905045,-0.09954839199781418,0.06842391937971115
1733902480658065400,9.9140654296875,0.1110304519534111,-0.10658001899719238,0.11164305359125137
1733902480668092200,9.924092041015625,0.1331283003091812,-0.12656410038471222,0.14901545643806458
1733902480678118100,9.9341181640625,0.14816078543663025,-0.15656422078609467,0.17450623214244843
1733902480688145200,9.944145263671874,0.14940741658210754,-0.17783008515834808,0.19463972747325897
1733902480698171100,9.954171142578126,0.1427789032459259,-0.185871422290802,0.20883889496326447
1733902480708198400,9.964198486328126,0.1305834949016571,-0.1770308017730713,0.21026182174682617
1733902480718225200,9.97422509765625,0.12203217297792435,-0.16411757469177246,0.17566436529159546
1733902480728251100,9.984251220703126,0.12251047790050507,-0.1591518521308899,0.0975746214389801
1733902480738278100,9.994278076171875,0.12362539768218994,-0.15498380362987518,-0.008496115915477276
1733902480748304100,10.00430419921875,0.11470380425453186,-0.13060948252677917,-0.11278310418128967
1733902480758331400,10.014331298828125,0.08834964036941528,-0.09699317067861557,-0.1985291838645935
1733902480768358100,10.024358154296875,0.05647506192326546,-0.05277217552065849,-0.2533889710903168
1733902480778384100,10.034384033203125,0.047268353402614594,-0.03406365588307381,-0.2821039855480194
1733902480788411100,10.0444111328125,0.056902073323726654,-0.054149750620126724,-0.2827780544757843
1733902480798437400,10.054437255859375,0.07950866222381592,-0.09293127804994583,-0.2575279176235199
1733902480808464400,10.06446435546875,0.10971290618181229,-0.11783315986394882,-0.22223226726055145
1733902480818490400,10.074490478515624,0.13924945890903473,-0.13888515532016754,-0.18419982492923737
1733902480828517000,10.08451708984375,0.1664520502090454,-0.14628475904464722,-0.1596422791481018
1733902480838544100,10.094544189453124,0.1850995421409607,-0.16027209162712097,-0.14304021000862122
1733902480848570400,10.1045703125,0.19442246854305267,-0.16217146813869476,-0.13240140676498413
1733902480858597400,10.114597412109376,0.19719940423965454,-0.1607608199119568,-0.12171383202075958
1733902480868623400,10.124623291015626,0.19260065257549286,-0.15399478375911713,-0.1098819375038147
1733902480878650000,10.134650146484375,0.19275297224521637,-0.13353025913238525,-0.10386761277914047
1733902480888677400,10.144677490234375,0.1918693333864212,-0.11434057354927063,-0.10157755762338638
1733902480898703400,10.154703369140625,0.2009958028793335,-0.10571624338626862,-0.09943727403879166
1733902480908730400,10.16473046875,0.21244286000728607,-0.11266975104808807,-0.0935564786195755
1733902480918756400,10.17475634765625,0.22590410709381104,-0.13150469958782196,-0.07880270481109619
1733902480928783000,10.184783203125,0.22830761969089508,-0.14803200960159302,-0.057159993797540665
1733902480938810400,10.194810302734375,0.22467006742954254,-0.16034996509552002,-0.029572555795311928
1733902480948836400,10.20483642578125,0.21159234642982483,-0.16362245380878448,-0.0035433524753898382
1733902480958863400,10.21486328125,0.1951340138912201,-0.19367650151252747,0.02499321661889553
1733902480968889300,10.224889404296874,0.16942225396633148,-0.2088482528924942,0.057400692254304886
1733902480978916000,10.234916015625,0.1483212113380432,-0.201786607503891,0.07614175975322723
1733902480988942000,10.244942138671876,0.13612526655197144,-0.1942746341228485,0.08548679202795029
1733902480998969300,10.25496923828125,0.12996822595596313,-0.1951315999031067,0.08704259246587753
1733902481008996400,10.264996337890626,0.1240544244647026,-0.1912950575351715,0.07914498448371887
1733902481019022300,10.275022216796875,0.10909521579742432,-0.17989155650138855,0.06786536425352097
1733902481029049000,10.285049072265625,0.08576805144548416,-0.16555549204349518,0.05643853917717934
1733902481039075000,10.295074951171875,0.06585212796926498,-0.15364715456962585,0.04820100590586662
1733902481049102300,10.305102294921875,0.045155372470617294,-0.1411883533000946,0.04050314053893089
1733902481059129300,10.31512939453125,0.019238190725445747,-0.11282111704349518,0.030703604221343994
1733902481069154600,10.325154541015625,0.00460092443972826,-0.07500423491001129,0.021543659269809723
1733902481079181600,10.335181640625,0.0060148658230900764,-0.06026726961135864,0.018692031502723694
1733902481089207600,10.34520751953125,0.018293635919690132,-0.05409139394760132,0.028150513768196106
1733902481099234600,10.355234619140624,0.03801082447171211,-0.047505371272563934,0.0450168251991272
1733902481109261600,10.365261474609374,0.06640011817216873,-0.04216732829809189,0.057945407927036285
1733902481119287800,10.375287841796874,0.09365838021039963,-0.05185791105031967,0.057503920048475266
1733902481129314600,10.385314453125,0.11808755993843079,-0.06519236415624619,0.03382309526205063
1733902481139340500,10.395340576171876,0.13559769093990326,-0.0625632032752037,-0.0018816711381077766
1733902481149367600,10.405367431640625,0.14008831977844238,-0.03776624798774719,-0.038976311683654785
1733902481159393500,10.4153935546875,0.1385376900434494,-0.03759494796395302,-0.056799549609422684
1733902481169420800,10.4254208984375,0.13052557408809662,-0.036366432905197144,-0.059880029410123825
1733902481179447600,10.435447509765625,0.1315070539712906,-0.024463621899485588,-0.05895327776670456
1733902481189473500,10.4454736328125,0.14059589803218842,-0.0013899941695854068,-0.06937422603368759
1733902481199500500,10.45550048828125,0.14845676720142365,0.033897679299116135,-0.09733355790376663
1733902481209526500,10.465526611328125,0.1530589759349823,0.03663061559200287,-0.1358758807182312
1733902481219553800,10.4755537109375,0.15234558284282684,0.025821475312113762,-0.16631361842155457
1733902481229579800,10.485579833984374,0.1497306376695633,0.04078657552599907,-0.17219707369804382
1733902481239606500,10.4956064453125,0.15701858699321747,0.06175379827618599,-0.1685967892408371
1733902481249633500,10.505633544921874,0.1720001995563507,0.06440390646457672,-0.1625910997390747
1733902481259659500,10.515659423828126,0.18607273697853088,0.05196622014045715,-0.1624234914779663
1733902481269686800,10.525686767578126,0.18782669305801392,0.020499372854828835,-0.15920744836330414
1733902481279712800,10.535712646484376,0.17062678933143616,-0.003633450949564576,-0.14356496930122375
1733902481289739500,10.545739501953125,0.15566088259220123,-0.026504145935177803,-0.11107733845710754
1733902481299766500,10.5557666015625,0.14705941081047058,-0.057698946446180344,-0.07641103118658066
1733902481309792500,10.56579248046875,0.13781370222568512,-0.06878355145454407,-0.05292461812496185
1733902481319819800,10.57581982421875,0.12946215271949768,-0.06546997278928757,-0.04535501077771187
1733902481329845800,10.585845703125,0.11844492703676224,-0.06320203095674515,-0.05235672742128372
1733902481339872500,10.59587255859375,0.10626257956027985,-0.06671182811260223,-0.05883314087986946
1733902481349899500,10.6058994140625,0.09289751201868057,-0.08786717802286148,-0.06442604213953018
1733902481359925500,10.615925537109375,0.07511375099420547,-0.08936294913291931,-0.05789881572127342
1733902481369952800,10.625952880859375,0.05183451995253563,-0.07168994843959808,-0.050612673163414
1733902481379978800,10.635978759765624,0.031037572771310806,-0.06924380362033844,-0.044901274144649506
1733902481390005500,10.646005615234374,0.004226729739457369,-0.08155666291713715,-0.05700667202472687
1733902481400031500,10.656031494140626,-0.02480926737189293,-0.08291176706552505,-0.07880795001983643
1733902481410058500,10.66605859375,-0.0508270189166069,-0.08101773262023926,-0.09443750977516174
1733902481420085800,10.676085693359376,-0.07509071379899979,-0.0863981619477272,-0.09279470145702362
1733902481430111700,10.68611181640625,-0.09028112143278122,-0.09350693970918655,-0.07488920539617538
1733902481440138500,10.696138427734375,-0.09632234275341034,-0.08938311040401459,-0.043814342468976974
1733902481450164500,10.70616455078125,-0.10016049444675446,-0.09626471996307373,-0.01605115458369255
1733902481460191700,10.716191650390625,-0.0983748584985733,-0.10967253893613815,0.0038926606066524982
1733902481470218800,10.72621875,-0.09215078502893448,-0.10672494769096375,0.016427893191576004
1733902481480244700,10.73624462890625,-0.070863276720047,-0.09688353538513184,0.026685606688261032
1733902481490271500,10.746271484375,-0.03212040662765503,-0.11623592674732208,0.03782081976532936
1733902481500297500,10.75629736328125,0.016595792025327682,-0.14050613343715668,0.04814111813902855
1733902481510324700,10.76632470703125,0.053982045501470566,-0.1562374234199524,0.04451895132660866
1733902481520350700,10.776350830078124,0.06777186691761017,-0.1640336960554123,0.02380426414310932
1733902481530377700,10.786377685546874,0.06671619415283203,-0.15982963144779205,-0.019900072365999222
1733902481540404500,10.796404541015624,0.056197818368673325,-0.14127154648303986,-0.08741098642349243
1733902481550430500,10.806430419921876,0.04805626720190048,-0.10119736194610596,-0.15256468951702118
1733902481560457700,10.816457763671876,0.047310493886470795,-0.06899237632751465,-0.19648601114749908
1733902481570483700,10.826483642578125,0.04872942715883255,-0.05075797811150551,-0.2069604992866516
1733902481580510700,10.8365107421875,0.041938599199056625,-0.029020577669143677,-0.1982007622718811
1733902481590537500,10.846537353515625,0.030986351892352104,-0.012308708392083645,-0.18515926599502563
1733902481600563500,10.8565634765625,0.020844783633947372,0.015099074691534042,-0.18216463923454285
1733902481610590700,10.8665908203125,0.01553071103990078,0.08747261017560959,-0.19122417271137238
1733902481620616700,10.87661669921875,0.01752610318362713,0.12293358892202377,-0.20824025571346283
1733902481630643700,10.886643798828125,0.01951761357486248,0.08862514793872833,-0.21946680545806885
1733902481640669700,10.896669677734375,0.02163795381784439,0.08435014635324478,-0.2278984636068344
1733902481650696400,10.906696533203124,0.033211253583431244,0.11728918552398682,-0.24123530089855194
1733902481660723700,10.9167236328125,0.06059986352920532,0.13947339355945587,-0.2496555894613266
1733902481670749700,10.926749755859374,0.0855179950594902,0.11538242548704147,-0.2517669200897217
1733902481680776700,10.936776611328124,0.09846510738134384,0.0882914811372757,-0.24532665312290192
1733902481690802700,10.946802734375,0.10406999289989471,0.07975205779075623,-0.23671212792396545
1733902481700829400,10.956829345703126,0.10938367247581482,0.09423891454935074,-0.21824100613594055
1733902481710856700,10.966856689453126,0.10063812136650085,0.07117700576782227,-0.1950371414422989
1733902481720882700,10.976882568359375,0.06874848157167435,0.034407347440719604,-0.18246519565582275
1733902481730909700,10.98690966796875,0.029803205281496048,0.017183354124426842,-0.19506248831748962
1733902481740935700,10.996935791015625,0.00359045690856874,0.01687232404947281,-0.22379758954048157
1733902481750962700,11.006962646484375,-0.010338674299418926,0.023048993200063705,-0.2445678561925888
1733902481760988700,11.01698876953125,-0.014963002875447273,0.02679966390132904,-0.24455128610134125
1733902481771015700,11.027015625,-0.02716267667710781,0.012244423851370811,-0.219110906124115
1733902481781042700,11.037042724609375,-0.05179586261510849,-0.008396267890930176,-0.18304911255836487
1733902481791068700,11.047068603515624,-0.085781529545784,-0.008759789168834686,-0.16174302995204926
1733902481801095700,11.057095703125,-0.1233004555106163,0.004595854785293341,-0.169488787651062
1733902481811121700,11.06712158203125,-0.148290753364563,0.017936427146196365,-0.1937701553106308
1733902481821148700,11.077148681640624,-0.1579160839319229,0.0038334510754793882,-0.21985264122486115
1733902481831175700,11.08717578125,-0.1598561853170395,-0.002901150844991207,-0.237495556473732
1733902481841201700,11.09720166015625,-0.15339785814285278,0.014822502620518208,-0.2384956032037735
1733902481851228700,11.107228759765626,-0.15024787187576294,0.01859886385500431,-0.2160736471414566
1733902481861254700,11.117254638671875,-0.15469320118427277,0.018447991460561752,-0.16594168543815613
1733902481871281700,11.12728173828125,-0.17967098951339722,-0.007644063327461481,-0.09412077069282532
1733902481881307600,11.1373076171875,-0.21366442739963531,-0.008119141682982445,-0.010943874716758728
1733902481891334700,11.147334716796875,-0.24491316080093384,0.002678645309060812,0.05704662576317787
1733902481901361700,11.157361572265625,-0.26846635341644287,0.02644212916493416,0.09931454062461853
1733902481911387600,11.1673876953125,-0.2808540463447571,0.06673122942447662,0.11037411540746689
1733902481921414700,11.17741455078125,-0.2849850058555603,0.10436175763607025,0.10739932954311371
1733902481931440600,11.187440673828124,-0.2756154537200928,0.137931689620018,0.09782873094081879
1733902481941467600,11.197467529296874,-0.2588929235935211,0.14249688386917114,0.08943737298250198
1733902481951494700,11.20749462890625,-0.24612389504909515,0.14492915570735931,0.08786610513925552
1733902481961520600,11.217520751953124,-0.2396598607301712,0.1410590559244156,0.09577638655900955
1733902481971547600,11.227547607421876,-0.23507577180862427,0.09845486283302307,0.11725983768701553
1733902481981573600,11.23757373046875,-0.2331008017063141,0.05647533759474754,0.14907892048358917
1733902481991600600,11.2476005859375,-0.21802838146686554,0.034158047288656235,0.187552809715271
1733902482001626600,11.257626708984375,-0.18867693841457367,0.004963706247508526,0.23625776171684265
1733902482011653600,11.267653564453125,-0.1516030728816986,-0.02332359179854393,0.29640284180641174
1733902482021680600,11.2776806640625,-0.10953394323587418,-0.04403777793049812,0.3515782952308655
1733902482031706600,11.28770654296875,-0.07994329929351807,-0.048612289130687714,0.38666677474975586
1733902482041733400,11.2977333984375,-0.09199836105108261,-0.06229374557733536,0.3862007260322571
1733902482051759600,11.307759521484375,-0.14350682497024536,-0.001365681062452495,0.38251999020576477
1733902482061786600,11.31778662109375,0.03036394901573658,0.6672974824905396,0.1875634342432022
1733902482071812600,11.3278125,1.7123051881790161,2.983377695083618,-1.0653971433639526
1733902482081839600,11.337839599609374,1.4650720357894897,-0.274208128452301,-0.5780237913131714
1733902482091866600,11.34786669921875,0.940250039100647,-1.6768649816513062,0.2924538254737854
1733902482101892600,11.357892578125,0.4345759153366089,-0.9756267070770264,1.001738429069519
1733902482111919600,11.367919677734376,0.05505654215812683,-0.06820753216743469,1.475304365158081
1733902482121945600,11.377945556640626,-0.21085619926452637,0.12108175456523895,1.680379867553711
1733902482131972600,11.38797265625,-0.3714147210121155,-0.0959477648139,1.5807584524154663
1733902482141998600,11.39799853515625,-0.4660353362560272,-0.19937437772750854,1.1974493265151978
1733902482152025600,11.408025634765625,-0.4961804449558258,0.03414171189069748,0.6171196699142456
1733902482162052600,11.418052490234375,-0.46018481254577637,0.37164631485939026,-0.004103031009435654
1733902482172078600,11.42807861328125,-0.36997607350349426,0.5510424375534058,-0.4710529148578644
1733902482182105600,11.438105712890625,-0.26260605454444885,0.5372795462608337,-0.6597562432289124
1733902482192131600,11.448131591796875,-0.17029927670955658,0.34183281660079956,-0.5491045713424683
1733902482202158600,11.45815869140625,-0.09402348101139069,0.10812927782535553,-0.2678169906139374
1733902482212185600,11.468185546875,-0.032872769981622696,-0.027841605246067047,0.03554847463965416
1733902482222211600,11.478211669921874,0.00794404000043869,-0.10414070636034012,0.24908675253391266
1733902482232238600,11.488238525390624,0.018428904935717583,-0.14471901953220367,0.32716238498687744
1733902482242264600,11.4982646484375,-0.05160171911120415,-0.17256948351860046,0.2962130904197693
1733902482252291600,11.50829150390625,-0.1752893030643463,-0.07047881931066513,0.1511424481868744
1733902482262317600,11.518317626953126,-0.2875063419342041,0.13151049613952637,-0.08878585696220398
1733902482272344600,11.528344482421875,-0.3528081178665161,0.2929840683937073,-0.31892746686935425
1733902482282371600,11.53837158203125,-0.3788772523403168,0.3649715781211853,-0.46628430485725403
1733902482292397600,11.5483974609375,-0.37722715735435486,0.3428710699081421,-0.5206221342086792
1733902482302424600,11.558424560546875,-0.3525533378124237,0.27171024680137634,-0.5031332969665527
1733902482312450600,11.568450439453125,-0.3063504099845886,0.25476399064064026,-0.447275847196579
1733902482322477600,11.5784775390625,-0.24634025990962982,0.2446966916322708,-0.4056006669998169
1733902482332504600,11.588504638671875,-0.1821327656507492,0.21177256107330322,-0.3836064338684082
1733902482342530800,11.59853076171875,-0.1358470767736435,0.19582809507846832,-0.3639077842235565
1733902482352557600,11.6085576171875,-0.12380746006965637,0.17479658126831055,-0.3427862524986267
1733902482362583600,11.61858349609375,-0.15327832102775574,0.1521485596895218,-0.31780606508255005
1733902482372610600,11.628610595703124,-0.2271014153957367,0.1740698367357254,-0.2505492866039276
1733902482382636500,11.638636474609376,-0.796174943447113,0.73019939661026,1.6179546117782593
1733902482392663800,11.648663818359376,-1.321610689163208,-0.41797327995300293,3.325235605239868
1733902482402690600,11.658690673828126,-0.9899466633796692,-1.3071128129959106,3.032360553741455
1733902482412716500,11.668716552734375,-0.6789045929908752,-1.1529557704925537,2.5529966354370117
1733902482422743600,11.67874365234375,-0.5752740502357483,-0.5951805710792542,2.348656415939331
1733902482432769500,11.68876953125,-0.6020054817199707,-0.314720094203949,2.1205172538757324
1733902482442796800,11.698796875,-0.5417761206626892,-0.2798033058643341,1.5748242139816284
1733902482452822800,11.70882275390625,-0.4709951877593994,-0.21039919555187225,1.0779467821121216
1733902482462849500,11.718849609375,-0.4332309365272522,-0.10261218994855881,0.7261878252029419
1733902482472876500,11.72887646484375,-0.36397650837898254,0.003663383424282074,0.428457647562027
1733902482482902500,11.738902587890625,-0.25031399726867676,0.0866832360625267,0.22360101342201233
1733902482492929800,11.7489296875,-0.13411015272140503,0.08739696443080902,0.06193887069821358
1733902482502955800,11.758955810546874,-0.09818680584430695,0.06540938466787338,-0.07064913213253021
1733902482512982500,11.768982421875,-0.13160307705402374,0.08841882646083832,-0.20826798677444458
1733902482523009500,11.779009521484374,-0.21104200184345245,0.1499791443347931,-0.28725868463516235
1733902482533035500,11.789035400390626,-0.2458556443452835,0.2096525877714157,-0.3350467085838318
1733902482543062800,11.799062744140626,-0.19210754334926605,0.24186836183071136,-0.3470212519168854
1733902482553088800,11.8090888671875,-0.10197098553180695,0.25637325644493103,-0.24257232248783112
1733902482563115500,11.819115478515625,-0.002227223478257656,0.2548348009586334,0.013684055767953396
1733902482573141500,11.8291416015625,0.16753198206424713,0.255161315202713,0.3515928387641907
1733902482583168500,11.83916845703125,0.40781286358833313,0.3427325189113617,0.6994956731796265
1733902482593195800,11.84919580078125,0.44125205278396606,0.29944735765457153,0.8465543389320374
1733902482603221800,11.8592216796875,0.43338990211486816,0.3820608854293823,0.8855007886886597
1733902482613248500,11.86924853515625,0.5533900260925293,0.5903123617172241,0.8156409859657288
1733902482623274500,11.8792744140625,0.8065145015716553,0.8733444213867188,0.7304065823554993
1733902482633301500,11.889301513671874,1.035610318183899,0.9764655232429504,0.5529454946517944
1733902482643328800,11.899328857421875,1.00841224193573,0.8683071136474609,0.3707594573497772
1733902482653354800,11.909354736328124,0.7294992208480835,0.6216201186180115,0.1383083611726761
1733902482663381500,11.919381591796874,0.28052881360054016,0.28710103034973145,-0.1267174631357193
1733902482673407500,11.929407470703126,-0.29839977622032166,-0.0759352296590805,-0.46139904856681824
1733902482683434800,11.939434814453126,-0.8520194292068481,-0.2938554883003235,-0.8595923781394958
1733902482693460700,11.949460693359375,-1.2791694402694702,-0.559964120388031,-1.3501492738723755
1733902482705367600,11.961367431640625,-1.4048314094543457,-0.6436527371406555,-1.8867775201797485
1733902482715394600,11.97139453125,-1.2534083127975464,-0.5105311870574951,-2.1711266040802
1733902482725420800,11.9814208984375,-0.998661458492279,-0.34991395473480225,-2.3912529945373535
1733902482735447600,11.991447509765624,-0.6599273085594177,-0.02984006330370903,-2.587986946105957
1733902482745473500,12.0014736328125,-0.2976303994655609,0.4212074279785156,-2.6785054206848145
1733902482755500500,12.01150048828125,-0.011839913204312325,0.8090348243713379,-2.5392558574676514
1733902482765526500,12.021526611328126,0.17613601684570312,0.8874939680099487,-2.189730405807495
1733902482775553800,12.0315537109375,0.30886849761009216,0.5948945879936218,-1.6958867311477661
1733902482785580500,12.04158056640625,0.4110988676548004,0.20320835709571838,-1.1136081218719482
1733902482795606500,12.0516064453125,0.4562671482563019,-0.0025466643273830414,-0.5134357810020447
1733902482805633500,12.061633544921875,0.42282962799072266,-0.05791287496685982,-0.017946094274520874
1733902482815659500,12.071659423828125,0.3390018343925476,-0.050140704959630966,0.2914019227027893
1733902482825686800,12.081686767578125,0.2585541605949402,-0.024415655061602592,0.39851680397987366
1733902482835712800,12.091712646484375,0.22900719940662384,-0.014661028981208801,0.3459033966064453
1733902482845739500,12.101739501953125,0.20231226086616516,-0.010811724700033665,0.2269921898841858
1733902482855766500,12.1117666015625,0.15107063949108124,0.06035512685775757,0.12849996984004974
1733902482865792500,12.12179248046875,0.07049240171909332,0.11306948959827423,0.07471957057714462
1733902482875819800,12.13181982421875,-0.03283584862947464,0.09833341836929321,0.059433285146951675
1733902482885845800,12.141845703125,-0.11559725552797318,0.05170930176973343,0.0585208386182785
1733902482895872500,12.15187255859375,-0.1732405722141266,0.05238175019621849,0.05193723738193512
1733902482905899500,12.1618994140625,-0.20434826612472534,0.0991731509566307,0.030627721920609474
1733902482915925500,12.171925537109376,-0.222937673330307,0.18337510526180267,0.006795892491936684
1733902482925952800,12.181952880859376,-0.23115046322345734,0.212058886885643,0.00502106174826622
1733902482935978800,12.191978759765625,-0.229867085814476,0.10322507470846176,0.025162816047668457
1733902482946005500,12.202005615234375,-0.2007027119398117,-0.021159103140234947,0.031579650938510895
1733902482956031500,12.212031494140625,-0.15983836352825165,-0.10209628939628601,-0.01579984836280346
1733902482966058800,12.222058837890625,-0.19916296005249023,-0.07018385827541351,-0.046126075088977814
1733902482976085800,12.232085693359375,-0.23539313673973083,-0.06393581628799438,-0.021585049107670784
1733902482986111700,12.24211181640625,-0.19344399869441986,-0.07500915229320526,0.09347264468669891
1733902482996138500,12.252138427734375,-0.07444223761558533,-0.07546535134315491,0.24441102147102356
1733902483006164500,12.26216455078125,0.11448819190263748,-0.021072253584861755,0.3690436780452728
1733902483016191700,12.272191650390624,0.29424864053726196,-0.05413060262799263,0.4039427936077118
1733902483026217700,12.2822177734375,0.34749266505241394,-0.09652320295572281,0.3246910572052002
1733902483036244700,12.29224462890625,0.2615303695201874,-0.07360643148422241,0.1799141764640808
1733902483055670500,12.31167041015625,-0.02208850532770157,-0.005612228997051716,-0.060117579996585846
1733902483065697000,12.321697021484376,-0.0833381786942482,0.029095901176333427,-0.08194589614868164
1733902483075723800,12.331723876953125,-0.0767042487859726,0.03067968226969242,-0.028193984180688858
1733902483085750800,12.341750732421875,-0.03158460184931755,0.008796172216534615,0.054833535104990005
1733902483095776800,12.35177685546875,0.012729598209261894,-0.01226543728262186,0.11156712472438812
1733902483105804000,12.361803955078125,0.031877532601356506,-0.022994020953774452,0.1039302796125412
1733902483115830000,12.371830078125,0.015687644481658936,0.002460472984239459,0.04107994586229324
1733902483125856800,12.381856689453125,-0.015181152150034904,0.04879046976566315,-0.03453242406249046
